"success","timeout","failed_images","failed_audio","failed_video","trial_type","trial_index","time_elapsed","internal_node_id","run_id","condition","recorded_at","source_code_version","ip","user_agent","device","browser","browser_version","platform","platform_version","referer","accept_language","PROLIFIC_PID","STUDY_ID","SESSION_ID","view_history","rt","stimulus","response","phase","question_order"
"true","false","[]","[]","[]","preload","0","991","0.0-0.0","54","1","2025-01-31 01:13:53","af8d355d56820e421d246a7037deb6e6","24.6.202.16","Mozilla/5.0 (Windows NT 10.0; Win64; x64) AppleWebKit/537.36 (KHTML, like Gecko) Chrome/132.0.0.0 Safari/537.36","WebKit","Chrome","132.0.0.0","Windows","10.0","https://app.prolific.com/","en-US,en;q=0.9","65bfa2967c731d263eb29732","67949641171f97c04e14fb34","679c23bc8d59197a6a99175e","","","","","",""
"","","","","","instructions","1","68381","0.0-1.0","54","1","2025-01-31 01:13:53","af8d355d56820e421d246a7037deb6e6","24.6.202.16","Mozilla/5.0 (Windows NT 10.0; Win64; x64) AppleWebKit/537.36 (KHTML, like Gecko) Chrome/132.0.0.0 Safari/537.36","WebKit","Chrome","132.0.0.0","Windows","10.0","https://app.prolific.com/","en-US,en;q=0.9","65bfa2967c731d263eb29732","67949641171f97c04e14fb34","679c23bc8d59197a6a99175e","[{""page_index"":0,""viewing_time"":67389}]","67389","","","",""
"","","","","","html-keyboard-response","2","68884","0.0-2.0","54","1","2025-01-31 01:13:53","af8d355d56820e421d246a7037deb6e6","24.6.202.16","Mozilla/5.0 (Windows NT 10.0; Win64; x64) AppleWebKit/537.36 (KHTML, like Gecko) Chrome/132.0.0.0 Safari/537.36","WebKit","Chrome","132.0.0.0","Windows","10.0","https://app.prolific.com/","en-US,en;q=0.9","65bfa2967c731d263eb29732","67949641171f97c04e14fb34","679c23bc8d59197a6a99175e","","null","<p> + <p/>","null","",""
"","","","","","instructions","3","138228","0.0-3.0","54","1","2025-01-31 01:13:53","af8d355d56820e421d246a7037deb6e6","24.6.202.16","Mozilla/5.0 (Windows NT 10.0; Win64; x64) AppleWebKit/537.36 (KHTML, like Gecko) Chrome/132.0.0.0 Safari/537.36","WebKit","Chrome","132.0.0.0","Windows","10.0","https://app.prolific.com/","en-US,en;q=0.9","65bfa2967c731d263eb29732","67949641171f97c04e14fb34","679c23bc8d59197a6a99175e","[{""page_index"":0,""viewing_time"":1997},{""page_index"":1,""viewing_time"":46267},{""page_index"":2,""viewing_time"":8171},{""page_index"":3,""viewing_time"":2435},{""page_index"":4,""viewing_time"":10475}]","69344","","","",""
"","","","","","html-button-response","4","154111","0.0-4.0-0.0-0.0","54","1","2025-01-31 01:13:53","af8d355d56820e421d246a7037deb6e6","24.6.202.16","Mozilla/5.0 (Windows NT 10.0; Win64; x64) AppleWebKit/537.36 (KHTML, like Gecko) Chrome/132.0.0.0 Safari/537.36","WebKit","Chrome","132.0.0.0","Windows","10.0","https://app.prolific.com/","en-US,en;q=0.9","65bfa2967c731d263eb29732","67949641171f97c04e14fb34","679c23bc8d59197a6a99175e","","15881","","1","Intro Trial",""
"","","","","","html-button-response","5","154551","0.0-4.1-0.1-0.1","54","1","2025-01-31 01:13:53","af8d355d56820e421d246a7037deb6e6","24.6.202.16","Mozilla/5.0 (Windows NT 10.0; Win64; x64) AppleWebKit/537.36 (KHTML, like Gecko) Chrome/132.0.0.0 Safari/537.36","WebKit","Chrome","132.0.0.0","Windows","10.0","https://app.prolific.com/","en-US,en;q=0.9","65bfa2967c731d263eb29732","67949641171f97c04e14fb34","679c23bc8d59197a6a99175e","","439","","3","Intro Trial",""
"","","","","","html-button-response","6","157372","0.0-4.2-0.2-0.2","54","1","2025-01-31 01:13:53","af8d355d56820e421d246a7037deb6e6","24.6.202.16","Mozilla/5.0 (Windows NT 10.0; Win64; x64) AppleWebKit/537.36 (KHTML, like Gecko) Chrome/132.0.0.0 Safari/537.36","WebKit","Chrome","132.0.0.0","Windows","10.0","https://app.prolific.com/","en-US,en;q=0.9","65bfa2967c731d263eb29732","67949641171f97c04e14fb34","679c23bc8d59197a6a99175e","","2819","","1","Intro Trial",""
"","","","","","html-button-response","7","158246","0.0-4.3-0.3-0.3","54","1","2025-01-31 01:13:53","af8d355d56820e421d246a7037deb6e6","24.6.202.16","Mozilla/5.0 (Windows NT 10.0; Win64; x64) AppleWebKit/537.36 (KHTML, like Gecko) Chrome/132.0.0.0 Safari/537.36","WebKit","Chrome","132.0.0.0","Windows","10.0","https://app.prolific.com/","en-US,en;q=0.9","65bfa2967c731d263eb29732","67949641171f97c04e14fb34","679c23bc8d59197a6a99175e","","872","","3","Intro Trial",""
"","","","","","html-button-response","8","158706","0.0-4.4-0.4-0.4","54","1","2025-01-31 01:13:53","af8d355d56820e421d246a7037deb6e6","24.6.202.16","Mozilla/5.0 (Windows NT 10.0; Win64; x64) AppleWebKit/537.36 (KHTML, like Gecko) Chrome/132.0.0.0 Safari/537.36","WebKit","Chrome","132.0.0.0","Windows","10.0","https://app.prolific.com/","en-US,en;q=0.9","65bfa2967c731d263eb29732","67949641171f97c04e14fb34","679c23bc8d59197a6a99175e","","459","","3","Intro Trial",""
"","","","","","html-button-response","9","158879","0.0-4.5-0.5-0.5","54","1","2025-01-31 01:13:53","af8d355d56820e421d246a7037deb6e6","24.6.202.16","Mozilla/5.0 (Windows NT 10.0; Win64; x64) AppleWebKit/537.36 (KHTML, like Gecko) Chrome/132.0.0.0 Safari/537.36","WebKit","Chrome","132.0.0.0","Windows","10.0","https://app.prolific.com/","en-US,en;q=0.9","65bfa2967c731d263eb29732","67949641171f97c04e14fb34","679c23bc8d59197a6a99175e","","172","","3","Intro Trial",""
"","","","","","html-button-response","10","159394","0.0-4.6-0.6-0.6","54","1","2025-01-31 01:13:53","af8d355d56820e421d246a7037deb6e6","24.6.202.16","Mozilla/5.0 (Windows NT 10.0; Win64; x64) AppleWebKit/537.36 (KHTML, like Gecko) Chrome/132.0.0.0 Safari/537.36","WebKit","Chrome","132.0.0.0","Windows","10.0","https://app.prolific.com/","en-US,en;q=0.9","65bfa2967c731d263eb29732","67949641171f97c04e14fb34","679c23bc8d59197a6a99175e","","514","","3","Intro Trial",""
"","","","","","html-button-response","11","160127","0.0-4.7-0.7-0.7","54","1","2025-01-31 01:13:53","af8d355d56820e421d246a7037deb6e6","24.6.202.16","Mozilla/5.0 (Windows NT 10.0; Win64; x64) AppleWebKit/537.36 (KHTML, like Gecko) Chrome/132.0.0.0 Safari/537.36","WebKit","Chrome","132.0.0.0","Windows","10.0","https://app.prolific.com/","en-US,en;q=0.9","65bfa2967c731d263eb29732","67949641171f97c04e14fb34","679c23bc8d59197a6a99175e","","731","","1","Intro Trial",""
"","","","","","html-button-response","12","160395","0.0-4.8-0.8-0.8","54","1","2025-01-31 01:13:53","af8d355d56820e421d246a7037deb6e6","24.6.202.16","Mozilla/5.0 (Windows NT 10.0; Win64; x64) AppleWebKit/537.36 (KHTML, like Gecko) Chrome/132.0.0.0 Safari/537.36","WebKit","Chrome","132.0.0.0","Windows","10.0","https://app.prolific.com/","en-US,en;q=0.9","65bfa2967c731d263eb29732","67949641171f97c04e14fb34","679c23bc8d59197a6a99175e","","267","","1","Intro Trial",""
"","","","","","html-button-response","13","170345","0.0-4.9-0.9-0.9","54","1","2025-01-31 01:13:53","af8d355d56820e421d246a7037deb6e6","24.6.202.16","Mozilla/5.0 (Windows NT 10.0; Win64; x64) AppleWebKit/537.36 (KHTML, like Gecko) Chrome/132.0.0.0 Safari/537.36","WebKit","Chrome","132.0.0.0","Windows","10.0","https://app.prolific.com/","en-US,en;q=0.9","65bfa2967c731d263eb29732","67949641171f97c04e14fb34","679c23bc8d59197a6a99175e","","9949","","3","Intro Trial",""
"","","","","","html-button-response","14","170909","0.0-4.10-0.10-0.10","54","1","2025-01-31 01:13:53","af8d355d56820e421d246a7037deb6e6","24.6.202.16","Mozilla/5.0 (Windows NT 10.0; Win64; x64) AppleWebKit/537.36 (KHTML, like Gecko) Chrome/132.0.0.0 Safari/537.36","WebKit","Chrome","132.0.0.0","Windows","10.0","https://app.prolific.com/","en-US,en;q=0.9","65bfa2967c731d263eb29732","67949641171f97c04e14fb34","679c23bc8d59197a6a99175e","","564","","3","Intro Trial",""
"","","","","","html-button-response","15","171656","0.0-4.11-0.11-0.11","54","1","2025-01-31 01:13:53","af8d355d56820e421d246a7037deb6e6","24.6.202.16","Mozilla/5.0 (Windows NT 10.0; Win64; x64) AppleWebKit/537.36 (KHTML, like Gecko) Chrome/132.0.0.0 Safari/537.36","WebKit","Chrome","132.0.0.0","Windows","10.0","https://app.prolific.com/","en-US,en;q=0.9","65bfa2967c731d263eb29732","67949641171f97c04e14fb34","679c23bc8d59197a6a99175e","","745","","3","Intro Trial",""
"","","","","","html-button-response","16","176231","0.0-4.12-0.12-0.12","54","1","2025-01-31 01:13:53","af8d355d56820e421d246a7037deb6e6","24.6.202.16","Mozilla/5.0 (Windows NT 10.0; Win64; x64) AppleWebKit/537.36 (KHTML, like Gecko) Chrome/132.0.0.0 Safari/537.36","WebKit","Chrome","132.0.0.0","Windows","10.0","https://app.prolific.com/","en-US,en;q=0.9","65bfa2967c731d263eb29732","67949641171f97c04e14fb34","679c23bc8d59197a6a99175e","","4574","","3","Intro Trial",""
"","","","","","html-button-response","17","176800","0.0-4.13-0.13-0.13","54","1","2025-01-31 01:13:53","af8d355d56820e421d246a7037deb6e6","24.6.202.16","Mozilla/5.0 (Windows NT 10.0; Win64; x64) AppleWebKit/537.36 (KHTML, like Gecko) Chrome/132.0.0.0 Safari/537.36","WebKit","Chrome","132.0.0.0","Windows","10.0","https://app.prolific.com/","en-US,en;q=0.9","65bfa2967c731d263eb29732","67949641171f97c04e14fb34","679c23bc8d59197a6a99175e","","568","","0","Intro Trial",""
"","","","","","html-button-response","18","177296","0.0-4.14-0.14-0.14","54","1","2025-01-31 01:13:53","af8d355d56820e421d246a7037deb6e6","24.6.202.16","Mozilla/5.0 (Windows NT 10.0; Win64; x64) AppleWebKit/537.36 (KHTML, like Gecko) Chrome/132.0.0.0 Safari/537.36","WebKit","Chrome","132.0.0.0","Windows","10.0","https://app.prolific.com/","en-US,en;q=0.9","65bfa2967c731d263eb29732","67949641171f97c04e14fb34","679c23bc8d59197a6a99175e","","496","","0","Intro Trial",""
"","","","","","html-button-response","19","177805","0.0-4.15-0.15-0.15","54","1","2025-01-31 01:13:53","af8d355d56820e421d246a7037deb6e6","24.6.202.16","Mozilla/5.0 (Windows NT 10.0; Win64; x64) AppleWebKit/537.36 (KHTML, like Gecko) Chrome/132.0.0.0 Safari/537.36","WebKit","Chrome","132.0.0.0","Windows","10.0","https://app.prolific.com/","en-US,en;q=0.9","65bfa2967c731d263eb29732","67949641171f97c04e14fb34","679c23bc8d59197a6a99175e","","507","","3","Intro Trial",""
"","","","","","html-button-response","20","178311","0.0-4.16-0.16-0.16","54","1","2025-01-31 01:13:53","af8d355d56820e421d246a7037deb6e6","24.6.202.16","Mozilla/5.0 (Windows NT 10.0; Win64; x64) AppleWebKit/537.36 (KHTML, like Gecko) Chrome/132.0.0.0 Safari/537.36","WebKit","Chrome","132.0.0.0","Windows","10.0","https://app.prolific.com/","en-US,en;q=0.9","65bfa2967c731d263eb29732","67949641171f97c04e14fb34","679c23bc8d59197a6a99175e","","505","","3","Intro Trial",""
"","","","","","html-button-response","21","179124","0.0-4.17-0.17-0.17","54","1","2025-01-31 01:13:53","af8d355d56820e421d246a7037deb6e6","24.6.202.16","Mozilla/5.0 (Windows NT 10.0; Win64; x64) AppleWebKit/537.36 (KHTML, like Gecko) Chrome/132.0.0.0 Safari/537.36","WebKit","Chrome","132.0.0.0","Windows","10.0","https://app.prolific.com/","en-US,en;q=0.9","65bfa2967c731d263eb29732","67949641171f97c04e14fb34","679c23bc8d59197a6a99175e","","812","","0","Intro Trial",""
"","","","","","html-button-response","22","179269","0.0-4.18-0.18-0.18","54","1","2025-01-31 01:13:53","af8d355d56820e421d246a7037deb6e6","24.6.202.16","Mozilla/5.0 (Windows NT 10.0; Win64; x64) AppleWebKit/537.36 (KHTML, like Gecko) Chrome/132.0.0.0 Safari/537.36","WebKit","Chrome","132.0.0.0","Windows","10.0","https://app.prolific.com/","en-US,en;q=0.9","65bfa2967c731d263eb29732","67949641171f97c04e14fb34","679c23bc8d59197a6a99175e","","144","","0","Intro Trial",""
"","","","","","html-button-response","23","179440","0.0-4.19-0.19-0.19","54","1","2025-01-31 01:13:53","af8d355d56820e421d246a7037deb6e6","24.6.202.16","Mozilla/5.0 (Windows NT 10.0; Win64; x64) AppleWebKit/537.36 (KHTML, like Gecko) Chrome/132.0.0.0 Safari/537.36","WebKit","Chrome","132.0.0.0","Windows","10.0","https://app.prolific.com/","en-US,en;q=0.9","65bfa2967c731d263eb29732","67949641171f97c04e14fb34","679c23bc8d59197a6a99175e","","170","","0","Intro Trial",""
"","","","","","html-button-response","24","179910","0.0-4.20-0.20-0.20","54","1","2025-01-31 01:13:53","af8d355d56820e421d246a7037deb6e6","24.6.202.16","Mozilla/5.0 (Windows NT 10.0; Win64; x64) AppleWebKit/537.36 (KHTML, like Gecko) Chrome/132.0.0.0 Safari/537.36","WebKit","Chrome","132.0.0.0","Windows","10.0","https://app.prolific.com/","en-US,en;q=0.9","65bfa2967c731d263eb29732","67949641171f97c04e14fb34","679c23bc8d59197a6a99175e","","469","","0","Intro Trial",""
"","","","","","html-button-response","25","180771","0.0-4.21-0.21-0.21","54","1","2025-01-31 01:13:53","af8d355d56820e421d246a7037deb6e6","24.6.202.16","Mozilla/5.0 (Windows NT 10.0; Win64; x64) AppleWebKit/537.36 (KHTML, like Gecko) Chrome/132.0.0.0 Safari/537.36","WebKit","Chrome","132.0.0.0","Windows","10.0","https://app.prolific.com/","en-US,en;q=0.9","65bfa2967c731d263eb29732","67949641171f97c04e14fb34","679c23bc8d59197a6a99175e","","859","","3","Intro Trial",""
"","","","","","html-button-response","26","180905","0.0-4.22-0.22-0.22","54","1","2025-01-31 01:13:53","af8d355d56820e421d246a7037deb6e6","24.6.202.16","Mozilla/5.0 (Windows NT 10.0; Win64; x64) AppleWebKit/537.36 (KHTML, like Gecko) Chrome/132.0.0.0 Safari/537.36","WebKit","Chrome","132.0.0.0","Windows","10.0","https://app.prolific.com/","en-US,en;q=0.9","65bfa2967c731d263eb29732","67949641171f97c04e14fb34","679c23bc8d59197a6a99175e","","133","","3","Intro Trial",""
"","","","","","html-button-response","27","181684","0.0-4.23-0.23-0.23","54","1","2025-01-31 01:13:53","af8d355d56820e421d246a7037deb6e6","24.6.202.16","Mozilla/5.0 (Windows NT 10.0; Win64; x64) AppleWebKit/537.36 (KHTML, like Gecko) Chrome/132.0.0.0 Safari/537.36","WebKit","Chrome","132.0.0.0","Windows","10.0","https://app.prolific.com/","en-US,en;q=0.9","65bfa2967c731d263eb29732","67949641171f97c04e14fb34","679c23bc8d59197a6a99175e","","778","","1","Intro Trial",""
"","","","","","html-button-response","28","182020","0.0-4.24-0.24-0.24","54","1","2025-01-31 01:13:53","af8d355d56820e421d246a7037deb6e6","24.6.202.16","Mozilla/5.0 (Windows NT 10.0; Win64; x64) AppleWebKit/537.36 (KHTML, like Gecko) Chrome/132.0.0.0 Safari/537.36","WebKit","Chrome","132.0.0.0","Windows","10.0","https://app.prolific.com/","en-US,en;q=0.9","65bfa2967c731d263eb29732","67949641171f97c04e14fb34","679c23bc8d59197a6a99175e","","335","","1","Intro Trial",""
"","","","","","html-button-response","29","182304","0.0-4.25-0.25-0.25","54","1","2025-01-31 01:13:53","af8d355d56820e421d246a7037deb6e6","24.6.202.16","Mozilla/5.0 (Windows NT 10.0; Win64; x64) AppleWebKit/537.36 (KHTML, like Gecko) Chrome/132.0.0.0 Safari/537.36","WebKit","Chrome","132.0.0.0","Windows","10.0","https://app.prolific.com/","en-US,en;q=0.9","65bfa2967c731d263eb29732","67949641171f97c04e14fb34","679c23bc8d59197a6a99175e","","283","","2","Intro Trial",""
"","","","","","html-button-response","30","182530","0.0-4.26-0.26-0.26","54","1","2025-01-31 01:13:53","af8d355d56820e421d246a7037deb6e6","24.6.202.16","Mozilla/5.0 (Windows NT 10.0; Win64; x64) AppleWebKit/537.36 (KHTML, like Gecko) Chrome/132.0.0.0 Safari/537.36","WebKit","Chrome","132.0.0.0","Windows","10.0","https://app.prolific.com/","en-US,en;q=0.9","65bfa2967c731d263eb29732","67949641171f97c04e14fb34","679c23bc8d59197a6a99175e","","225","","2","Intro Trial",""
"","","","","","html-button-response","31","182870","0.0-4.27-0.27-0.27","54","1","2025-01-31 01:13:53","af8d355d56820e421d246a7037deb6e6","24.6.202.16","Mozilla/5.0 (Windows NT 10.0; Win64; x64) AppleWebKit/537.36 (KHTML, like Gecko) Chrome/132.0.0.0 Safari/537.36","WebKit","Chrome","132.0.0.0","Windows","10.0","https://app.prolific.com/","en-US,en;q=0.9","65bfa2967c731d263eb29732","67949641171f97c04e14fb34","679c23bc8d59197a6a99175e","","339","","4","Intro Trial",""
"","","","","","html-button-response","32","184687","0.0-4.28-0.28-0.28","54","1","2025-01-31 01:13:53","af8d355d56820e421d246a7037deb6e6","24.6.202.16","Mozilla/5.0 (Windows NT 10.0; Win64; x64) AppleWebKit/537.36 (KHTML, like Gecko) Chrome/132.0.0.0 Safari/537.36","WebKit","Chrome","132.0.0.0","Windows","10.0","https://app.prolific.com/","en-US,en;q=0.9","65bfa2967c731d263eb29732","67949641171f97c04e14fb34","679c23bc8d59197a6a99175e","","1815","","2","Intro Trial",""
"","","","","","html-button-response","33","185004","0.0-4.29-0.29-0.29","54","1","2025-01-31 01:13:53","af8d355d56820e421d246a7037deb6e6","24.6.202.16","Mozilla/5.0 (Windows NT 10.0; Win64; x64) AppleWebKit/537.36 (KHTML, like Gecko) Chrome/132.0.0.0 Safari/537.36","WebKit","Chrome","132.0.0.0","Windows","10.0","https://app.prolific.com/","en-US,en;q=0.9","65bfa2967c731d263eb29732","67949641171f97c04e14fb34","679c23bc8d59197a6a99175e","","316","","3","Intro Trial",""
"","","","","","html-button-response","34","185636","0.0-4.30-0.30-0.30","54","1","2025-01-31 01:13:53","af8d355d56820e421d246a7037deb6e6","24.6.202.16","Mozilla/5.0 (Windows NT 10.0; Win64; x64) AppleWebKit/537.36 (KHTML, like Gecko) Chrome/132.0.0.0 Safari/537.36","WebKit","Chrome","132.0.0.0","Windows","10.0","https://app.prolific.com/","en-US,en;q=0.9","65bfa2967c731d263eb29732","67949641171f97c04e14fb34","679c23bc8d59197a6a99175e","","629","","2","Intro Trial",""
"","","","","","html-button-response","35","186132","0.0-4.31-0.31-0.31","54","1","2025-01-31 01:13:53","af8d355d56820e421d246a7037deb6e6","24.6.202.16","Mozilla/5.0 (Windows NT 10.0; Win64; x64) AppleWebKit/537.36 (KHTML, like Gecko) Chrome/132.0.0.0 Safari/537.36","WebKit","Chrome","132.0.0.0","Windows","10.0","https://app.prolific.com/","en-US,en;q=0.9","65bfa2967c731d263eb29732","67949641171f97c04e14fb34","679c23bc8d59197a6a99175e","","494","","4","Intro Trial",""
"","","","","","html-button-response","36","187321","0.0-4.32-0.32-0.32","54","1","2025-01-31 01:13:53","af8d355d56820e421d246a7037deb6e6","24.6.202.16","Mozilla/5.0 (Windows NT 10.0; Win64; x64) AppleWebKit/537.36 (KHTML, like Gecko) Chrome/132.0.0.0 Safari/537.36","WebKit","Chrome","132.0.0.0","Windows","10.0","https://app.prolific.com/","en-US,en;q=0.9","65bfa2967c731d263eb29732","67949641171f97c04e14fb34","679c23bc8d59197a6a99175e","","1187","","0","Intro Trial",""
"","","","","","html-button-response","37","187779","0.0-4.33-0.33-0.33","54","1","2025-01-31 01:13:53","af8d355d56820e421d246a7037deb6e6","24.6.202.16","Mozilla/5.0 (Windows NT 10.0; Win64; x64) AppleWebKit/537.36 (KHTML, like Gecko) Chrome/132.0.0.0 Safari/537.36","WebKit","Chrome","132.0.0.0","Windows","10.0","https://app.prolific.com/","en-US,en;q=0.9","65bfa2967c731d263eb29732","67949641171f97c04e14fb34","679c23bc8d59197a6a99175e","","457","","1","Intro Trial",""
"","","","","","html-button-response","38","190285","0.0-4.34-0.34-0.34","54","1","2025-01-31 01:13:53","af8d355d56820e421d246a7037deb6e6","24.6.202.16","Mozilla/5.0 (Windows NT 10.0; Win64; x64) AppleWebKit/537.36 (KHTML, like Gecko) Chrome/132.0.0.0 Safari/537.36","WebKit","Chrome","132.0.0.0","Windows","10.0","https://app.prolific.com/","en-US,en;q=0.9","65bfa2967c731d263eb29732","67949641171f97c04e14fb34","679c23bc8d59197a6a99175e","","2505","","3","Intro Trial",""
"","","","","","html-button-response","39","190779","0.0-4.35-0.35-0.35","54","1","2025-01-31 01:13:53","af8d355d56820e421d246a7037deb6e6","24.6.202.16","Mozilla/5.0 (Windows NT 10.0; Win64; x64) AppleWebKit/537.36 (KHTML, like Gecko) Chrome/132.0.0.0 Safari/537.36","WebKit","Chrome","132.0.0.0","Windows","10.0","https://app.prolific.com/","en-US,en;q=0.9","65bfa2967c731d263eb29732","67949641171f97c04e14fb34","679c23bc8d59197a6a99175e","","493","","0","Intro Trial",""
"","","","","","html-button-response","40","192050","0.0-4.36-0.36-0.36","54","1","2025-01-31 01:13:53","af8d355d56820e421d246a7037deb6e6","24.6.202.16","Mozilla/5.0 (Windows NT 10.0; Win64; x64) AppleWebKit/537.36 (KHTML, like Gecko) Chrome/132.0.0.0 Safari/537.36","WebKit","Chrome","132.0.0.0","Windows","10.0","https://app.prolific.com/","en-US,en;q=0.9","65bfa2967c731d263eb29732","67949641171f97c04e14fb34","679c23bc8d59197a6a99175e","","1270","","0","Intro Trial",""
"","","","","","html-button-response","41","192574","0.0-4.37-0.37-0.37","54","1","2025-01-31 01:13:53","af8d355d56820e421d246a7037deb6e6","24.6.202.16","Mozilla/5.0 (Windows NT 10.0; Win64; x64) AppleWebKit/537.36 (KHTML, like Gecko) Chrome/132.0.0.0 Safari/537.36","WebKit","Chrome","132.0.0.0","Windows","10.0","https://app.prolific.com/","en-US,en;q=0.9","65bfa2967c731d263eb29732","67949641171f97c04e14fb34","679c23bc8d59197a6a99175e","","523","","3","Intro Trial",""
"","","","","","html-button-response","42","193725","0.0-4.38-0.38-0.38","54","1","2025-01-31 01:13:53","af8d355d56820e421d246a7037deb6e6","24.6.202.16","Mozilla/5.0 (Windows NT 10.0; Win64; x64) AppleWebKit/537.36 (KHTML, like Gecko) Chrome/132.0.0.0 Safari/537.36","WebKit","Chrome","132.0.0.0","Windows","10.0","https://app.prolific.com/","en-US,en;q=0.9","65bfa2967c731d263eb29732","67949641171f97c04e14fb34","679c23bc8d59197a6a99175e","","1150","","1","Intro Trial",""
"","","","","","html-button-response","43","194135","0.0-4.39-0.39-0.39","54","1","2025-01-31 01:13:53","af8d355d56820e421d246a7037deb6e6","24.6.202.16","Mozilla/5.0 (Windows NT 10.0; Win64; x64) AppleWebKit/537.36 (KHTML, like Gecko) Chrome/132.0.0.0 Safari/537.36","WebKit","Chrome","132.0.0.0","Windows","10.0","https://app.prolific.com/","en-US,en;q=0.9","65bfa2967c731d263eb29732","67949641171f97c04e14fb34","679c23bc8d59197a6a99175e","","409","","2","Intro Trial",""
"","","","","","html-button-response","44","195211","0.0-4.40-0.40-0.40","54","1","2025-01-31 01:13:53","af8d355d56820e421d246a7037deb6e6","24.6.202.16","Mozilla/5.0 (Windows NT 10.0; Win64; x64) AppleWebKit/537.36 (KHTML, like Gecko) Chrome/132.0.0.0 Safari/537.36","WebKit","Chrome","132.0.0.0","Windows","10.0","https://app.prolific.com/","en-US,en;q=0.9","65bfa2967c731d263eb29732","67949641171f97c04e14fb34","679c23bc8d59197a6a99175e","","1074","","1","Intro Trial",""
"","","","","","html-button-response","45","195649","0.0-4.41-0.41-0.41","54","1","2025-01-31 01:13:53","af8d355d56820e421d246a7037deb6e6","24.6.202.16","Mozilla/5.0 (Windows NT 10.0; Win64; x64) AppleWebKit/537.36 (KHTML, like Gecko) Chrome/132.0.0.0 Safari/537.36","WebKit","Chrome","132.0.0.0","Windows","10.0","https://app.prolific.com/","en-US,en;q=0.9","65bfa2967c731d263eb29732","67949641171f97c04e14fb34","679c23bc8d59197a6a99175e","","437","","0","Intro Trial",""
"","","","","","html-button-response","46","196496","0.0-4.42-0.42-0.42","54","1","2025-01-31 01:13:53","af8d355d56820e421d246a7037deb6e6","24.6.202.16","Mozilla/5.0 (Windows NT 10.0; Win64; x64) AppleWebKit/537.36 (KHTML, like Gecko) Chrome/132.0.0.0 Safari/537.36","WebKit","Chrome","132.0.0.0","Windows","10.0","https://app.prolific.com/","en-US,en;q=0.9","65bfa2967c731d263eb29732","67949641171f97c04e14fb34","679c23bc8d59197a6a99175e","","845","","4","Intro Trial",""
"","","","","","html-button-response","47","197676","0.0-4.43-0.43-0.43","54","1","2025-01-31 01:13:53","af8d355d56820e421d246a7037deb6e6","24.6.202.16","Mozilla/5.0 (Windows NT 10.0; Win64; x64) AppleWebKit/537.36 (KHTML, like Gecko) Chrome/132.0.0.0 Safari/537.36","WebKit","Chrome","132.0.0.0","Windows","10.0","https://app.prolific.com/","en-US,en;q=0.9","65bfa2967c731d263eb29732","67949641171f97c04e14fb34","679c23bc8d59197a6a99175e","","1179","","3","Intro Trial",""
"","","","","","html-button-response","48","198340","0.0-4.44-0.44-0.44","54","1","2025-01-31 01:13:53","af8d355d56820e421d246a7037deb6e6","24.6.202.16","Mozilla/5.0 (Windows NT 10.0; Win64; x64) AppleWebKit/537.36 (KHTML, like Gecko) Chrome/132.0.0.0 Safari/537.36","WebKit","Chrome","132.0.0.0","Windows","10.0","https://app.prolific.com/","en-US,en;q=0.9","65bfa2967c731d263eb29732","67949641171f97c04e14fb34","679c23bc8d59197a6a99175e","","661","","3","Intro Trial",""
"","","","","","html-button-response","49","198975","0.0-4.45-0.45-0.45","54","1","2025-01-31 01:13:53","af8d355d56820e421d246a7037deb6e6","24.6.202.16","Mozilla/5.0 (Windows NT 10.0; Win64; x64) AppleWebKit/537.36 (KHTML, like Gecko) Chrome/132.0.0.0 Safari/537.36","WebKit","Chrome","132.0.0.0","Windows","10.0","https://app.prolific.com/","en-US,en;q=0.9","65bfa2967c731d263eb29732","67949641171f97c04e14fb34","679c23bc8d59197a6a99175e","","634","","3","Intro Trial",""
"","","","","","html-button-response","50","199796","0.0-4.46-0.46-0.46","54","1","2025-01-31 01:13:53","af8d355d56820e421d246a7037deb6e6","24.6.202.16","Mozilla/5.0 (Windows NT 10.0; Win64; x64) AppleWebKit/537.36 (KHTML, like Gecko) Chrome/132.0.0.0 Safari/537.36","WebKit","Chrome","132.0.0.0","Windows","10.0","https://app.prolific.com/","en-US,en;q=0.9","65bfa2967c731d263eb29732","67949641171f97c04e14fb34","679c23bc8d59197a6a99175e","","819","","4","Intro Trial",""
"","","","","","html-button-response","51","200471","0.0-4.47-0.47-0.47","54","1","2025-01-31 01:13:53","af8d355d56820e421d246a7037deb6e6","24.6.202.16","Mozilla/5.0 (Windows NT 10.0; Win64; x64) AppleWebKit/537.36 (KHTML, like Gecko) Chrome/132.0.0.0 Safari/537.36","WebKit","Chrome","132.0.0.0","Windows","10.0","https://app.prolific.com/","en-US,en;q=0.9","65bfa2967c731d263eb29732","67949641171f97c04e14fb34","679c23bc8d59197a6a99175e","","673","","3","Intro Trial",""
"","","","","","html-button-response","52","201089","0.0-4.48-0.48-0.48","54","1","2025-01-31 01:13:53","af8d355d56820e421d246a7037deb6e6","24.6.202.16","Mozilla/5.0 (Windows NT 10.0; Win64; x64) AppleWebKit/537.36 (KHTML, like Gecko) Chrome/132.0.0.0 Safari/537.36","WebKit","Chrome","132.0.0.0","Windows","10.0","https://app.prolific.com/","en-US,en;q=0.9","65bfa2967c731d263eb29732","67949641171f97c04e14fb34","679c23bc8d59197a6a99175e","","617","","3","Intro Trial",""
"","","","","","html-button-response","53","201535","0.0-4.49-0.49-0.49","54","1","2025-01-31 01:13:53","af8d355d56820e421d246a7037deb6e6","24.6.202.16","Mozilla/5.0 (Windows NT 10.0; Win64; x64) AppleWebKit/537.36 (KHTML, like Gecko) Chrome/132.0.0.0 Safari/537.36","WebKit","Chrome","132.0.0.0","Windows","10.0","https://app.prolific.com/","en-US,en;q=0.9","65bfa2967c731d263eb29732","67949641171f97c04e14fb34","679c23bc8d59197a6a99175e","","445","","4","Intro Trial",""
"","","","","","html-button-response","54","202295","0.0-4.50-0.50-0.50","54","1","2025-01-31 01:13:53","af8d355d56820e421d246a7037deb6e6","24.6.202.16","Mozilla/5.0 (Windows NT 10.0; Win64; x64) AppleWebKit/537.36 (KHTML, like Gecko) Chrome/132.0.0.0 Safari/537.36","WebKit","Chrome","132.0.0.0","Windows","10.0","https://app.prolific.com/","en-US,en;q=0.9","65bfa2967c731d263eb29732","67949641171f97c04e14fb34","679c23bc8d59197a6a99175e","","758","","2","Intro Trial",""
"","","","","","html-button-response","55","202823","0.0-4.51-0.51-0.51","54","1","2025-01-31 01:13:53","af8d355d56820e421d246a7037deb6e6","24.6.202.16","Mozilla/5.0 (Windows NT 10.0; Win64; x64) AppleWebKit/537.36 (KHTML, like Gecko) Chrome/132.0.0.0 Safari/537.36","WebKit","Chrome","132.0.0.0","Windows","10.0","https://app.prolific.com/","en-US,en;q=0.9","65bfa2967c731d263eb29732","67949641171f97c04e14fb34","679c23bc8d59197a6a99175e","","526","","3","Intro Trial",""
"","","","","","html-button-response","56","203656","0.0-4.52-0.52-0.52","54","1","2025-01-31 01:13:53","af8d355d56820e421d246a7037deb6e6","24.6.202.16","Mozilla/5.0 (Windows NT 10.0; Win64; x64) AppleWebKit/537.36 (KHTML, like Gecko) Chrome/132.0.0.0 Safari/537.36","WebKit","Chrome","132.0.0.0","Windows","10.0","https://app.prolific.com/","en-US,en;q=0.9","65bfa2967c731d263eb29732","67949641171f97c04e14fb34","679c23bc8d59197a6a99175e","","830","","2","Intro Trial",""
"","","","","","html-button-response","57","204016","0.0-4.53-0.53-0.53","54","1","2025-01-31 01:13:53","af8d355d56820e421d246a7037deb6e6","24.6.202.16","Mozilla/5.0 (Windows NT 10.0; Win64; x64) AppleWebKit/537.36 (KHTML, like Gecko) Chrome/132.0.0.0 Safari/537.36","WebKit","Chrome","132.0.0.0","Windows","10.0","https://app.prolific.com/","en-US,en;q=0.9","65bfa2967c731d263eb29732","67949641171f97c04e14fb34","679c23bc8d59197a6a99175e","","358","","1","Intro Trial",""
"","","","","","html-button-response","58","204734","0.0-4.54-0.54-0.54","54","1","2025-01-31 01:13:53","af8d355d56820e421d246a7037deb6e6","24.6.202.16","Mozilla/5.0 (Windows NT 10.0; Win64; x64) AppleWebKit/537.36 (KHTML, like Gecko) Chrome/132.0.0.0 Safari/537.36","WebKit","Chrome","132.0.0.0","Windows","10.0","https://app.prolific.com/","en-US,en;q=0.9","65bfa2967c731d263eb29732","67949641171f97c04e14fb34","679c23bc8d59197a6a99175e","","716","","2","Intro Trial",""
"","","","","","html-button-response","59","205531","0.0-4.55-0.55-0.55","54","1","2025-01-31 01:13:53","af8d355d56820e421d246a7037deb6e6","24.6.202.16","Mozilla/5.0 (Windows NT 10.0; Win64; x64) AppleWebKit/537.36 (KHTML, like Gecko) Chrome/132.0.0.0 Safari/537.36","WebKit","Chrome","132.0.0.0","Windows","10.0","https://app.prolific.com/","en-US,en;q=0.9","65bfa2967c731d263eb29732","67949641171f97c04e14fb34","679c23bc8d59197a6a99175e","","795","","1","Intro Trial",""
"","","","","","html-button-response","60","206885","0.0-4.56-0.56-0.56","54","1","2025-01-31 01:13:53","af8d355d56820e421d246a7037deb6e6","24.6.202.16","Mozilla/5.0 (Windows NT 10.0; Win64; x64) AppleWebKit/537.36 (KHTML, like Gecko) Chrome/132.0.0.0 Safari/537.36","WebKit","Chrome","132.0.0.0","Windows","10.0","https://app.prolific.com/","en-US,en;q=0.9","65bfa2967c731d263eb29732","67949641171f97c04e14fb34","679c23bc8d59197a6a99175e","","1352","","1","Intro Trial",""
"","","","","","html-button-response","61","207394","0.0-4.57-0.57-0.57","54","1","2025-01-31 01:13:53","af8d355d56820e421d246a7037deb6e6","24.6.202.16","Mozilla/5.0 (Windows NT 10.0; Win64; x64) AppleWebKit/537.36 (KHTML, like Gecko) Chrome/132.0.0.0 Safari/537.36","WebKit","Chrome","132.0.0.0","Windows","10.0","https://app.prolific.com/","en-US,en;q=0.9","65bfa2967c731d263eb29732","67949641171f97c04e14fb34","679c23bc8d59197a6a99175e","","508","","2","Intro Trial",""
"","","","","","html-button-response","62","208157","0.0-4.58-0.58-0.58","54","1","2025-01-31 01:13:53","af8d355d56820e421d246a7037deb6e6","24.6.202.16","Mozilla/5.0 (Windows NT 10.0; Win64; x64) AppleWebKit/537.36 (KHTML, like Gecko) Chrome/132.0.0.0 Safari/537.36","WebKit","Chrome","132.0.0.0","Windows","10.0","https://app.prolific.com/","en-US,en;q=0.9","65bfa2967c731d263eb29732","67949641171f97c04e14fb34","679c23bc8d59197a6a99175e","","762","","3","Intro Trial",""
"","","","","","html-button-response","63","208521","0.0-4.59-0.59-0.59","54","1","2025-01-31 01:13:53","af8d355d56820e421d246a7037deb6e6","24.6.202.16","Mozilla/5.0 (Windows NT 10.0; Win64; x64) AppleWebKit/537.36 (KHTML, like Gecko) Chrome/132.0.0.0 Safari/537.36","WebKit","Chrome","132.0.0.0","Windows","10.0","https://app.prolific.com/","en-US,en;q=0.9","65bfa2967c731d263eb29732","67949641171f97c04e14fb34","679c23bc8d59197a6a99175e","","362","","2","Intro Trial",""
"","","","","","html-button-response","64","209211","0.0-4.60-0.60-0.60","54","1","2025-01-31 01:13:53","af8d355d56820e421d246a7037deb6e6","24.6.202.16","Mozilla/5.0 (Windows NT 10.0; Win64; x64) AppleWebKit/537.36 (KHTML, like Gecko) Chrome/132.0.0.0 Safari/537.36","WebKit","Chrome","132.0.0.0","Windows","10.0","https://app.prolific.com/","en-US,en;q=0.9","65bfa2967c731d263eb29732","67949641171f97c04e14fb34","679c23bc8d59197a6a99175e","","688","","4","Intro Trial",""
"","","","","","html-button-response","65","209680","0.0-4.61-0.61-0.61","54","1","2025-01-31 01:13:53","af8d355d56820e421d246a7037deb6e6","24.6.202.16","Mozilla/5.0 (Windows NT 10.0; Win64; x64) AppleWebKit/537.36 (KHTML, like Gecko) Chrome/132.0.0.0 Safari/537.36","WebKit","Chrome","132.0.0.0","Windows","10.0","https://app.prolific.com/","en-US,en;q=0.9","65bfa2967c731d263eb29732","67949641171f97c04e14fb34","679c23bc8d59197a6a99175e","","467","","3","Intro Trial",""
"","","","","","html-button-response","66","221870","0.0-4.62-0.62-0.62","54","1","2025-01-31 01:13:53","af8d355d56820e421d246a7037deb6e6","24.6.202.16","Mozilla/5.0 (Windows NT 10.0; Win64; x64) AppleWebKit/537.36 (KHTML, like Gecko) Chrome/132.0.0.0 Safari/537.36","WebKit","Chrome","132.0.0.0","Windows","10.0","https://app.prolific.com/","en-US,en;q=0.9","65bfa2967c731d263eb29732","67949641171f97c04e14fb34","679c23bc8d59197a6a99175e","","12188","","4","Intro Trial",""
"","","","","","html-button-response","67","222450","0.0-4.63-0.63-0.63","54","1","2025-01-31 01:13:53","af8d355d56820e421d246a7037deb6e6","24.6.202.16","Mozilla/5.0 (Windows NT 10.0; Win64; x64) AppleWebKit/537.36 (KHTML, like Gecko) Chrome/132.0.0.0 Safari/537.36","WebKit","Chrome","132.0.0.0","Windows","10.0","https://app.prolific.com/","en-US,en;q=0.9","65bfa2967c731d263eb29732","67949641171f97c04e14fb34","679c23bc8d59197a6a99175e","","578","","1","Intro Trial",""
"","","","","","html-button-response","68","223116","0.0-4.64-0.64-0.64","54","1","2025-01-31 01:13:53","af8d355d56820e421d246a7037deb6e6","24.6.202.16","Mozilla/5.0 (Windows NT 10.0; Win64; x64) AppleWebKit/537.36 (KHTML, like Gecko) Chrome/132.0.0.0 Safari/537.36","WebKit","Chrome","132.0.0.0","Windows","10.0","https://app.prolific.com/","en-US,en;q=0.9","65bfa2967c731d263eb29732","67949641171f97c04e14fb34","679c23bc8d59197a6a99175e","","664","","1","Intro Trial",""
"","","","","","html-button-response","69","223665","0.0-4.65-0.65-0.65","54","1","2025-01-31 01:13:53","af8d355d56820e421d246a7037deb6e6","24.6.202.16","Mozilla/5.0 (Windows NT 10.0; Win64; x64) AppleWebKit/537.36 (KHTML, like Gecko) Chrome/132.0.0.0 Safari/537.36","WebKit","Chrome","132.0.0.0","Windows","10.0","https://app.prolific.com/","en-US,en;q=0.9","65bfa2967c731d263eb29732","67949641171f97c04e14fb34","679c23bc8d59197a6a99175e","","547","","4","Intro Trial",""
"","","","","","html-button-response","70","225606","0.0-4.66-0.66-0.66","54","1","2025-01-31 01:13:53","af8d355d56820e421d246a7037deb6e6","24.6.202.16","Mozilla/5.0 (Windows NT 10.0; Win64; x64) AppleWebKit/537.36 (KHTML, like Gecko) Chrome/132.0.0.0 Safari/537.36","WebKit","Chrome","132.0.0.0","Windows","10.0","https://app.prolific.com/","en-US,en;q=0.9","65bfa2967c731d263eb29732","67949641171f97c04e14fb34","679c23bc8d59197a6a99175e","","1939","","0","Intro Trial",""
"","","","","","html-button-response","71","226070","0.0-4.67-0.67-0.67","54","1","2025-01-31 01:13:53","af8d355d56820e421d246a7037deb6e6","24.6.202.16","Mozilla/5.0 (Windows NT 10.0; Win64; x64) AppleWebKit/537.36 (KHTML, like Gecko) Chrome/132.0.0.0 Safari/537.36","WebKit","Chrome","132.0.0.0","Windows","10.0","https://app.prolific.com/","en-US,en;q=0.9","65bfa2967c731d263eb29732","67949641171f97c04e14fb34","679c23bc8d59197a6a99175e","","463","","2","Intro Trial",""
"","","","","","html-button-response","72","226680","0.0-4.68-0.68-0.68","54","1","2025-01-31 01:13:53","af8d355d56820e421d246a7037deb6e6","24.6.202.16","Mozilla/5.0 (Windows NT 10.0; Win64; x64) AppleWebKit/537.36 (KHTML, like Gecko) Chrome/132.0.0.0 Safari/537.36","WebKit","Chrome","132.0.0.0","Windows","10.0","https://app.prolific.com/","en-US,en;q=0.9","65bfa2967c731d263eb29732","67949641171f97c04e14fb34","679c23bc8d59197a6a99175e","","607","","2","Intro Trial",""
"","","","","","html-button-response","73","227659","0.0-4.69-0.69-0.69","54","1","2025-01-31 01:13:53","af8d355d56820e421d246a7037deb6e6","24.6.202.16","Mozilla/5.0 (Windows NT 10.0; Win64; x64) AppleWebKit/537.36 (KHTML, like Gecko) Chrome/132.0.0.0 Safari/537.36","WebKit","Chrome","132.0.0.0","Windows","10.0","https://app.prolific.com/","en-US,en;q=0.9","65bfa2967c731d263eb29732","67949641171f97c04e14fb34","679c23bc8d59197a6a99175e","","978","","1","Intro Trial",""
"","","","","","html-button-response","74","228706","0.0-4.70-0.70-0.70","54","1","2025-01-31 01:13:53","af8d355d56820e421d246a7037deb6e6","24.6.202.16","Mozilla/5.0 (Windows NT 10.0; Win64; x64) AppleWebKit/537.36 (KHTML, like Gecko) Chrome/132.0.0.0 Safari/537.36","WebKit","Chrome","132.0.0.0","Windows","10.0","https://app.prolific.com/","en-US,en;q=0.9","65bfa2967c731d263eb29732","67949641171f97c04e14fb34","679c23bc8d59197a6a99175e","","1045","","4","Intro Trial",""
"","","","","","html-button-response","75","229690","0.0-4.71-0.71-0.71","54","1","2025-01-31 01:13:53","af8d355d56820e421d246a7037deb6e6","24.6.202.16","Mozilla/5.0 (Windows NT 10.0; Win64; x64) AppleWebKit/537.36 (KHTML, like Gecko) Chrome/132.0.0.0 Safari/537.36","WebKit","Chrome","132.0.0.0","Windows","10.0","https://app.prolific.com/","en-US,en;q=0.9","65bfa2967c731d263eb29732","67949641171f97c04e14fb34","679c23bc8d59197a6a99175e","","982","","3","Intro Trial",""
"","","","","","html-button-response","76","230250","0.0-4.72-0.72-0.72","54","1","2025-01-31 01:13:53","af8d355d56820e421d246a7037deb6e6","24.6.202.16","Mozilla/5.0 (Windows NT 10.0; Win64; x64) AppleWebKit/537.36 (KHTML, like Gecko) Chrome/132.0.0.0 Safari/537.36","WebKit","Chrome","132.0.0.0","Windows","10.0","https://app.prolific.com/","en-US,en;q=0.9","65bfa2967c731d263eb29732","67949641171f97c04e14fb34","679c23bc8d59197a6a99175e","","557","","3","Intro Trial",""
"","","","","","html-button-response","77","233437","0.0-4.73-0.73-0.73","54","1","2025-01-31 01:13:53","af8d355d56820e421d246a7037deb6e6","24.6.202.16","Mozilla/5.0 (Windows NT 10.0; Win64; x64) AppleWebKit/537.36 (KHTML, like Gecko) Chrome/132.0.0.0 Safari/537.36","WebKit","Chrome","132.0.0.0","Windows","10.0","https://app.prolific.com/","en-US,en;q=0.9","65bfa2967c731d263eb29732","67949641171f97c04e14fb34","679c23bc8d59197a6a99175e","","3185","","1","Intro Trial",""
"","","","","","html-button-response","78","233595","0.0-4.74-0.74-0.74","54","1","2025-01-31 01:13:53","af8d355d56820e421d246a7037deb6e6","24.6.202.16","Mozilla/5.0 (Windows NT 10.0; Win64; x64) AppleWebKit/537.36 (KHTML, like Gecko) Chrome/132.0.0.0 Safari/537.36","WebKit","Chrome","132.0.0.0","Windows","10.0","https://app.prolific.com/","en-US,en;q=0.9","65bfa2967c731d263eb29732","67949641171f97c04e14fb34","679c23bc8d59197a6a99175e","","156","","1","Intro Trial",""
"","","","","","html-button-response","79","233935","0.0-4.75-0.75-0.75","54","1","2025-01-31 01:13:53","af8d355d56820e421d246a7037deb6e6","24.6.202.16","Mozilla/5.0 (Windows NT 10.0; Win64; x64) AppleWebKit/537.36 (KHTML, like Gecko) Chrome/132.0.0.0 Safari/537.36","WebKit","Chrome","132.0.0.0","Windows","10.0","https://app.prolific.com/","en-US,en;q=0.9","65bfa2967c731d263eb29732","67949641171f97c04e14fb34","679c23bc8d59197a6a99175e","","339","","1","Intro Trial",""
"","","","","","html-button-response","80","234531","0.0-4.76-0.76-0.76","54","1","2025-01-31 01:13:53","af8d355d56820e421d246a7037deb6e6","24.6.202.16","Mozilla/5.0 (Windows NT 10.0; Win64; x64) AppleWebKit/537.36 (KHTML, like Gecko) Chrome/132.0.0.0 Safari/537.36","WebKit","Chrome","132.0.0.0","Windows","10.0","https://app.prolific.com/","en-US,en;q=0.9","65bfa2967c731d263eb29732","67949641171f97c04e14fb34","679c23bc8d59197a6a99175e","","593","","0","Intro Trial",""
"","","","","","html-button-response","81","234665","0.0-4.77-0.77-0.77","54","1","2025-01-31 01:13:53","af8d355d56820e421d246a7037deb6e6","24.6.202.16","Mozilla/5.0 (Windows NT 10.0; Win64; x64) AppleWebKit/537.36 (KHTML, like Gecko) Chrome/132.0.0.0 Safari/537.36","WebKit","Chrome","132.0.0.0","Windows","10.0","https://app.prolific.com/","en-US,en;q=0.9","65bfa2967c731d263eb29732","67949641171f97c04e14fb34","679c23bc8d59197a6a99175e","","132","","0","Intro Trial",""
"","","","","","html-button-response","82","235244","0.0-4.78-0.78-0.78","54","1","2025-01-31 01:13:53","af8d355d56820e421d246a7037deb6e6","24.6.202.16","Mozilla/5.0 (Windows NT 10.0; Win64; x64) AppleWebKit/537.36 (KHTML, like Gecko) Chrome/132.0.0.0 Safari/537.36","WebKit","Chrome","132.0.0.0","Windows","10.0","https://app.prolific.com/","en-US,en;q=0.9","65bfa2967c731d263eb29732","67949641171f97c04e14fb34","679c23bc8d59197a6a99175e","","577","","2","Intro Trial",""
"","","","","","html-button-response","83","235384","0.0-4.79-0.79-0.79","54","1","2025-01-31 01:13:53","af8d355d56820e421d246a7037deb6e6","24.6.202.16","Mozilla/5.0 (Windows NT 10.0; Win64; x64) AppleWebKit/537.36 (KHTML, like Gecko) Chrome/132.0.0.0 Safari/537.36","WebKit","Chrome","132.0.0.0","Windows","10.0","https://app.prolific.com/","en-US,en;q=0.9","65bfa2967c731d263eb29732","67949641171f97c04e14fb34","679c23bc8d59197a6a99175e","","138","","2","Intro Trial",""
"","","","","","html-button-response","84","235840","0.0-4.80-0.80-0.80","54","1","2025-01-31 01:13:53","af8d355d56820e421d246a7037deb6e6","24.6.202.16","Mozilla/5.0 (Windows NT 10.0; Win64; x64) AppleWebKit/537.36 (KHTML, like Gecko) Chrome/132.0.0.0 Safari/537.36","WebKit","Chrome","132.0.0.0","Windows","10.0","https://app.prolific.com/","en-US,en;q=0.9","65bfa2967c731d263eb29732","67949641171f97c04e14fb34","679c23bc8d59197a6a99175e","","454","","3","Intro Trial",""
"","","","","","html-button-response","85","235994","0.0-4.81-0.81-0.81","54","1","2025-01-31 01:13:53","af8d355d56820e421d246a7037deb6e6","24.6.202.16","Mozilla/5.0 (Windows NT 10.0; Win64; x64) AppleWebKit/537.36 (KHTML, like Gecko) Chrome/132.0.0.0 Safari/537.36","WebKit","Chrome","132.0.0.0","Windows","10.0","https://app.prolific.com/","en-US,en;q=0.9","65bfa2967c731d263eb29732","67949641171f97c04e14fb34","679c23bc8d59197a6a99175e","","153","","3","Intro Trial",""
"","","","","","html-button-response","86","236405","0.0-4.82-0.82-0.82","54","1","2025-01-31 01:13:53","af8d355d56820e421d246a7037deb6e6","24.6.202.16","Mozilla/5.0 (Windows NT 10.0; Win64; x64) AppleWebKit/537.36 (KHTML, like Gecko) Chrome/132.0.0.0 Safari/537.36","WebKit","Chrome","132.0.0.0","Windows","10.0","https://app.prolific.com/","en-US,en;q=0.9","65bfa2967c731d263eb29732","67949641171f97c04e14fb34","679c23bc8d59197a6a99175e","","409","","4","Intro Trial",""
"","","","","","html-button-response","87","236570","0.0-4.83-0.83-0.83","54","1","2025-01-31 01:13:53","af8d355d56820e421d246a7037deb6e6","24.6.202.16","Mozilla/5.0 (Windows NT 10.0; Win64; x64) AppleWebKit/537.36 (KHTML, like Gecko) Chrome/132.0.0.0 Safari/537.36","WebKit","Chrome","132.0.0.0","Windows","10.0","https://app.prolific.com/","en-US,en;q=0.9","65bfa2967c731d263eb29732","67949641171f97c04e14fb34","679c23bc8d59197a6a99175e","","163","","4","Intro Trial",""
"","","","","","html-button-response","88","242661","0.0-4.84-0.84-0.84","54","1","2025-01-31 01:13:53","af8d355d56820e421d246a7037deb6e6","24.6.202.16","Mozilla/5.0 (Windows NT 10.0; Win64; x64) AppleWebKit/537.36 (KHTML, like Gecko) Chrome/132.0.0.0 Safari/537.36","WebKit","Chrome","132.0.0.0","Windows","10.0","https://app.prolific.com/","en-US,en;q=0.9","65bfa2967c731d263eb29732","67949641171f97c04e14fb34","679c23bc8d59197a6a99175e","","6089","","0","Intro Trial",""
"","","","","","html-button-response","89","242995","0.0-4.85-0.85-0.85","54","1","2025-01-31 01:13:53","af8d355d56820e421d246a7037deb6e6","24.6.202.16","Mozilla/5.0 (Windows NT 10.0; Win64; x64) AppleWebKit/537.36 (KHTML, like Gecko) Chrome/132.0.0.0 Safari/537.36","WebKit","Chrome","132.0.0.0","Windows","10.0","https://app.prolific.com/","en-US,en;q=0.9","65bfa2967c731d263eb29732","67949641171f97c04e14fb34","679c23bc8d59197a6a99175e","","332","","0","Intro Trial",""
"","","","","","html-button-response","90","244881","0.0-4.86-0.86-0.86","54","1","2025-01-31 01:13:53","af8d355d56820e421d246a7037deb6e6","24.6.202.16","Mozilla/5.0 (Windows NT 10.0; Win64; x64) AppleWebKit/537.36 (KHTML, like Gecko) Chrome/132.0.0.0 Safari/537.36","WebKit","Chrome","132.0.0.0","Windows","10.0","https://app.prolific.com/","en-US,en;q=0.9","65bfa2967c731d263eb29732","67949641171f97c04e14fb34","679c23bc8d59197a6a99175e","","1884","","4","Intro Trial",""
"","","","","","html-button-response","91","245600","0.0-4.87-0.87-0.87","54","1","2025-01-31 01:13:53","af8d355d56820e421d246a7037deb6e6","24.6.202.16","Mozilla/5.0 (Windows NT 10.0; Win64; x64) AppleWebKit/537.36 (KHTML, like Gecko) Chrome/132.0.0.0 Safari/537.36","WebKit","Chrome","132.0.0.0","Windows","10.0","https://app.prolific.com/","en-US,en;q=0.9","65bfa2967c731d263eb29732","67949641171f97c04e14fb34","679c23bc8d59197a6a99175e","","718","","0","Intro Trial",""
"","","","","","html-button-response","92","245880","0.0-4.88-0.88-0.88","54","1","2025-01-31 01:13:53","af8d355d56820e421d246a7037deb6e6","24.6.202.16","Mozilla/5.0 (Windows NT 10.0; Win64; x64) AppleWebKit/537.36 (KHTML, like Gecko) Chrome/132.0.0.0 Safari/537.36","WebKit","Chrome","132.0.0.0","Windows","10.0","https://app.prolific.com/","en-US,en;q=0.9","65bfa2967c731d263eb29732","67949641171f97c04e14fb34","679c23bc8d59197a6a99175e","","278","","0","Intro Trial",""
"","","","","","html-button-response","93","246436","0.0-4.89-0.89-0.89","54","1","2025-01-31 01:13:53","af8d355d56820e421d246a7037deb6e6","24.6.202.16","Mozilla/5.0 (Windows NT 10.0; Win64; x64) AppleWebKit/537.36 (KHTML, like Gecko) Chrome/132.0.0.0 Safari/537.36","WebKit","Chrome","132.0.0.0","Windows","10.0","https://app.prolific.com/","en-US,en;q=0.9","65bfa2967c731d263eb29732","67949641171f97c04e14fb34","679c23bc8d59197a6a99175e","","553","","0","Intro Trial",""
"","","","","","html-button-response","94","247130","0.0-4.90-0.90-0.90","54","1","2025-01-31 01:13:53","af8d355d56820e421d246a7037deb6e6","24.6.202.16","Mozilla/5.0 (Windows NT 10.0; Win64; x64) AppleWebKit/537.36 (KHTML, like Gecko) Chrome/132.0.0.0 Safari/537.36","WebKit","Chrome","132.0.0.0","Windows","10.0","https://app.prolific.com/","en-US,en;q=0.9","65bfa2967c731d263eb29732","67949641171f97c04e14fb34","679c23bc8d59197a6a99175e","","692","","4","Intro Trial",""
"","","","","","html-button-response","95","247409","0.0-4.91-0.91-0.91","54","1","2025-01-31 01:13:53","af8d355d56820e421d246a7037deb6e6","24.6.202.16","Mozilla/5.0 (Windows NT 10.0; Win64; x64) AppleWebKit/537.36 (KHTML, like Gecko) Chrome/132.0.0.0 Safari/537.36","WebKit","Chrome","132.0.0.0","Windows","10.0","https://app.prolific.com/","en-US,en;q=0.9","65bfa2967c731d263eb29732","67949641171f97c04e14fb34","679c23bc8d59197a6a99175e","","273","","4","Intro Trial",""
"","","","","","html-button-response","96","247991","0.0-4.92-0.92-0.92","54","1","2025-01-31 01:13:53","af8d355d56820e421d246a7037deb6e6","24.6.202.16","Mozilla/5.0 (Windows NT 10.0; Win64; x64) AppleWebKit/537.36 (KHTML, like Gecko) Chrome/132.0.0.0 Safari/537.36","WebKit","Chrome","132.0.0.0","Windows","10.0","https://app.prolific.com/","en-US,en;q=0.9","65bfa2967c731d263eb29732","67949641171f97c04e14fb34","679c23bc8d59197a6a99175e","","578","","0","Intro Trial",""
"","","","","","html-button-response","97","248135","0.0-4.93-0.93-0.93","54","1","2025-01-31 01:13:53","af8d355d56820e421d246a7037deb6e6","24.6.202.16","Mozilla/5.0 (Windows NT 10.0; Win64; x64) AppleWebKit/537.36 (KHTML, like Gecko) Chrome/132.0.0.0 Safari/537.36","WebKit","Chrome","132.0.0.0","Windows","10.0","https://app.prolific.com/","en-US,en;q=0.9","65bfa2967c731d263eb29732","67949641171f97c04e14fb34","679c23bc8d59197a6a99175e","","143","","0","Intro Trial",""
"","","","","","html-button-response","98","249300","0.0-4.94-0.94-0.94","54","1","2025-01-31 01:13:53","af8d355d56820e421d246a7037deb6e6","24.6.202.16","Mozilla/5.0 (Windows NT 10.0; Win64; x64) AppleWebKit/537.36 (KHTML, like Gecko) Chrome/132.0.0.0 Safari/537.36","WebKit","Chrome","132.0.0.0","Windows","10.0","https://app.prolific.com/","en-US,en;q=0.9","65bfa2967c731d263eb29732","67949641171f97c04e14fb34","679c23bc8d59197a6a99175e","","1162","","4","Intro Trial",""
"","","","","","html-button-response","99","250269","0.0-4.95-0.95-0.95","54","1","2025-01-31 01:13:53","af8d355d56820e421d246a7037deb6e6","24.6.202.16","Mozilla/5.0 (Windows NT 10.0; Win64; x64) AppleWebKit/537.36 (KHTML, like Gecko) Chrome/132.0.0.0 Safari/537.36","WebKit","Chrome","132.0.0.0","Windows","10.0","https://app.prolific.com/","en-US,en;q=0.9","65bfa2967c731d263eb29732","67949641171f97c04e14fb34","679c23bc8d59197a6a99175e","","968","","1","Intro Trial",""
"","","","","","html-button-response","100","250781","0.0-4.96-0.96-0.96","54","1","2025-01-31 01:13:53","af8d355d56820e421d246a7037deb6e6","24.6.202.16","Mozilla/5.0 (Windows NT 10.0; Win64; x64) AppleWebKit/537.36 (KHTML, like Gecko) Chrome/132.0.0.0 Safari/537.36","WebKit","Chrome","132.0.0.0","Windows","10.0","https://app.prolific.com/","en-US,en;q=0.9","65bfa2967c731d263eb29732","67949641171f97c04e14fb34","679c23bc8d59197a6a99175e","","510","","1","Intro Trial",""
"","","","","","html-button-response","101","251485","0.0-4.97-0.97-0.97","54","1","2025-01-31 01:13:53","af8d355d56820e421d246a7037deb6e6","24.6.202.16","Mozilla/5.0 (Windows NT 10.0; Win64; x64) AppleWebKit/537.36 (KHTML, like Gecko) Chrome/132.0.0.0 Safari/537.36","WebKit","Chrome","132.0.0.0","Windows","10.0","https://app.prolific.com/","en-US,en;q=0.9","65bfa2967c731d263eb29732","67949641171f97c04e14fb34","679c23bc8d59197a6a99175e","","702","","4","Intro Trial",""
"","","","","","html-button-response","102","252007","0.0-4.98-0.98-0.98","54","1","2025-01-31 01:13:53","af8d355d56820e421d246a7037deb6e6","24.6.202.16","Mozilla/5.0 (Windows NT 10.0; Win64; x64) AppleWebKit/537.36 (KHTML, like Gecko) Chrome/132.0.0.0 Safari/537.36","WebKit","Chrome","132.0.0.0","Windows","10.0","https://app.prolific.com/","en-US,en;q=0.9","65bfa2967c731d263eb29732","67949641171f97c04e14fb34","679c23bc8d59197a6a99175e","","520","","3","Intro Trial",""
"","","","","","html-button-response","103","252525","0.0-4.99-0.99-0.99","54","1","2025-01-31 01:13:53","af8d355d56820e421d246a7037deb6e6","24.6.202.16","Mozilla/5.0 (Windows NT 10.0; Win64; x64) AppleWebKit/537.36 (KHTML, like Gecko) Chrome/132.0.0.0 Safari/537.36","WebKit","Chrome","132.0.0.0","Windows","10.0","https://app.prolific.com/","en-US,en;q=0.9","65bfa2967c731d263eb29732","67949641171f97c04e14fb34","679c23bc8d59197a6a99175e","","515","","5","Intro Trial",""
"","","","","","html-keyboard-response","104","269490","0.0-5.0","54","1","2025-01-31 01:13:53","af8d355d56820e421d246a7037deb6e6","24.6.202.16","Mozilla/5.0 (Windows NT 10.0; Win64; x64) AppleWebKit/537.36 (KHTML, like Gecko) Chrome/132.0.0.0 Safari/537.36","WebKit","Chrome","132.0.0.0","Windows","10.0","https://app.prolific.com/","en-US,en;q=0.9","65bfa2967c731d263eb29732","67949641171f97c04e14fb34","679c23bc8d59197a6a99175e","","16962","[""You sorted correctly by using the balance 36 times. <br><br> <img src='G_5.jpg' height='90'><img src='G_2.jpg' height='90'><img src='G_3.jpg' height='90'><img src='G_1.jpg' height='90'><img src='G_4.jpg' height='90'><br><br> Your final order is 1,2,3,4,5<br><br><br>Omgne Sort in this game will allow you to sort correctly by using the balance 8 times. Press Enter to learn it!""]","enter","",""
"","","","","","html-keyboard-response","105","274306","0.0-6.0","54","1","2025-01-31 01:13:53","af8d355d56820e421d246a7037deb6e6","24.6.202.16","Mozilla/5.0 (Windows NT 10.0; Win64; x64) AppleWebKit/537.36 (KHTML, like Gecko) Chrome/132.0.0.0 Safari/537.36","WebKit","Chrome","132.0.0.0","Windows","10.0","https://app.prolific.com/","en-US,en;q=0.9","65bfa2967c731d263eb29732","67949641171f97c04e14fb34","679c23bc8d59197a6a99175e","","4814","<p>Welcome to the learning phase! <br><br> You will learn by six examples. The following learning trials will not be used to calculate your performance. <br><br> Press Enter to continue.<p/>","enter","",""
"","","","","","html-keyboard-response","106","278744","0.0-7.0","54","1","2025-01-31 01:13:53","af8d355d56820e421d246a7037deb6e6","24.6.202.16","Mozilla/5.0 (Windows NT 10.0; Win64; x64) AppleWebKit/537.36 (KHTML, like Gecko) Chrome/132.0.0.0 Safari/537.36","WebKit","Chrome","132.0.0.0","Windows","10.0","https://app.prolific.com/","en-US,en;q=0.9","65bfa2967c731d263eb29732","67949641171f97c04e14fb34","679c23bc8d59197a6a99175e","","4437","[""Example 1<br><br>You will watch Omnge Sort in action. Try to identify any patterns in the comparisons made by this method. <br><br>Press Enter to continue.""]","enter","",""
"","","","","","html-keyboard-response","107","279247","0.0-8.0","54","1","2025-01-31 01:13:53","af8d355d56820e421d246a7037deb6e6","24.6.202.16","Mozilla/5.0 (Windows NT 10.0; Win64; x64) AppleWebKit/537.36 (KHTML, like Gecko) Chrome/132.0.0.0 Safari/537.36","WebKit","Chrome","132.0.0.0","Windows","10.0","https://app.prolific.com/","en-US,en;q=0.9","65bfa2967c731d263eb29732","67949641171f97c04e14fb34","679c23bc8d59197a6a99175e","","null","<img id='selected' src='G_9.jpg' height='90'> <img src='G_1.jpg' height='90'> <img src='G_3.jpg' height='90'> <img src='G_7.jpg' height='90'> <img src='G_5.jpg' height='90'>","null","Animation0",""
"","","","","","html-keyboard-response","108","279759","0.0-9.0","54","1","2025-01-31 01:13:53","af8d355d56820e421d246a7037deb6e6","24.6.202.16","Mozilla/5.0 (Windows NT 10.0; Win64; x64) AppleWebKit/537.36 (KHTML, like Gecko) Chrome/132.0.0.0 Safari/537.36","WebKit","Chrome","132.0.0.0","Windows","10.0","https://app.prolific.com/","en-US,en;q=0.9","65bfa2967c731d263eb29732","67949641171f97c04e14fb34","679c23bc8d59197a6a99175e","","null","<img id='selected' src='G_9.jpg' height='90'> <img id='selected' src='G_1.jpg' height='90'> <img src='G_3.jpg' height='90'> <img src='G_7.jpg' height='90'> <img src='G_5.jpg' height='90'>","null","Animation0",""
"","","","","","html-keyboard-response","109","280275","0.0-10.0","54","1","2025-01-31 01:13:53","af8d355d56820e421d246a7037deb6e6","24.6.202.16","Mozilla/5.0 (Windows NT 10.0; Win64; x64) AppleWebKit/537.36 (KHTML, like Gecko) Chrome/132.0.0.0 Safari/537.36","WebKit","Chrome","132.0.0.0","Windows","10.0","https://app.prolific.com/","en-US,en;q=0.9","65bfa2967c731d263eb29732","67949641171f97c04e14fb34","679c23bc8d59197a6a99175e","","null","<img id='swapped' src='G_1.jpg' height='90'> <img id='swapped' src='G_9.jpg' height='90'> <img src='G_3.jpg' height='90'> <img src='G_7.jpg' height='90'> <img src='G_5.jpg' height='90'>","null","Animation0",""
"","","","","","html-keyboard-response","110","280587","0.0-11.0","54","1","2025-01-31 01:13:53","af8d355d56820e421d246a7037deb6e6","24.6.202.16","Mozilla/5.0 (Windows NT 10.0; Win64; x64) AppleWebKit/537.36 (KHTML, like Gecko) Chrome/132.0.0.0 Safari/537.36","WebKit","Chrome","132.0.0.0","Windows","10.0","https://app.prolific.com/","en-US,en;q=0.9","65bfa2967c731d263eb29732","67949641171f97c04e14fb34","679c23bc8d59197a6a99175e","","null","<img  src='G_1.jpg' height='90'> <img  src='G_9.jpg' height='90'> <img src='G_3.jpg' height='90'> <img src='G_7.jpg' height='90'> <img src='G_5.jpg' height='90'>","null","Animation0",""
"","","","","","html-keyboard-response","111","281101","0.0-12.0","54","1","2025-01-31 01:13:53","af8d355d56820e421d246a7037deb6e6","24.6.202.16","Mozilla/5.0 (Windows NT 10.0; Win64; x64) AppleWebKit/537.36 (KHTML, like Gecko) Chrome/132.0.0.0 Safari/537.36","WebKit","Chrome","132.0.0.0","Windows","10.0","https://app.prolific.com/","en-US,en;q=0.9","65bfa2967c731d263eb29732","67949641171f97c04e14fb34","679c23bc8d59197a6a99175e","","null","<img  src='G_1.jpg' height='90'> <img id='selected'  src='G_9.jpg' height='90'> <img src='G_3.jpg' height='90'> <img src='G_7.jpg' height='90'> <img src='G_5.jpg' height='90'>","null","Animation0",""
"","","","","","html-keyboard-response","112","281616","0.0-13.0","54","1","2025-01-31 01:13:53","af8d355d56820e421d246a7037deb6e6","24.6.202.16","Mozilla/5.0 (Windows NT 10.0; Win64; x64) AppleWebKit/537.36 (KHTML, like Gecko) Chrome/132.0.0.0 Safari/537.36","WebKit","Chrome","132.0.0.0","Windows","10.0","https://app.prolific.com/","en-US,en;q=0.9","65bfa2967c731d263eb29732","67949641171f97c04e14fb34","679c23bc8d59197a6a99175e","","null","<img  src='G_1.jpg' height='90'> <img id='selected'  src='G_9.jpg' height='90'> <img id='selected' src='G_3.jpg' height='90'> <img src='G_7.jpg' height='90'> <img src='G_5.jpg' height='90'>","null","Animation0",""
"","","","","","html-keyboard-response","113","282128","0.0-14.0","54","1","2025-01-31 01:13:53","af8d355d56820e421d246a7037deb6e6","24.6.202.16","Mozilla/5.0 (Windows NT 10.0; Win64; x64) AppleWebKit/537.36 (KHTML, like Gecko) Chrome/132.0.0.0 Safari/537.36","WebKit","Chrome","132.0.0.0","Windows","10.0","https://app.prolific.com/","en-US,en;q=0.9","65bfa2967c731d263eb29732","67949641171f97c04e14fb34","679c23bc8d59197a6a99175e","","null","<img  src='G_1.jpg' height='90'> <img id='selected'  src='G_9.jpg' height='90'> <img id='selected' src='G_3.jpg' height='90'> <img src='G_7.jpg' height='90'> <img src='G_5.jpg' height='90'>","null","Animation0",""
"","","","","","html-keyboard-response","114","282437","0.0-15.0","54","1","2025-01-31 01:13:53","af8d355d56820e421d246a7037deb6e6","24.6.202.16","Mozilla/5.0 (Windows NT 10.0; Win64; x64) AppleWebKit/537.36 (KHTML, like Gecko) Chrome/132.0.0.0 Safari/537.36","WebKit","Chrome","132.0.0.0","Windows","10.0","https://app.prolific.com/","en-US,en;q=0.9","65bfa2967c731d263eb29732","67949641171f97c04e14fb34","679c23bc8d59197a6a99175e","","null","<img  src='G_1.jpg' height='90'> <img   src='G_9.jpg' height='90'> <img  src='G_3.jpg' height='90'> <img src='G_7.jpg' height='90'> <img src='G_5.jpg' height='90'>","null","Animation0",""
"","","","","","html-keyboard-response","115","282952","0.0-16.0","54","1","2025-01-31 01:13:53","af8d355d56820e421d246a7037deb6e6","24.6.202.16","Mozilla/5.0 (Windows NT 10.0; Win64; x64) AppleWebKit/537.36 (KHTML, like Gecko) Chrome/132.0.0.0 Safari/537.36","WebKit","Chrome","132.0.0.0","Windows","10.0","https://app.prolific.com/","en-US,en;q=0.9","65bfa2967c731d263eb29732","67949641171f97c04e14fb34","679c23bc8d59197a6a99175e","","null","<img  src='G_1.jpg' height='90'> <img   src='G_9.jpg' height='90'> <img id='selected'  src='G_3.jpg' height='90'> <img src='G_7.jpg' height='90'> <img src='G_5.jpg' height='90'>","null","Animation0",""
"","","","","","html-keyboard-response","116","283467","0.0-17.0","54","1","2025-01-31 01:13:53","af8d355d56820e421d246a7037deb6e6","24.6.202.16","Mozilla/5.0 (Windows NT 10.0; Win64; x64) AppleWebKit/537.36 (KHTML, like Gecko) Chrome/132.0.0.0 Safari/537.36","WebKit","Chrome","132.0.0.0","Windows","10.0","https://app.prolific.com/","en-US,en;q=0.9","65bfa2967c731d263eb29732","67949641171f97c04e14fb34","679c23bc8d59197a6a99175e","","null","<img  src='G_1.jpg' height='90'> <img   src='G_9.jpg' height='90'> <img id='selected'  src='G_3.jpg' height='90'> <img id='selected' src='G_7.jpg' height='90'> <img src='G_5.jpg' height='90'>","null","Animation0",""
"","","","","","html-keyboard-response","117","283982","0.0-18.0","54","1","2025-01-31 01:13:53","af8d355d56820e421d246a7037deb6e6","24.6.202.16","Mozilla/5.0 (Windows NT 10.0; Win64; x64) AppleWebKit/537.36 (KHTML, like Gecko) Chrome/132.0.0.0 Safari/537.36","WebKit","Chrome","132.0.0.0","Windows","10.0","https://app.prolific.com/","en-US,en;q=0.9","65bfa2967c731d263eb29732","67949641171f97c04e14fb34","679c23bc8d59197a6a99175e","","null","<img  src='G_1.jpg' height='90'> <img   src='G_9.jpg' height='90'> <img id='selected'  src='G_3.jpg' height='90'> <img id='selected' src='G_7.jpg' height='90'> <img src='G_5.jpg' height='90'>","null","Animation0",""
"","","","","","html-keyboard-response","118","284293","0.0-19.0","54","1","2025-01-31 01:13:53","af8d355d56820e421d246a7037deb6e6","24.6.202.16","Mozilla/5.0 (Windows NT 10.0; Win64; x64) AppleWebKit/537.36 (KHTML, like Gecko) Chrome/132.0.0.0 Safari/537.36","WebKit","Chrome","132.0.0.0","Windows","10.0","https://app.prolific.com/","en-US,en;q=0.9","65bfa2967c731d263eb29732","67949641171f97c04e14fb34","679c23bc8d59197a6a99175e","","null","<img  src='G_1.jpg' height='90'> <img   src='G_9.jpg' height='90'> <img   src='G_3.jpg' height='90'> <img  src='G_7.jpg' height='90'> <img src='G_5.jpg' height='90'>","null","Animation0",""
"","","","","","html-keyboard-response","119","284806","0.0-20.0","54","1","2025-01-31 01:13:53","af8d355d56820e421d246a7037deb6e6","24.6.202.16","Mozilla/5.0 (Windows NT 10.0; Win64; x64) AppleWebKit/537.36 (KHTML, like Gecko) Chrome/132.0.0.0 Safari/537.36","WebKit","Chrome","132.0.0.0","Windows","10.0","https://app.prolific.com/","en-US,en;q=0.9","65bfa2967c731d263eb29732","67949641171f97c04e14fb34","679c23bc8d59197a6a99175e","","null","<img  src='G_1.jpg' height='90'> <img   src='G_9.jpg' height='90'> <img   src='G_3.jpg' height='90'> <img id='selected'  src='G_7.jpg' height='90'> <img src='G_5.jpg' height='90'>","null","Animation0",""
"","","","","","html-keyboard-response","120","285315","0.0-21.0","54","1","2025-01-31 01:13:53","af8d355d56820e421d246a7037deb6e6","24.6.202.16","Mozilla/5.0 (Windows NT 10.0; Win64; x64) AppleWebKit/537.36 (KHTML, like Gecko) Chrome/132.0.0.0 Safari/537.36","WebKit","Chrome","132.0.0.0","Windows","10.0","https://app.prolific.com/","en-US,en;q=0.9","65bfa2967c731d263eb29732","67949641171f97c04e14fb34","679c23bc8d59197a6a99175e","","null","<img  src='G_1.jpg' height='90'> <img   src='G_9.jpg' height='90'> <img   src='G_3.jpg' height='90'> <img id='selected'  src='G_7.jpg' height='90'> <img id='selected' src='G_5.jpg' height='90'>","null","Animation0",""
"","","","","","html-keyboard-response","121","285823","0.0-22.0","54","1","2025-01-31 01:13:53","af8d355d56820e421d246a7037deb6e6","24.6.202.16","Mozilla/5.0 (Windows NT 10.0; Win64; x64) AppleWebKit/537.36 (KHTML, like Gecko) Chrome/132.0.0.0 Safari/537.36","WebKit","Chrome","132.0.0.0","Windows","10.0","https://app.prolific.com/","en-US,en;q=0.9","65bfa2967c731d263eb29732","67949641171f97c04e14fb34","679c23bc8d59197a6a99175e","","null","<img  src='G_1.jpg' height='90'> <img   src='G_9.jpg' height='90'> <img   src='G_3.jpg' height='90'> <img id='selected'  src='G_7.jpg' height='90'> <img id='selected' src='G_5.jpg' height='90'>","null","Animation0",""
"","","","","","html-keyboard-response","122","286137","0.0-23.0","54","1","2025-01-31 01:13:53","af8d355d56820e421d246a7037deb6e6","24.6.202.16","Mozilla/5.0 (Windows NT 10.0; Win64; x64) AppleWebKit/537.36 (KHTML, like Gecko) Chrome/132.0.0.0 Safari/537.36","WebKit","Chrome","132.0.0.0","Windows","10.0","https://app.prolific.com/","en-US,en;q=0.9","65bfa2967c731d263eb29732","67949641171f97c04e14fb34","679c23bc8d59197a6a99175e","","null","<img  src='G_1.jpg' height='90'> <img   src='G_9.jpg' height='90'> <img   src='G_3.jpg' height='90'> <img   src='G_7.jpg' height='90'> <img  src='G_5.jpg' height='90'>","null","Animation0",""
"","","","","","html-keyboard-response","123","291277","0.0-24.0","54","1","2025-01-31 01:13:53","af8d355d56820e421d246a7037deb6e6","24.6.202.16","Mozilla/5.0 (Windows NT 10.0; Win64; x64) AppleWebKit/537.36 (KHTML, like Gecko) Chrome/132.0.0.0 Safari/537.36","WebKit","Chrome","132.0.0.0","Windows","10.0","https://app.prolific.com/","en-US,en;q=0.9","65bfa2967c731d263eb29732","67949641171f97c04e14fb34","679c23bc8d59197a6a99175e","","5137","[""Did you notice any patterns? <br><br>Press Enter to watch that example again and follow the steps of Omgne Sort.""]","enter","",""
"","","","","","html-button-response","124","291681","0.0-25.0","54","1","2025-01-31 01:13:53","af8d355d56820e421d246a7037deb6e6","24.6.202.16","Mozilla/5.0 (Windows NT 10.0; Win64; x64) AppleWebKit/537.36 (KHTML, like Gecko) Chrome/132.0.0.0 Safari/537.36","WebKit","Chrome","132.0.0.0","Windows","10.0","https://app.prolific.com/","en-US,en;q=0.9","65bfa2967c731d263eb29732","67949641171f97c04e14fb34","679c23bc8d59197a6a99175e","","null","<img id='selected' src='G_9.jpg' height='90'> <img src='G_1.jpg' height='90'> <img src='G_3.jpg' height='90'> <img src='G_7.jpg' height='90'> <img src='G_5.jpg' height='90'>","null","Learning example 0",""
"","","","","","html-button-response","125","291985","0.0-26.0","54","1","2025-01-31 01:13:53","af8d355d56820e421d246a7037deb6e6","24.6.202.16","Mozilla/5.0 (Windows NT 10.0; Win64; x64) AppleWebKit/537.36 (KHTML, like Gecko) Chrome/132.0.0.0 Safari/537.36","WebKit","Chrome","132.0.0.0","Windows","10.0","https://app.prolific.com/","en-US,en;q=0.9","65bfa2967c731d263eb29732","67949641171f97c04e14fb34","679c23bc8d59197a6a99175e","","null","<img id='selected' src='G_9.jpg' height='90'> <img id='selected' src='G_1.jpg' height='90'> <img src='G_3.jpg' height='90'> <img src='G_7.jpg' height='90'> <img src='G_5.jpg' height='90'>","null","Learning example 0",""
"","","","","","html-button-response","126","292291","0.0-27.0","54","1","2025-01-31 01:13:53","af8d355d56820e421d246a7037deb6e6","24.6.202.16","Mozilla/5.0 (Windows NT 10.0; Win64; x64) AppleWebKit/537.36 (KHTML, like Gecko) Chrome/132.0.0.0 Safari/537.36","WebKit","Chrome","132.0.0.0","Windows","10.0","https://app.prolific.com/","en-US,en;q=0.9","65bfa2967c731d263eb29732","67949641171f97c04e14fb34","679c23bc8d59197a6a99175e","","null","<img id='swapped' src='G_1.jpg' height='90'> <img id='swapped' src='G_9.jpg' height='90'> <img src='G_3.jpg' height='90'> <img src='G_7.jpg' height='90'> <img src='G_5.jpg' height='90'>","null","Learning example 0",""
"","","","","","html-button-response","127","296661","0.0-28.0-0.0-0.0","54","1","2025-01-31 01:13:53","af8d355d56820e421d246a7037deb6e6","24.6.202.16","Mozilla/5.0 (Windows NT 10.0; Win64; x64) AppleWebKit/537.36 (KHTML, like Gecko) Chrome/132.0.0.0 Safari/537.36","WebKit","Chrome","132.0.0.0","Windows","10.0","https://app.prolific.com/","en-US,en;q=0.9","65bfa2967c731d263eb29732","67949641171f97c04e14fb34","679c23bc8d59197a6a99175e","","4367","<img id='swapped' src='G_1.jpg' height='90'> <img id='swapped' src='G_9.jpg' height='90'> <img src='G_3.jpg' height='90'> <img src='G_7.jpg' height='90'> <img src='G_5.jpg' height='90'>","0","Learning example 0",""
"","","","","","html-button-response","128","297115","0.0-28.1-0.1-0.1","54","1","2025-01-31 01:13:53","af8d355d56820e421d246a7037deb6e6","24.6.202.16","Mozilla/5.0 (Windows NT 10.0; Win64; x64) AppleWebKit/537.36 (KHTML, like Gecko) Chrome/132.0.0.0 Safari/537.36","WebKit","Chrome","132.0.0.0","Windows","10.0","https://app.prolific.com/","en-US,en;q=0.9","65bfa2967c731d263eb29732","67949641171f97c04e14fb34","679c23bc8d59197a6a99175e","","452","<img id='swapped' src='G_1.jpg' height='90'> <img id='swapped' src='G_9.jpg' height='90'> <img src='G_3.jpg' height='90'> <img src='G_7.jpg' height='90'> <img src='G_5.jpg' height='90'>","1","Learning example 0",""
"","","","","","html-button-response","129","297325","0.0-29.0","54","1","2025-01-31 01:13:53","af8d355d56820e421d246a7037deb6e6","24.6.202.16","Mozilla/5.0 (Windows NT 10.0; Win64; x64) AppleWebKit/537.36 (KHTML, like Gecko) Chrome/132.0.0.0 Safari/537.36","WebKit","Chrome","132.0.0.0","Windows","10.0","https://app.prolific.com/","en-US,en;q=0.9","65bfa2967c731d263eb29732","67949641171f97c04e14fb34","679c23bc8d59197a6a99175e","","null","<img  src='G_1.jpg' height='90'> <img  src='G_9.jpg' height='90'> <img src='G_3.jpg' height='90'> <img src='G_7.jpg' height='90'> <img src='G_5.jpg' height='90'>","null","Learning example 0",""
"","","","","","html-button-response","130","297728","0.0-30.0","54","1","2025-01-31 01:13:53","af8d355d56820e421d246a7037deb6e6","24.6.202.16","Mozilla/5.0 (Windows NT 10.0; Win64; x64) AppleWebKit/537.36 (KHTML, like Gecko) Chrome/132.0.0.0 Safari/537.36","WebKit","Chrome","132.0.0.0","Windows","10.0","https://app.prolific.com/","en-US,en;q=0.9","65bfa2967c731d263eb29732","67949641171f97c04e14fb34","679c23bc8d59197a6a99175e","","null","<img  src='G_1.jpg' height='90'> <img id='selected'  src='G_9.jpg' height='90'> <img src='G_3.jpg' height='90'> <img src='G_7.jpg' height='90'> <img src='G_5.jpg' height='90'>","null","Learning example 0",""
"","","","","","html-button-response","131","297870","0.0-31.0","54","1","2025-01-31 01:13:53","af8d355d56820e421d246a7037deb6e6","24.6.202.16","Mozilla/5.0 (Windows NT 10.0; Win64; x64) AppleWebKit/537.36 (KHTML, like Gecko) Chrome/132.0.0.0 Safari/537.36","WebKit","Chrome","132.0.0.0","Windows","10.0","https://app.prolific.com/","en-US,en;q=0.9","65bfa2967c731d263eb29732","67949641171f97c04e14fb34","679c23bc8d59197a6a99175e","","138","<img  src='G_1.jpg' height='90'> <img id='selected'  src='G_9.jpg' height='90'> <img id='selected' src='G_3.jpg' height='90'> <img src='G_7.jpg' height='90'> <img src='G_5.jpg' height='90'>","1","Learning example 0",""
"","","","","","html-button-response","132","298173","0.0-32.0","54","1","2025-01-31 01:13:53","af8d355d56820e421d246a7037deb6e6","24.6.202.16","Mozilla/5.0 (Windows NT 10.0; Win64; x64) AppleWebKit/537.36 (KHTML, like Gecko) Chrome/132.0.0.0 Safari/537.36","WebKit","Chrome","132.0.0.0","Windows","10.0","https://app.prolific.com/","en-US,en;q=0.9","65bfa2967c731d263eb29732","67949641171f97c04e14fb34","679c23bc8d59197a6a99175e","","null","<img  src='G_1.jpg' height='90'> <img id='selected'  src='G_9.jpg' height='90'> <img id='selected' src='G_3.jpg' height='90'> <img src='G_7.jpg' height='90'> <img src='G_5.jpg' height='90'>","null","Learning example 0",""
"","","","","","html-button-response","133","299081","0.0-33.0-0.0-0.0","54","1","2025-01-31 01:13:53","af8d355d56820e421d246a7037deb6e6","24.6.202.16","Mozilla/5.0 (Windows NT 10.0; Win64; x64) AppleWebKit/537.36 (KHTML, like Gecko) Chrome/132.0.0.0 Safari/537.36","WebKit","Chrome","132.0.0.0","Windows","10.0","https://app.prolific.com/","en-US,en;q=0.9","65bfa2967c731d263eb29732","67949641171f97c04e14fb34","679c23bc8d59197a6a99175e","","905","<img  src='G_1.jpg' height='90'> <img id='selected'  src='G_9.jpg' height='90'> <img id='selected' src='G_3.jpg' height='90'> <img src='G_7.jpg' height='90'> <img src='G_5.jpg' height='90'>","1","Learning example 0",""
"","","","","","html-button-response","134","299411","0.0-33.1-0.1-0.1","54","1","2025-01-31 01:13:53","af8d355d56820e421d246a7037deb6e6","24.6.202.16","Mozilla/5.0 (Windows NT 10.0; Win64; x64) AppleWebKit/537.36 (KHTML, like Gecko) Chrome/132.0.0.0 Safari/537.36","WebKit","Chrome","132.0.0.0","Windows","10.0","https://app.prolific.com/","en-US,en;q=0.9","65bfa2967c731d263eb29732","67949641171f97c04e14fb34","679c23bc8d59197a6a99175e","","327","<img  src='G_1.jpg' height='90'> <img id='selected'  src='G_9.jpg' height='90'> <img id='selected' src='G_3.jpg' height='90'> <img src='G_7.jpg' height='90'> <img src='G_5.jpg' height='90'>","2","Learning example 0",""
"","","","","","html-button-response","135","299615","0.0-34.0","54","1","2025-01-31 01:13:53","af8d355d56820e421d246a7037deb6e6","24.6.202.16","Mozilla/5.0 (Windows NT 10.0; Win64; x64) AppleWebKit/537.36 (KHTML, like Gecko) Chrome/132.0.0.0 Safari/537.36","WebKit","Chrome","132.0.0.0","Windows","10.0","https://app.prolific.com/","en-US,en;q=0.9","65bfa2967c731d263eb29732","67949641171f97c04e14fb34","679c23bc8d59197a6a99175e","","null","<img  src='G_1.jpg' height='90'> <img   src='G_9.jpg' height='90'> <img  src='G_3.jpg' height='90'> <img src='G_7.jpg' height='90'> <img src='G_5.jpg' height='90'>","null","Learning example 0",""
"","","","","","html-button-response","136","300029","0.0-35.0","54","1","2025-01-31 01:13:53","af8d355d56820e421d246a7037deb6e6","24.6.202.16","Mozilla/5.0 (Windows NT 10.0; Win64; x64) AppleWebKit/537.36 (KHTML, like Gecko) Chrome/132.0.0.0 Safari/537.36","WebKit","Chrome","132.0.0.0","Windows","10.0","https://app.prolific.com/","en-US,en;q=0.9","65bfa2967c731d263eb29732","67949641171f97c04e14fb34","679c23bc8d59197a6a99175e","","null","<img  src='G_1.jpg' height='90'> <img   src='G_9.jpg' height='90'> <img id='selected'  src='G_3.jpg' height='90'> <img src='G_7.jpg' height='90'> <img src='G_5.jpg' height='90'>","null","Learning example 0",""
"","","","","","html-button-response","137","300340","0.0-36.0","54","1","2025-01-31 01:13:53","af8d355d56820e421d246a7037deb6e6","24.6.202.16","Mozilla/5.0 (Windows NT 10.0; Win64; x64) AppleWebKit/537.36 (KHTML, like Gecko) Chrome/132.0.0.0 Safari/537.36","WebKit","Chrome","132.0.0.0","Windows","10.0","https://app.prolific.com/","en-US,en;q=0.9","65bfa2967c731d263eb29732","67949641171f97c04e14fb34","679c23bc8d59197a6a99175e","","null","<img  src='G_1.jpg' height='90'> <img   src='G_9.jpg' height='90'> <img id='selected'  src='G_3.jpg' height='90'> <img id='selected' src='G_7.jpg' height='90'> <img src='G_5.jpg' height='90'>","null","Learning example 0",""
"","","","","","html-button-response","138","300645","0.0-37.0","54","1","2025-01-31 01:13:53","af8d355d56820e421d246a7037deb6e6","24.6.202.16","Mozilla/5.0 (Windows NT 10.0; Win64; x64) AppleWebKit/537.36 (KHTML, like Gecko) Chrome/132.0.0.0 Safari/537.36","WebKit","Chrome","132.0.0.0","Windows","10.0","https://app.prolific.com/","en-US,en;q=0.9","65bfa2967c731d263eb29732","67949641171f97c04e14fb34","679c23bc8d59197a6a99175e","","null","<img  src='G_1.jpg' height='90'> <img   src='G_9.jpg' height='90'> <img id='selected'  src='G_3.jpg' height='90'> <img id='selected' src='G_7.jpg' height='90'> <img src='G_5.jpg' height='90'>","null","Learning example 0",""
"","","","","","html-button-response","139","301266","0.0-38.0-0.0-0.0","54","1","2025-01-31 01:13:53","af8d355d56820e421d246a7037deb6e6","24.6.202.16","Mozilla/5.0 (Windows NT 10.0; Win64; x64) AppleWebKit/537.36 (KHTML, like Gecko) Chrome/132.0.0.0 Safari/537.36","WebKit","Chrome","132.0.0.0","Windows","10.0","https://app.prolific.com/","en-US,en;q=0.9","65bfa2967c731d263eb29732","67949641171f97c04e14fb34","679c23bc8d59197a6a99175e","","618","<img  src='G_1.jpg' height='90'> <img   src='G_9.jpg' height='90'> <img id='selected'  src='G_3.jpg' height='90'> <img id='selected' src='G_7.jpg' height='90'> <img src='G_5.jpg' height='90'>","2","Learning example 0",""
"","","","","","html-button-response","140","301780","0.0-38.1-0.1-0.1","54","1","2025-01-31 01:13:53","af8d355d56820e421d246a7037deb6e6","24.6.202.16","Mozilla/5.0 (Windows NT 10.0; Win64; x64) AppleWebKit/537.36 (KHTML, like Gecko) Chrome/132.0.0.0 Safari/537.36","WebKit","Chrome","132.0.0.0","Windows","10.0","https://app.prolific.com/","en-US,en;q=0.9","65bfa2967c731d263eb29732","67949641171f97c04e14fb34","679c23bc8d59197a6a99175e","","511","<img  src='G_1.jpg' height='90'> <img   src='G_9.jpg' height='90'> <img id='selected'  src='G_3.jpg' height='90'> <img id='selected' src='G_7.jpg' height='90'> <img src='G_5.jpg' height='90'>","3","Learning example 0",""
"","","","","","html-button-response","141","301994","0.0-39.0","54","1","2025-01-31 01:13:53","af8d355d56820e421d246a7037deb6e6","24.6.202.16","Mozilla/5.0 (Windows NT 10.0; Win64; x64) AppleWebKit/537.36 (KHTML, like Gecko) Chrome/132.0.0.0 Safari/537.36","WebKit","Chrome","132.0.0.0","Windows","10.0","https://app.prolific.com/","en-US,en;q=0.9","65bfa2967c731d263eb29732","67949641171f97c04e14fb34","679c23bc8d59197a6a99175e","","null","<img  src='G_1.jpg' height='90'> <img   src='G_9.jpg' height='90'> <img   src='G_3.jpg' height='90'> <img  src='G_7.jpg' height='90'> <img src='G_5.jpg' height='90'>","null","Learning example 0",""
"","","","","","html-button-response","142","302398","0.0-40.0","54","1","2025-01-31 01:13:53","af8d355d56820e421d246a7037deb6e6","24.6.202.16","Mozilla/5.0 (Windows NT 10.0; Win64; x64) AppleWebKit/537.36 (KHTML, like Gecko) Chrome/132.0.0.0 Safari/537.36","WebKit","Chrome","132.0.0.0","Windows","10.0","https://app.prolific.com/","en-US,en;q=0.9","65bfa2967c731d263eb29732","67949641171f97c04e14fb34","679c23bc8d59197a6a99175e","","null","<img  src='G_1.jpg' height='90'> <img   src='G_9.jpg' height='90'> <img   src='G_3.jpg' height='90'> <img id='selected'  src='G_7.jpg' height='90'> <img src='G_5.jpg' height='90'>","null","Learning example 0",""
"","","","","","html-button-response","143","302707","0.0-41.0","54","1","2025-01-31 01:13:53","af8d355d56820e421d246a7037deb6e6","24.6.202.16","Mozilla/5.0 (Windows NT 10.0; Win64; x64) AppleWebKit/537.36 (KHTML, like Gecko) Chrome/132.0.0.0 Safari/537.36","WebKit","Chrome","132.0.0.0","Windows","10.0","https://app.prolific.com/","en-US,en;q=0.9","65bfa2967c731d263eb29732","67949641171f97c04e14fb34","679c23bc8d59197a6a99175e","","306","<img  src='G_1.jpg' height='90'> <img   src='G_9.jpg' height='90'> <img   src='G_3.jpg' height='90'> <img id='selected'  src='G_7.jpg' height='90'> <img id='selected' src='G_5.jpg' height='90'>","3","Learning example 0",""
"","","","","","html-button-response","144","303026","0.0-42.0","54","1","2025-01-31 01:13:53","af8d355d56820e421d246a7037deb6e6","24.6.202.16","Mozilla/5.0 (Windows NT 10.0; Win64; x64) AppleWebKit/537.36 (KHTML, like Gecko) Chrome/132.0.0.0 Safari/537.36","WebKit","Chrome","132.0.0.0","Windows","10.0","https://app.prolific.com/","en-US,en;q=0.9","65bfa2967c731d263eb29732","67949641171f97c04e14fb34","679c23bc8d59197a6a99175e","","null","<img  src='G_1.jpg' height='90'> <img   src='G_9.jpg' height='90'> <img   src='G_3.jpg' height='90'> <img id='selected'  src='G_7.jpg' height='90'> <img id='selected' src='G_5.jpg' height='90'>","null","Learning example 0",""
"","","","","","html-button-response","145","303389","0.0-43.0-0.0-0.0","54","1","2025-01-31 01:13:53","af8d355d56820e421d246a7037deb6e6","24.6.202.16","Mozilla/5.0 (Windows NT 10.0; Win64; x64) AppleWebKit/537.36 (KHTML, like Gecko) Chrome/132.0.0.0 Safari/537.36","WebKit","Chrome","132.0.0.0","Windows","10.0","https://app.prolific.com/","en-US,en;q=0.9","65bfa2967c731d263eb29732","67949641171f97c04e14fb34","679c23bc8d59197a6a99175e","","361","<img  src='G_1.jpg' height='90'> <img   src='G_9.jpg' height='90'> <img   src='G_3.jpg' height='90'> <img id='selected'  src='G_7.jpg' height='90'> <img id='selected' src='G_5.jpg' height='90'>","3","Learning example 0",""
"","","","","","html-button-response","146","303980","0.0-43.1-0.1-0.1","54","1","2025-01-31 01:13:53","af8d355d56820e421d246a7037deb6e6","24.6.202.16","Mozilla/5.0 (Windows NT 10.0; Win64; x64) AppleWebKit/537.36 (KHTML, like Gecko) Chrome/132.0.0.0 Safari/537.36","WebKit","Chrome","132.0.0.0","Windows","10.0","https://app.prolific.com/","en-US,en;q=0.9","65bfa2967c731d263eb29732","67949641171f97c04e14fb34","679c23bc8d59197a6a99175e","","588","<img  src='G_1.jpg' height='90'> <img   src='G_9.jpg' height='90'> <img   src='G_3.jpg' height='90'> <img id='selected'  src='G_7.jpg' height='90'> <img id='selected' src='G_5.jpg' height='90'>","4","Learning example 0",""
"","","","","","html-button-response","147","304182","0.0-44.0","54","1","2025-01-31 01:13:53","af8d355d56820e421d246a7037deb6e6","24.6.202.16","Mozilla/5.0 (Windows NT 10.0; Win64; x64) AppleWebKit/537.36 (KHTML, like Gecko) Chrome/132.0.0.0 Safari/537.36","WebKit","Chrome","132.0.0.0","Windows","10.0","https://app.prolific.com/","en-US,en;q=0.9","65bfa2967c731d263eb29732","67949641171f97c04e14fb34","679c23bc8d59197a6a99175e","","null","<img  src='G_1.jpg' height='90'> <img   src='G_9.jpg' height='90'> <img   src='G_3.jpg' height='90'> <img   src='G_7.jpg' height='90'> <img  src='G_5.jpg' height='90'>","null","Learning example 0",""
"","","","","","html-keyboard-response","148","309889","0.0-45.0","54","1","2025-01-31 01:13:53","af8d355d56820e421d246a7037deb6e6","24.6.202.16","Mozilla/5.0 (Windows NT 10.0; Win64; x64) AppleWebKit/537.36 (KHTML, like Gecko) Chrome/132.0.0.0 Safari/537.36","WebKit","Chrome","132.0.0.0","Windows","10.0","https://app.prolific.com/","en-US,en;q=0.9","65bfa2967c731d263eb29732","67949641171f97c04e14fb34","679c23bc8d59197a6a99175e","","5704","[""Final order was 1,2,3,4,5. The initial order was 2,1,3,4,5.<br>It took 1 swaps to sort it correctly with Omgne Sort. <br><br>Press Enter to continue.""]","enter","",""
"","","","","","html-keyboard-response","149","311362","0.0-46.0","54","1","2025-01-31 01:13:53","af8d355d56820e421d246a7037deb6e6","24.6.202.16","Mozilla/5.0 (Windows NT 10.0; Win64; x64) AppleWebKit/537.36 (KHTML, like Gecko) Chrome/132.0.0.0 Safari/537.36","WebKit","Chrome","132.0.0.0","Windows","10.0","https://app.prolific.com/","en-US,en;q=0.9","65bfa2967c731d263eb29732","67949641171f97c04e14fb34","679c23bc8d59197a6a99175e","","1471","[""Example 2<br><br>You will watch Omnge Sort in action. Try to identify any patterns in the comparisons made by this method. <br><br>Press Enter to continue.""]","enter","",""
"","","","","","html-keyboard-response","150","311875","0.0-47.0","54","1","2025-01-31 01:13:53","af8d355d56820e421d246a7037deb6e6","24.6.202.16","Mozilla/5.0 (Windows NT 10.0; Win64; x64) AppleWebKit/537.36 (KHTML, like Gecko) Chrome/132.0.0.0 Safari/537.36","WebKit","Chrome","132.0.0.0","Windows","10.0","https://app.prolific.com/","en-US,en;q=0.9","65bfa2967c731d263eb29732","67949641171f97c04e14fb34","679c23bc8d59197a6a99175e","","null","<img id='selected' src='G_4.jpg' height='90'> <img src='G_2.jpg' height='90'> <img src='G_1.jpg' height='90'> <img src='G_5.jpg' height='90'> <img src='G_8.jpg' height='90'> <img src='G_7.jpg' height='90'> <img src='G_6.jpg' height='90'> <img src='G_3.jpg' height='90'>","null","Animation1",""
"","","","","","html-keyboard-response","151","312390","0.0-48.0","54","1","2025-01-31 01:13:53","af8d355d56820e421d246a7037deb6e6","24.6.202.16","Mozilla/5.0 (Windows NT 10.0; Win64; x64) AppleWebKit/537.36 (KHTML, like Gecko) Chrome/132.0.0.0 Safari/537.36","WebKit","Chrome","132.0.0.0","Windows","10.0","https://app.prolific.com/","en-US,en;q=0.9","65bfa2967c731d263eb29732","67949641171f97c04e14fb34","679c23bc8d59197a6a99175e","","null","<img id='selected' src='G_4.jpg' height='90'> <img id='selected' src='G_2.jpg' height='90'> <img src='G_1.jpg' height='90'> <img src='G_5.jpg' height='90'> <img src='G_8.jpg' height='90'> <img src='G_7.jpg' height='90'> <img src='G_6.jpg' height='90'> <img src='G_3.jpg' height='90'>","null","Animation1",""
"","","","","","html-keyboard-response","152","312906","0.0-49.0","54","1","2025-01-31 01:13:53","af8d355d56820e421d246a7037deb6e6","24.6.202.16","Mozilla/5.0 (Windows NT 10.0; Win64; x64) AppleWebKit/537.36 (KHTML, like Gecko) Chrome/132.0.0.0 Safari/537.36","WebKit","Chrome","132.0.0.0","Windows","10.0","https://app.prolific.com/","en-US,en;q=0.9","65bfa2967c731d263eb29732","67949641171f97c04e14fb34","679c23bc8d59197a6a99175e","","null","<img id='selected' src='G_4.jpg' height='90'> <img id='selected' src='G_2.jpg' height='90'> <img src='G_1.jpg' height='90'> <img src='G_5.jpg' height='90'> <img src='G_8.jpg' height='90'> <img src='G_7.jpg' height='90'> <img src='G_6.jpg' height='90'> <img src='G_3.jpg' height='90'>","null","Animation1",""
"","","","","","html-keyboard-response","153","313214","0.0-50.0","54","1","2025-01-31 01:13:53","af8d355d56820e421d246a7037deb6e6","24.6.202.16","Mozilla/5.0 (Windows NT 10.0; Win64; x64) AppleWebKit/537.36 (KHTML, like Gecko) Chrome/132.0.0.0 Safari/537.36","WebKit","Chrome","132.0.0.0","Windows","10.0","https://app.prolific.com/","en-US,en;q=0.9","65bfa2967c731d263eb29732","67949641171f97c04e14fb34","679c23bc8d59197a6a99175e","","null","<img  src='G_4.jpg' height='90'> <img  src='G_2.jpg' height='90'> <img src='G_1.jpg' height='90'> <img src='G_5.jpg' height='90'> <img src='G_8.jpg' height='90'> <img src='G_7.jpg' height='90'> <img src='G_6.jpg' height='90'> <img src='G_3.jpg' height='90'>","null","Animation1",""
"","","","","","html-keyboard-response","154","313717","0.0-51.0","54","1","2025-01-31 01:13:53","af8d355d56820e421d246a7037deb6e6","24.6.202.16","Mozilla/5.0 (Windows NT 10.0; Win64; x64) AppleWebKit/537.36 (KHTML, like Gecko) Chrome/132.0.0.0 Safari/537.36","WebKit","Chrome","132.0.0.0","Windows","10.0","https://app.prolific.com/","en-US,en;q=0.9","65bfa2967c731d263eb29732","67949641171f97c04e14fb34","679c23bc8d59197a6a99175e","","null","<img  src='G_4.jpg' height='90'> <img id='selected'  src='G_2.jpg' height='90'> <img src='G_1.jpg' height='90'> <img src='G_5.jpg' height='90'> <img src='G_8.jpg' height='90'> <img src='G_7.jpg' height='90'> <img src='G_6.jpg' height='90'> <img src='G_3.jpg' height='90'>","null","Animation1",""
"","","","","","html-keyboard-response","155","314228","0.0-52.0","54","1","2025-01-31 01:13:53","af8d355d56820e421d246a7037deb6e6","24.6.202.16","Mozilla/5.0 (Windows NT 10.0; Win64; x64) AppleWebKit/537.36 (KHTML, like Gecko) Chrome/132.0.0.0 Safari/537.36","WebKit","Chrome","132.0.0.0","Windows","10.0","https://app.prolific.com/","en-US,en;q=0.9","65bfa2967c731d263eb29732","67949641171f97c04e14fb34","679c23bc8d59197a6a99175e","","null","<img  src='G_4.jpg' height='90'> <img id='selected'  src='G_2.jpg' height='90'> <img id='selected' src='G_1.jpg' height='90'> <img src='G_5.jpg' height='90'> <img src='G_8.jpg' height='90'> <img src='G_7.jpg' height='90'> <img src='G_6.jpg' height='90'> <img src='G_3.jpg' height='90'>","null","Animation1",""
"","","","","","html-keyboard-response","156","314742","0.0-53.0","54","1","2025-01-31 01:13:53","af8d355d56820e421d246a7037deb6e6","24.6.202.16","Mozilla/5.0 (Windows NT 10.0; Win64; x64) AppleWebKit/537.36 (KHTML, like Gecko) Chrome/132.0.0.0 Safari/537.36","WebKit","Chrome","132.0.0.0","Windows","10.0","https://app.prolific.com/","en-US,en;q=0.9","65bfa2967c731d263eb29732","67949641171f97c04e14fb34","679c23bc8d59197a6a99175e","","null","<img  src='G_4.jpg' height='90'> <img id='swapped' src='G_1.jpg' height='90'> <img id='swapped'  src='G_2.jpg' height='90'> <img src='G_5.jpg' height='90'> <img src='G_8.jpg' height='90'> <img src='G_7.jpg' height='90'> <img src='G_6.jpg' height='90'> <img src='G_3.jpg' height='90'>","null","Animation1",""
"","","","","","html-keyboard-response","157","315051","0.0-54.0","54","1","2025-01-31 01:13:53","af8d355d56820e421d246a7037deb6e6","24.6.202.16","Mozilla/5.0 (Windows NT 10.0; Win64; x64) AppleWebKit/537.36 (KHTML, like Gecko) Chrome/132.0.0.0 Safari/537.36","WebKit","Chrome","132.0.0.0","Windows","10.0","https://app.prolific.com/","en-US,en;q=0.9","65bfa2967c731d263eb29732","67949641171f97c04e14fb34","679c23bc8d59197a6a99175e","","null","<img  src='G_4.jpg' height='90'> <img  src='G_1.jpg' height='90'> <img   src='G_2.jpg' height='90'> <img src='G_5.jpg' height='90'> <img src='G_8.jpg' height='90'> <img src='G_7.jpg' height='90'> <img src='G_6.jpg' height='90'> <img src='G_3.jpg' height='90'>","null","Animation1",""
"","","","","","html-keyboard-response","158","315563","0.0-55.0","54","1","2025-01-31 01:13:53","af8d355d56820e421d246a7037deb6e6","24.6.202.16","Mozilla/5.0 (Windows NT 10.0; Win64; x64) AppleWebKit/537.36 (KHTML, like Gecko) Chrome/132.0.0.0 Safari/537.36","WebKit","Chrome","132.0.0.0","Windows","10.0","https://app.prolific.com/","en-US,en;q=0.9","65bfa2967c731d263eb29732","67949641171f97c04e14fb34","679c23bc8d59197a6a99175e","","null","<img id='selected'  src='G_4.jpg' height='90'> <img  src='G_1.jpg' height='90'> <img   src='G_2.jpg' height='90'> <img src='G_5.jpg' height='90'> <img src='G_8.jpg' height='90'> <img src='G_7.jpg' height='90'> <img src='G_6.jpg' height='90'> <img src='G_3.jpg' height='90'>","null","Animation1",""
"","","","","","html-keyboard-response","159","316078","0.0-56.0","54","1","2025-01-31 01:13:53","af8d355d56820e421d246a7037deb6e6","24.6.202.16","Mozilla/5.0 (Windows NT 10.0; Win64; x64) AppleWebKit/537.36 (KHTML, like Gecko) Chrome/132.0.0.0 Safari/537.36","WebKit","Chrome","132.0.0.0","Windows","10.0","https://app.prolific.com/","en-US,en;q=0.9","65bfa2967c731d263eb29732","67949641171f97c04e14fb34","679c23bc8d59197a6a99175e","","null","<img id='selected'  src='G_4.jpg' height='90'> <img id='selected'  src='G_1.jpg' height='90'> <img   src='G_2.jpg' height='90'> <img src='G_5.jpg' height='90'> <img src='G_8.jpg' height='90'> <img src='G_7.jpg' height='90'> <img src='G_6.jpg' height='90'> <img src='G_3.jpg' height='90'>","null","Animation1",""
"","","","","","html-keyboard-response","160","316592","0.0-57.0","54","1","2025-01-31 01:13:53","af8d355d56820e421d246a7037deb6e6","24.6.202.16","Mozilla/5.0 (Windows NT 10.0; Win64; x64) AppleWebKit/537.36 (KHTML, like Gecko) Chrome/132.0.0.0 Safari/537.36","WebKit","Chrome","132.0.0.0","Windows","10.0","https://app.prolific.com/","en-US,en;q=0.9","65bfa2967c731d263eb29732","67949641171f97c04e14fb34","679c23bc8d59197a6a99175e","","null","<img id='swapped'  src='G_1.jpg' height='90'> <img id='swapped'  src='G_4.jpg' height='90'> <img   src='G_2.jpg' height='90'> <img src='G_5.jpg' height='90'> <img src='G_8.jpg' height='90'> <img src='G_7.jpg' height='90'> <img src='G_6.jpg' height='90'> <img src='G_3.jpg' height='90'>","null","Animation1",""
"","","","","","html-keyboard-response","161","316908","0.0-58.0","54","1","2025-01-31 01:13:53","af8d355d56820e421d246a7037deb6e6","24.6.202.16","Mozilla/5.0 (Windows NT 10.0; Win64; x64) AppleWebKit/537.36 (KHTML, like Gecko) Chrome/132.0.0.0 Safari/537.36","WebKit","Chrome","132.0.0.0","Windows","10.0","https://app.prolific.com/","en-US,en;q=0.9","65bfa2967c731d263eb29732","67949641171f97c04e14fb34","679c23bc8d59197a6a99175e","","null","<img   src='G_1.jpg' height='90'> <img   src='G_4.jpg' height='90'> <img   src='G_2.jpg' height='90'> <img src='G_5.jpg' height='90'> <img src='G_8.jpg' height='90'> <img src='G_7.jpg' height='90'> <img src='G_6.jpg' height='90'> <img src='G_3.jpg' height='90'>","null","Animation1",""
"","","","","","html-keyboard-response","162","317422","0.0-59.0","54","1","2025-01-31 01:13:53","af8d355d56820e421d246a7037deb6e6","24.6.202.16","Mozilla/5.0 (Windows NT 10.0; Win64; x64) AppleWebKit/537.36 (KHTML, like Gecko) Chrome/132.0.0.0 Safari/537.36","WebKit","Chrome","132.0.0.0","Windows","10.0","https://app.prolific.com/","en-US,en;q=0.9","65bfa2967c731d263eb29732","67949641171f97c04e14fb34","679c23bc8d59197a6a99175e","","null","<img   src='G_1.jpg' height='90'> <img   src='G_4.jpg' height='90'> <img id='selected'   src='G_2.jpg' height='90'> <img src='G_5.jpg' height='90'> <img src='G_8.jpg' height='90'> <img src='G_7.jpg' height='90'> <img src='G_6.jpg' height='90'> <img src='G_3.jpg' height='90'>","null","Animation1",""
"","","","","","html-keyboard-response","163","317938","0.0-60.0","54","1","2025-01-31 01:13:53","af8d355d56820e421d246a7037deb6e6","24.6.202.16","Mozilla/5.0 (Windows NT 10.0; Win64; x64) AppleWebKit/537.36 (KHTML, like Gecko) Chrome/132.0.0.0 Safari/537.36","WebKit","Chrome","132.0.0.0","Windows","10.0","https://app.prolific.com/","en-US,en;q=0.9","65bfa2967c731d263eb29732","67949641171f97c04e14fb34","679c23bc8d59197a6a99175e","","null","<img   src='G_1.jpg' height='90'> <img   src='G_4.jpg' height='90'> <img id='selected'   src='G_2.jpg' height='90'> <img id='selected' src='G_5.jpg' height='90'> <img src='G_8.jpg' height='90'> <img src='G_7.jpg' height='90'> <img src='G_6.jpg' height='90'> <img src='G_3.jpg' height='90'>","null","Animation1",""
"","","","","","html-keyboard-response","164","318450","0.0-61.0","54","1","2025-01-31 01:13:53","af8d355d56820e421d246a7037deb6e6","24.6.202.16","Mozilla/5.0 (Windows NT 10.0; Win64; x64) AppleWebKit/537.36 (KHTML, like Gecko) Chrome/132.0.0.0 Safari/537.36","WebKit","Chrome","132.0.0.0","Windows","10.0","https://app.prolific.com/","en-US,en;q=0.9","65bfa2967c731d263eb29732","67949641171f97c04e14fb34","679c23bc8d59197a6a99175e","","null","<img   src='G_1.jpg' height='90'> <img   src='G_4.jpg' height='90'> <img id='swapped' src='G_5.jpg' height='90'> <img id='swapped'   src='G_2.jpg' height='90'> <img src='G_8.jpg' height='90'> <img src='G_7.jpg' height='90'> <img src='G_6.jpg' height='90'> <img src='G_3.jpg' height='90'>","null","Animation1",""
"","","","","","html-keyboard-response","165","318763","0.0-62.0","54","1","2025-01-31 01:13:53","af8d355d56820e421d246a7037deb6e6","24.6.202.16","Mozilla/5.0 (Windows NT 10.0; Win64; x64) AppleWebKit/537.36 (KHTML, like Gecko) Chrome/132.0.0.0 Safari/537.36","WebKit","Chrome","132.0.0.0","Windows","10.0","https://app.prolific.com/","en-US,en;q=0.9","65bfa2967c731d263eb29732","67949641171f97c04e14fb34","679c23bc8d59197a6a99175e","","null","<img   src='G_1.jpg' height='90'> <img   src='G_4.jpg' height='90'> <img  src='G_5.jpg' height='90'> <img    src='G_2.jpg' height='90'> <img src='G_8.jpg' height='90'> <img src='G_7.jpg' height='90'> <img src='G_6.jpg' height='90'> <img src='G_3.jpg' height='90'>","null","Animation1",""
"","","","","","html-keyboard-response","166","319277","0.0-63.0","54","1","2025-01-31 01:13:53","af8d355d56820e421d246a7037deb6e6","24.6.202.16","Mozilla/5.0 (Windows NT 10.0; Win64; x64) AppleWebKit/537.36 (KHTML, like Gecko) Chrome/132.0.0.0 Safari/537.36","WebKit","Chrome","132.0.0.0","Windows","10.0","https://app.prolific.com/","en-US,en;q=0.9","65bfa2967c731d263eb29732","67949641171f97c04e14fb34","679c23bc8d59197a6a99175e","","null","<img   src='G_1.jpg' height='90'> <img id='selected'   src='G_4.jpg' height='90'> <img  src='G_5.jpg' height='90'> <img    src='G_2.jpg' height='90'> <img src='G_8.jpg' height='90'> <img src='G_7.jpg' height='90'> <img src='G_6.jpg' height='90'> <img src='G_3.jpg' height='90'>","null","Animation1",""
"","","","","","html-keyboard-response","167","319791","0.0-64.0","54","1","2025-01-31 01:13:53","af8d355d56820e421d246a7037deb6e6","24.6.202.16","Mozilla/5.0 (Windows NT 10.0; Win64; x64) AppleWebKit/537.36 (KHTML, like Gecko) Chrome/132.0.0.0 Safari/537.36","WebKit","Chrome","132.0.0.0","Windows","10.0","https://app.prolific.com/","en-US,en;q=0.9","65bfa2967c731d263eb29732","67949641171f97c04e14fb34","679c23bc8d59197a6a99175e","","null","<img   src='G_1.jpg' height='90'> <img id='selected'   src='G_4.jpg' height='90'> <img id='selected'  src='G_5.jpg' height='90'> <img    src='G_2.jpg' height='90'> <img src='G_8.jpg' height='90'> <img src='G_7.jpg' height='90'> <img src='G_6.jpg' height='90'> <img src='G_3.jpg' height='90'>","null","Animation1",""
"","","","","","html-keyboard-response","168","320306","0.0-65.0","54","1","2025-01-31 01:13:53","af8d355d56820e421d246a7037deb6e6","24.6.202.16","Mozilla/5.0 (Windows NT 10.0; Win64; x64) AppleWebKit/537.36 (KHTML, like Gecko) Chrome/132.0.0.0 Safari/537.36","WebKit","Chrome","132.0.0.0","Windows","10.0","https://app.prolific.com/","en-US,en;q=0.9","65bfa2967c731d263eb29732","67949641171f97c04e14fb34","679c23bc8d59197a6a99175e","","null","<img   src='G_1.jpg' height='90'> <img id='swapped'  src='G_5.jpg' height='90'> <img id='swapped'   src='G_4.jpg' height='90'> <img    src='G_2.jpg' height='90'> <img src='G_8.jpg' height='90'> <img src='G_7.jpg' height='90'> <img src='G_6.jpg' height='90'> <img src='G_3.jpg' height='90'>","null","Animation1",""
"","","","","","html-keyboard-response","169","320620","0.0-66.0","54","1","2025-01-31 01:13:53","af8d355d56820e421d246a7037deb6e6","24.6.202.16","Mozilla/5.0 (Windows NT 10.0; Win64; x64) AppleWebKit/537.36 (KHTML, like Gecko) Chrome/132.0.0.0 Safari/537.36","WebKit","Chrome","132.0.0.0","Windows","10.0","https://app.prolific.com/","en-US,en;q=0.9","65bfa2967c731d263eb29732","67949641171f97c04e14fb34","679c23bc8d59197a6a99175e","","null","<img   src='G_1.jpg' height='90'> <img   src='G_5.jpg' height='90'> <img    src='G_4.jpg' height='90'> <img    src='G_2.jpg' height='90'> <img src='G_8.jpg' height='90'> <img src='G_7.jpg' height='90'> <img src='G_6.jpg' height='90'> <img src='G_3.jpg' height='90'>","null","Animation1",""
"","","","","","html-keyboard-response","170","321131","0.0-67.0","54","1","2025-01-31 01:13:53","af8d355d56820e421d246a7037deb6e6","24.6.202.16","Mozilla/5.0 (Windows NT 10.0; Win64; x64) AppleWebKit/537.36 (KHTML, like Gecko) Chrome/132.0.0.0 Safari/537.36","WebKit","Chrome","132.0.0.0","Windows","10.0","https://app.prolific.com/","en-US,en;q=0.9","65bfa2967c731d263eb29732","67949641171f97c04e14fb34","679c23bc8d59197a6a99175e","","null","<img id='selected'   src='G_1.jpg' height='90'> <img   src='G_5.jpg' height='90'> <img    src='G_4.jpg' height='90'> <img    src='G_2.jpg' height='90'> <img src='G_8.jpg' height='90'> <img src='G_7.jpg' height='90'> <img src='G_6.jpg' height='90'> <img src='G_3.jpg' height='90'>","null","Animation1",""
"","","","","","html-keyboard-response","171","321650","0.0-68.0","54","1","2025-01-31 01:13:53","af8d355d56820e421d246a7037deb6e6","24.6.202.16","Mozilla/5.0 (Windows NT 10.0; Win64; x64) AppleWebKit/537.36 (KHTML, like Gecko) Chrome/132.0.0.0 Safari/537.36","WebKit","Chrome","132.0.0.0","Windows","10.0","https://app.prolific.com/","en-US,en;q=0.9","65bfa2967c731d263eb29732","67949641171f97c04e14fb34","679c23bc8d59197a6a99175e","","null","<img id='selected'   src='G_1.jpg' height='90'> <img id='selected'   src='G_5.jpg' height='90'> <img    src='G_4.jpg' height='90'> <img    src='G_2.jpg' height='90'> <img src='G_8.jpg' height='90'> <img src='G_7.jpg' height='90'> <img src='G_6.jpg' height='90'> <img src='G_3.jpg' height='90'>","null","Animation1",""
"","","","","","html-keyboard-response","172","322168","0.0-69.0","54","1","2025-01-31 01:13:53","af8d355d56820e421d246a7037deb6e6","24.6.202.16","Mozilla/5.0 (Windows NT 10.0; Win64; x64) AppleWebKit/537.36 (KHTML, like Gecko) Chrome/132.0.0.0 Safari/537.36","WebKit","Chrome","132.0.0.0","Windows","10.0","https://app.prolific.com/","en-US,en;q=0.9","65bfa2967c731d263eb29732","67949641171f97c04e14fb34","679c23bc8d59197a6a99175e","","null","<img id='swapped'   src='G_5.jpg' height='90'> <img id='swapped'   src='G_1.jpg' height='90'> <img    src='G_4.jpg' height='90'> <img    src='G_2.jpg' height='90'> <img src='G_8.jpg' height='90'> <img src='G_7.jpg' height='90'> <img src='G_6.jpg' height='90'> <img src='G_3.jpg' height='90'>","null","Animation1",""
"","","","","","html-keyboard-response","173","322480","0.0-70.0","54","1","2025-01-31 01:13:53","af8d355d56820e421d246a7037deb6e6","24.6.202.16","Mozilla/5.0 (Windows NT 10.0; Win64; x64) AppleWebKit/537.36 (KHTML, like Gecko) Chrome/132.0.0.0 Safari/537.36","WebKit","Chrome","132.0.0.0","Windows","10.0","https://app.prolific.com/","en-US,en;q=0.9","65bfa2967c731d263eb29732","67949641171f97c04e14fb34","679c23bc8d59197a6a99175e","","null","<img    src='G_5.jpg' height='90'> <img    src='G_1.jpg' height='90'> <img    src='G_4.jpg' height='90'> <img    src='G_2.jpg' height='90'> <img src='G_8.jpg' height='90'> <img src='G_7.jpg' height='90'> <img src='G_6.jpg' height='90'> <img src='G_3.jpg' height='90'>","null","Animation1",""
"","","","","","html-keyboard-response","174","322995","0.0-71.0","54","1","2025-01-31 01:13:53","af8d355d56820e421d246a7037deb6e6","24.6.202.16","Mozilla/5.0 (Windows NT 10.0; Win64; x64) AppleWebKit/537.36 (KHTML, like Gecko) Chrome/132.0.0.0 Safari/537.36","WebKit","Chrome","132.0.0.0","Windows","10.0","https://app.prolific.com/","en-US,en;q=0.9","65bfa2967c731d263eb29732","67949641171f97c04e14fb34","679c23bc8d59197a6a99175e","","null","<img    src='G_5.jpg' height='90'> <img    src='G_1.jpg' height='90'> <img    src='G_4.jpg' height='90'> <img id='selected'    src='G_2.jpg' height='90'> <img src='G_8.jpg' height='90'> <img src='G_7.jpg' height='90'> <img src='G_6.jpg' height='90'> <img src='G_3.jpg' height='90'>","null","Animation1",""
"","","","","","html-keyboard-response","175","323512","0.0-72.0","54","1","2025-01-31 01:13:53","af8d355d56820e421d246a7037deb6e6","24.6.202.16","Mozilla/5.0 (Windows NT 10.0; Win64; x64) AppleWebKit/537.36 (KHTML, like Gecko) Chrome/132.0.0.0 Safari/537.36","WebKit","Chrome","132.0.0.0","Windows","10.0","https://app.prolific.com/","en-US,en;q=0.9","65bfa2967c731d263eb29732","67949641171f97c04e14fb34","679c23bc8d59197a6a99175e","","null","<img    src='G_5.jpg' height='90'> <img    src='G_1.jpg' height='90'> <img    src='G_4.jpg' height='90'> <img id='selected'    src='G_2.jpg' height='90'> <img id='selected' src='G_8.jpg' height='90'> <img src='G_7.jpg' height='90'> <img src='G_6.jpg' height='90'> <img src='G_3.jpg' height='90'>","null","Animation1",""
