"success","timeout","failed_images","failed_audio","failed_video","trial_type","trial_index","time_elapsed","internal_node_id","run_id","condition","recorded_at","source_code_version","ip","user_agent","device","browser","browser_version","platform","platform_version","referer","accept_language","PROLIFIC_PID","STUDY_ID","SESSION_ID","view_history","rt","stimulus","response","phase","question_order"
"true","false","[]","[]","[]","preload","0","540","0.0-0.0","55","1","2025-01-31 01:14:01","af8d355d56820e421d246a7037deb6e6","73.237.179.246","Mozilla/5.0 (Windows NT 10.0; Win64; x64) AppleWebKit/537.36 (KHTML, like Gecko) Chrome/132.0.0.0 Safari/537.36","WebKit","Chrome","132.0.0.0","Windows","10.0","https://app.prolific.com/","en-US,en;q=0.9,pt;q=0.8","678d97abed191932719e540e","67949641171f97c04e14fb34","679c23d41bb54623aebe87e2","","","","","",""
"","","","","","instructions","1","30122","0.0-1.0","55","1","2025-01-31 01:14:01","af8d355d56820e421d246a7037deb6e6","73.237.179.246","Mozilla/5.0 (Windows NT 10.0; Win64; x64) AppleWebKit/537.36 (KHTML, like Gecko) Chrome/132.0.0.0 Safari/537.36","WebKit","Chrome","132.0.0.0","Windows","10.0","https://app.prolific.com/","en-US,en;q=0.9,pt;q=0.8","678d97abed191932719e540e","67949641171f97c04e14fb34","679c23d41bb54623aebe87e2","[{""page_index"":0,""viewing_time"":29579}]","29579","","","",""
"","","","","","html-keyboard-response","2","30626","0.0-2.0","55","1","2025-01-31 01:14:01","af8d355d56820e421d246a7037deb6e6","73.237.179.246","Mozilla/5.0 (Windows NT 10.0; Win64; x64) AppleWebKit/537.36 (KHTML, like Gecko) Chrome/132.0.0.0 Safari/537.36","WebKit","Chrome","132.0.0.0","Windows","10.0","https://app.prolific.com/","en-US,en;q=0.9,pt;q=0.8","678d97abed191932719e540e","67949641171f97c04e14fb34","679c23d41bb54623aebe87e2","","null","<p> + <p/>","null","",""
"","","","","","instructions","3","88582","0.0-3.0","55","1","2025-01-31 01:14:01","af8d355d56820e421d246a7037deb6e6","73.237.179.246","Mozilla/5.0 (Windows NT 10.0; Win64; x64) AppleWebKit/537.36 (KHTML, like Gecko) Chrome/132.0.0.0 Safari/537.36","WebKit","Chrome","132.0.0.0","Windows","10.0","https://app.prolific.com/","en-US,en;q=0.9,pt;q=0.8","678d97abed191932719e540e","67949641171f97c04e14fb34","679c23d41bb54623aebe87e2","[{""page_index"":0,""viewing_time"":24817},{""page_index"":1,""viewing_time"":13032},{""page_index"":2,""viewing_time"":7647},{""page_index"":3,""viewing_time"":3776},{""page_index"":4,""viewing_time"":8683}]","57955","","","",""
"","","","","","html-button-response","4","109958","0.0-4.0-0.0-0.0","55","1","2025-01-31 01:14:01","af8d355d56820e421d246a7037deb6e6","73.237.179.246","Mozilla/5.0 (Windows NT 10.0; Win64; x64) AppleWebKit/537.36 (KHTML, like Gecko) Chrome/132.0.0.0 Safari/537.36","WebKit","Chrome","132.0.0.0","Windows","10.0","https://app.prolific.com/","en-US,en;q=0.9,pt;q=0.8","678d97abed191932719e540e","67949641171f97c04e14fb34","679c23d41bb54623aebe87e2","","21373","","0","Intro Trial",""
"","","","","","html-button-response","5","110284","0.0-4.1-0.1-0.1","55","1","2025-01-31 01:14:01","af8d355d56820e421d246a7037deb6e6","73.237.179.246","Mozilla/5.0 (Windows NT 10.0; Win64; x64) AppleWebKit/537.36 (KHTML, like Gecko) Chrome/132.0.0.0 Safari/537.36","WebKit","Chrome","132.0.0.0","Windows","10.0","https://app.prolific.com/","en-US,en;q=0.9,pt;q=0.8","678d97abed191932719e540e","67949641171f97c04e14fb34","679c23d41bb54623aebe87e2","","325","","1","Intro Trial",""
"","","","","","html-button-response","6","115623","0.0-4.2-0.2-0.2","55","1","2025-01-31 01:14:01","af8d355d56820e421d246a7037deb6e6","73.237.179.246","Mozilla/5.0 (Windows NT 10.0; Win64; x64) AppleWebKit/537.36 (KHTML, like Gecko) Chrome/132.0.0.0 Safari/537.36","WebKit","Chrome","132.0.0.0","Windows","10.0","https://app.prolific.com/","en-US,en;q=0.9,pt;q=0.8","678d97abed191932719e540e","67949641171f97c04e14fb34","679c23d41bb54623aebe87e2","","5336","","1","Intro Trial",""
"","","","","","html-button-response","7","115959","0.0-4.3-0.3-0.3","55","1","2025-01-31 01:14:01","af8d355d56820e421d246a7037deb6e6","73.237.179.246","Mozilla/5.0 (Windows NT 10.0; Win64; x64) AppleWebKit/537.36 (KHTML, like Gecko) Chrome/132.0.0.0 Safari/537.36","WebKit","Chrome","132.0.0.0","Windows","10.0","https://app.prolific.com/","en-US,en;q=0.9,pt;q=0.8","678d97abed191932719e540e","67949641171f97c04e14fb34","679c23d41bb54623aebe87e2","","333","","2","Intro Trial",""
"","","","","","html-button-response","8","117233","0.0-4.4-0.4-0.4","55","1","2025-01-31 01:14:01","af8d355d56820e421d246a7037deb6e6","73.237.179.246","Mozilla/5.0 (Windows NT 10.0; Win64; x64) AppleWebKit/537.36 (KHTML, like Gecko) Chrome/132.0.0.0 Safari/537.36","WebKit","Chrome","132.0.0.0","Windows","10.0","https://app.prolific.com/","en-US,en;q=0.9,pt;q=0.8","678d97abed191932719e540e","67949641171f97c04e14fb34","679c23d41bb54623aebe87e2","","1272","","2","Intro Trial",""
"","","","","","html-button-response","9","118015","0.0-4.5-0.5-0.5","55","1","2025-01-31 01:14:01","af8d355d56820e421d246a7037deb6e6","73.237.179.246","Mozilla/5.0 (Windows NT 10.0; Win64; x64) AppleWebKit/537.36 (KHTML, like Gecko) Chrome/132.0.0.0 Safari/537.36","WebKit","Chrome","132.0.0.0","Windows","10.0","https://app.prolific.com/","en-US,en;q=0.9,pt;q=0.8","678d97abed191932719e540e","67949641171f97c04e14fb34","679c23d41bb54623aebe87e2","","780","","3","Intro Trial",""
"","","","","","html-button-response","10","118748","0.0-4.6-0.6-0.6","55","1","2025-01-31 01:14:01","af8d355d56820e421d246a7037deb6e6","73.237.179.246","Mozilla/5.0 (Windows NT 10.0; Win64; x64) AppleWebKit/537.36 (KHTML, like Gecko) Chrome/132.0.0.0 Safari/537.36","WebKit","Chrome","132.0.0.0","Windows","10.0","https://app.prolific.com/","en-US,en;q=0.9,pt;q=0.8","678d97abed191932719e540e","67949641171f97c04e14fb34","679c23d41bb54623aebe87e2","","731","","2","Intro Trial",""
"","","","","","html-button-response","11","119337","0.0-4.7-0.7-0.7","55","1","2025-01-31 01:14:01","af8d355d56820e421d246a7037deb6e6","73.237.179.246","Mozilla/5.0 (Windows NT 10.0; Win64; x64) AppleWebKit/537.36 (KHTML, like Gecko) Chrome/132.0.0.0 Safari/537.36","WebKit","Chrome","132.0.0.0","Windows","10.0","https://app.prolific.com/","en-US,en;q=0.9,pt;q=0.8","678d97abed191932719e540e","67949641171f97c04e14fb34","679c23d41bb54623aebe87e2","","586","","3","Intro Trial",""
"","","","","","html-button-response","12","122008","0.0-4.8-0.8-0.8","55","1","2025-01-31 01:14:01","af8d355d56820e421d246a7037deb6e6","73.237.179.246","Mozilla/5.0 (Windows NT 10.0; Win64; x64) AppleWebKit/537.36 (KHTML, like Gecko) Chrome/132.0.0.0 Safari/537.36","WebKit","Chrome","132.0.0.0","Windows","10.0","https://app.prolific.com/","en-US,en;q=0.9,pt;q=0.8","678d97abed191932719e540e","67949641171f97c04e14fb34","679c23d41bb54623aebe87e2","","2670","","1","Intro Trial",""
"","","","","","html-button-response","13","122522","0.0-4.9-0.9-0.9","55","1","2025-01-31 01:14:01","af8d355d56820e421d246a7037deb6e6","73.237.179.246","Mozilla/5.0 (Windows NT 10.0; Win64; x64) AppleWebKit/537.36 (KHTML, like Gecko) Chrome/132.0.0.0 Safari/537.36","WebKit","Chrome","132.0.0.0","Windows","10.0","https://app.prolific.com/","en-US,en;q=0.9,pt;q=0.8","678d97abed191932719e540e","67949641171f97c04e14fb34","679c23d41bb54623aebe87e2","","512","","3","Intro Trial",""
"","","","","","html-button-response","14","123666","0.0-4.10-0.10-0.10","55","1","2025-01-31 01:14:01","af8d355d56820e421d246a7037deb6e6","73.237.179.246","Mozilla/5.0 (Windows NT 10.0; Win64; x64) AppleWebKit/537.36 (KHTML, like Gecko) Chrome/132.0.0.0 Safari/537.36","WebKit","Chrome","132.0.0.0","Windows","10.0","https://app.prolific.com/","en-US,en;q=0.9,pt;q=0.8","678d97abed191932719e540e","67949641171f97c04e14fb34","679c23d41bb54623aebe87e2","","1142","","2","Intro Trial",""
"","","","","","html-button-response","15","124592","0.0-4.11-0.11-0.11","55","1","2025-01-31 01:14:01","af8d355d56820e421d246a7037deb6e6","73.237.179.246","Mozilla/5.0 (Windows NT 10.0; Win64; x64) AppleWebKit/537.36 (KHTML, like Gecko) Chrome/132.0.0.0 Safari/537.36","WebKit","Chrome","132.0.0.0","Windows","10.0","https://app.prolific.com/","en-US,en;q=0.9,pt;q=0.8","678d97abed191932719e540e","67949641171f97c04e14fb34","679c23d41bb54623aebe87e2","","924","","4","Intro Trial",""
"","","","","","html-button-response","16","126024","0.0-4.12-0.12-0.12","55","1","2025-01-31 01:14:01","af8d355d56820e421d246a7037deb6e6","73.237.179.246","Mozilla/5.0 (Windows NT 10.0; Win64; x64) AppleWebKit/537.36 (KHTML, like Gecko) Chrome/132.0.0.0 Safari/537.36","WebKit","Chrome","132.0.0.0","Windows","10.0","https://app.prolific.com/","en-US,en;q=0.9,pt;q=0.8","678d97abed191932719e540e","67949641171f97c04e14fb34","679c23d41bb54623aebe87e2","","1430","","3","Intro Trial",""
"","","","","","html-button-response","17","126417","0.0-4.13-0.13-0.13","55","1","2025-01-31 01:14:01","af8d355d56820e421d246a7037deb6e6","73.237.179.246","Mozilla/5.0 (Windows NT 10.0; Win64; x64) AppleWebKit/537.36 (KHTML, like Gecko) Chrome/132.0.0.0 Safari/537.36","WebKit","Chrome","132.0.0.0","Windows","10.0","https://app.prolific.com/","en-US,en;q=0.9,pt;q=0.8","678d97abed191932719e540e","67949641171f97c04e14fb34","679c23d41bb54623aebe87e2","","391","","4","Intro Trial",""
"","","","","","html-button-response","18","127922","0.0-4.14-0.14-0.14","55","1","2025-01-31 01:14:01","af8d355d56820e421d246a7037deb6e6","73.237.179.246","Mozilla/5.0 (Windows NT 10.0; Win64; x64) AppleWebKit/537.36 (KHTML, like Gecko) Chrome/132.0.0.0 Safari/537.36","WebKit","Chrome","132.0.0.0","Windows","10.0","https://app.prolific.com/","en-US,en;q=0.9,pt;q=0.8","678d97abed191932719e540e","67949641171f97c04e14fb34","679c23d41bb54623aebe87e2","","1503","","3","Intro Trial",""
"","","","","","html-button-response","19","128279","0.0-4.15-0.15-0.15","55","1","2025-01-31 01:14:01","af8d355d56820e421d246a7037deb6e6","73.237.179.246","Mozilla/5.0 (Windows NT 10.0; Win64; x64) AppleWebKit/537.36 (KHTML, like Gecko) Chrome/132.0.0.0 Safari/537.36","WebKit","Chrome","132.0.0.0","Windows","10.0","https://app.prolific.com/","en-US,en;q=0.9,pt;q=0.8","678d97abed191932719e540e","67949641171f97c04e14fb34","679c23d41bb54623aebe87e2","","356","","4","Intro Trial",""
"","","","","","html-button-response","20","129239","0.0-4.16-0.16-0.16","55","1","2025-01-31 01:14:01","af8d355d56820e421d246a7037deb6e6","73.237.179.246","Mozilla/5.0 (Windows NT 10.0; Win64; x64) AppleWebKit/537.36 (KHTML, like Gecko) Chrome/132.0.0.0 Safari/537.36","WebKit","Chrome","132.0.0.0","Windows","10.0","https://app.prolific.com/","en-US,en;q=0.9,pt;q=0.8","678d97abed191932719e540e","67949641171f97c04e14fb34","679c23d41bb54623aebe87e2","","958","","3","Intro Trial",""
"","","","","","html-button-response","21","129581","0.0-4.17-0.17-0.17","55","1","2025-01-31 01:14:01","af8d355d56820e421d246a7037deb6e6","73.237.179.246","Mozilla/5.0 (Windows NT 10.0; Win64; x64) AppleWebKit/537.36 (KHTML, like Gecko) Chrome/132.0.0.0 Safari/537.36","WebKit","Chrome","132.0.0.0","Windows","10.0","https://app.prolific.com/","en-US,en;q=0.9,pt;q=0.8","678d97abed191932719e540e","67949641171f97c04e14fb34","679c23d41bb54623aebe87e2","","339","","4","Intro Trial",""
"","","","","","html-button-response","22","130227","0.0-4.18-0.18-0.18","55","1","2025-01-31 01:14:01","af8d355d56820e421d246a7037deb6e6","73.237.179.246","Mozilla/5.0 (Windows NT 10.0; Win64; x64) AppleWebKit/537.36 (KHTML, like Gecko) Chrome/132.0.0.0 Safari/537.36","WebKit","Chrome","132.0.0.0","Windows","10.0","https://app.prolific.com/","en-US,en;q=0.9,pt;q=0.8","678d97abed191932719e540e","67949641171f97c04e14fb34","679c23d41bb54623aebe87e2","","643","","2","Intro Trial",""
"","","","","","html-button-response","23","130612","0.0-4.19-0.19-0.19","55","1","2025-01-31 01:14:01","af8d355d56820e421d246a7037deb6e6","73.237.179.246","Mozilla/5.0 (Windows NT 10.0; Win64; x64) AppleWebKit/537.36 (KHTML, like Gecko) Chrome/132.0.0.0 Safari/537.36","WebKit","Chrome","132.0.0.0","Windows","10.0","https://app.prolific.com/","en-US,en;q=0.9,pt;q=0.8","678d97abed191932719e540e","67949641171f97c04e14fb34","679c23d41bb54623aebe87e2","","384","","3","Intro Trial",""
"","","","","","html-button-response","24","131233","0.0-4.20-0.20-0.20","55","1","2025-01-31 01:14:01","af8d355d56820e421d246a7037deb6e6","73.237.179.246","Mozilla/5.0 (Windows NT 10.0; Win64; x64) AppleWebKit/537.36 (KHTML, like Gecko) Chrome/132.0.0.0 Safari/537.36","WebKit","Chrome","132.0.0.0","Windows","10.0","https://app.prolific.com/","en-US,en;q=0.9,pt;q=0.8","678d97abed191932719e540e","67949641171f97c04e14fb34","679c23d41bb54623aebe87e2","","618","","2","Intro Trial",""
"","","","","","html-button-response","25","131746","0.0-4.21-0.21-0.21","55","1","2025-01-31 01:14:01","af8d355d56820e421d246a7037deb6e6","73.237.179.246","Mozilla/5.0 (Windows NT 10.0; Win64; x64) AppleWebKit/537.36 (KHTML, like Gecko) Chrome/132.0.0.0 Safari/537.36","WebKit","Chrome","132.0.0.0","Windows","10.0","https://app.prolific.com/","en-US,en;q=0.9,pt;q=0.8","678d97abed191932719e540e","67949641171f97c04e14fb34","679c23d41bb54623aebe87e2","","512","","4","Intro Trial",""
"","","","","","html-button-response","26","132487","0.0-4.22-0.22-0.22","55","1","2025-01-31 01:14:01","af8d355d56820e421d246a7037deb6e6","73.237.179.246","Mozilla/5.0 (Windows NT 10.0; Win64; x64) AppleWebKit/537.36 (KHTML, like Gecko) Chrome/132.0.0.0 Safari/537.36","WebKit","Chrome","132.0.0.0","Windows","10.0","https://app.prolific.com/","en-US,en;q=0.9,pt;q=0.8","678d97abed191932719e540e","67949641171f97c04e14fb34","679c23d41bb54623aebe87e2","","738","","1","Intro Trial",""
"","","","","","html-button-response","27","132860","0.0-4.23-0.23-0.23","55","1","2025-01-31 01:14:01","af8d355d56820e421d246a7037deb6e6","73.237.179.246","Mozilla/5.0 (Windows NT 10.0; Win64; x64) AppleWebKit/537.36 (KHTML, like Gecko) Chrome/132.0.0.0 Safari/537.36","WebKit","Chrome","132.0.0.0","Windows","10.0","https://app.prolific.com/","en-US,en;q=0.9,pt;q=0.8","678d97abed191932719e540e","67949641171f97c04e14fb34","679c23d41bb54623aebe87e2","","371","","2","Intro Trial",""
"","","","","","html-button-response","28","134202","0.0-4.24-0.24-0.24","55","1","2025-01-31 01:14:01","af8d355d56820e421d246a7037deb6e6","73.237.179.246","Mozilla/5.0 (Windows NT 10.0; Win64; x64) AppleWebKit/537.36 (KHTML, like Gecko) Chrome/132.0.0.0 Safari/537.36","WebKit","Chrome","132.0.0.0","Windows","10.0","https://app.prolific.com/","en-US,en;q=0.9,pt;q=0.8","678d97abed191932719e540e","67949641171f97c04e14fb34","679c23d41bb54623aebe87e2","","1340","","2","Intro Trial",""
"","","","","","html-button-response","29","134552","0.0-4.25-0.25-0.25","55","1","2025-01-31 01:14:01","af8d355d56820e421d246a7037deb6e6","73.237.179.246","Mozilla/5.0 (Windows NT 10.0; Win64; x64) AppleWebKit/537.36 (KHTML, like Gecko) Chrome/132.0.0.0 Safari/537.36","WebKit","Chrome","132.0.0.0","Windows","10.0","https://app.prolific.com/","en-US,en;q=0.9,pt;q=0.8","678d97abed191932719e540e","67949641171f97c04e14fb34","679c23d41bb54623aebe87e2","","347","","3","Intro Trial",""
"","","","","","html-button-response","30","135103","0.0-4.26-0.26-0.26","55","1","2025-01-31 01:14:01","af8d355d56820e421d246a7037deb6e6","73.237.179.246","Mozilla/5.0 (Windows NT 10.0; Win64; x64) AppleWebKit/537.36 (KHTML, like Gecko) Chrome/132.0.0.0 Safari/537.36","WebKit","Chrome","132.0.0.0","Windows","10.0","https://app.prolific.com/","en-US,en;q=0.9,pt;q=0.8","678d97abed191932719e540e","67949641171f97c04e14fb34","679c23d41bb54623aebe87e2","","549","","4","Intro Trial",""
"","","","","","html-button-response","31","135676","0.0-4.27-0.27-0.27","55","1","2025-01-31 01:14:01","af8d355d56820e421d246a7037deb6e6","73.237.179.246","Mozilla/5.0 (Windows NT 10.0; Win64; x64) AppleWebKit/537.36 (KHTML, like Gecko) Chrome/132.0.0.0 Safari/537.36","WebKit","Chrome","132.0.0.0","Windows","10.0","https://app.prolific.com/","en-US,en;q=0.9,pt;q=0.8","678d97abed191932719e540e","67949641171f97c04e14fb34","679c23d41bb54623aebe87e2","","570","","2","Intro Trial",""
"","","","","","html-button-response","32","136306","0.0-4.28-0.28-0.28","55","1","2025-01-31 01:14:01","af8d355d56820e421d246a7037deb6e6","73.237.179.246","Mozilla/5.0 (Windows NT 10.0; Win64; x64) AppleWebKit/537.36 (KHTML, like Gecko) Chrome/132.0.0.0 Safari/537.36","WebKit","Chrome","132.0.0.0","Windows","10.0","https://app.prolific.com/","en-US,en;q=0.9,pt;q=0.8","678d97abed191932719e540e","67949641171f97c04e14fb34","679c23d41bb54623aebe87e2","","628","","1","Intro Trial",""
"","","","","","html-button-response","33","136660","0.0-4.29-0.29-0.29","55","1","2025-01-31 01:14:01","af8d355d56820e421d246a7037deb6e6","73.237.179.246","Mozilla/5.0 (Windows NT 10.0; Win64; x64) AppleWebKit/537.36 (KHTML, like Gecko) Chrome/132.0.0.0 Safari/537.36","WebKit","Chrome","132.0.0.0","Windows","10.0","https://app.prolific.com/","en-US,en;q=0.9,pt;q=0.8","678d97abed191932719e540e","67949641171f97c04e14fb34","679c23d41bb54623aebe87e2","","353","","2","Intro Trial",""
"","","","","","html-button-response","34","137070","0.0-4.30-0.30-0.30","55","1","2025-01-31 01:14:01","af8d355d56820e421d246a7037deb6e6","73.237.179.246","Mozilla/5.0 (Windows NT 10.0; Win64; x64) AppleWebKit/537.36 (KHTML, like Gecko) Chrome/132.0.0.0 Safari/537.36","WebKit","Chrome","132.0.0.0","Windows","10.0","https://app.prolific.com/","en-US,en;q=0.9,pt;q=0.8","678d97abed191932719e540e","67949641171f97c04e14fb34","679c23d41bb54623aebe87e2","","407","","0","Intro Trial",""
"","","","","","html-button-response","35","137411","0.0-4.31-0.31-0.31","55","1","2025-01-31 01:14:01","af8d355d56820e421d246a7037deb6e6","73.237.179.246","Mozilla/5.0 (Windows NT 10.0; Win64; x64) AppleWebKit/537.36 (KHTML, like Gecko) Chrome/132.0.0.0 Safari/537.36","WebKit","Chrome","132.0.0.0","Windows","10.0","https://app.prolific.com/","en-US,en;q=0.9,pt;q=0.8","678d97abed191932719e540e","67949641171f97c04e14fb34","679c23d41bb54623aebe87e2","","338","","1","Intro Trial",""
"","","","","","html-button-response","36","138352","0.0-4.32-0.32-0.32","55","1","2025-01-31 01:14:01","af8d355d56820e421d246a7037deb6e6","73.237.179.246","Mozilla/5.0 (Windows NT 10.0; Win64; x64) AppleWebKit/537.36 (KHTML, like Gecko) Chrome/132.0.0.0 Safari/537.36","WebKit","Chrome","132.0.0.0","Windows","10.0","https://app.prolific.com/","en-US,en;q=0.9,pt;q=0.8","678d97abed191932719e540e","67949641171f97c04e14fb34","679c23d41bb54623aebe87e2","","938","","0","Intro Trial",""
"","","","","","html-button-response","37","138715","0.0-4.33-0.33-0.33","55","1","2025-01-31 01:14:01","af8d355d56820e421d246a7037deb6e6","73.237.179.246","Mozilla/5.0 (Windows NT 10.0; Win64; x64) AppleWebKit/537.36 (KHTML, like Gecko) Chrome/132.0.0.0 Safari/537.36","WebKit","Chrome","132.0.0.0","Windows","10.0","https://app.prolific.com/","en-US,en;q=0.9,pt;q=0.8","678d97abed191932719e540e","67949641171f97c04e14fb34","679c23d41bb54623aebe87e2","","361","","1","Intro Trial",""
"","","","","","html-button-response","38","139195","0.0-4.34-0.34-0.34","55","1","2025-01-31 01:14:01","af8d355d56820e421d246a7037deb6e6","73.237.179.246","Mozilla/5.0 (Windows NT 10.0; Win64; x64) AppleWebKit/537.36 (KHTML, like Gecko) Chrome/132.0.0.0 Safari/537.36","WebKit","Chrome","132.0.0.0","Windows","10.0","https://app.prolific.com/","en-US,en;q=0.9,pt;q=0.8","678d97abed191932719e540e","67949641171f97c04e14fb34","679c23d41bb54623aebe87e2","","476","","2","Intro Trial",""
"","","","","","html-button-response","39","139668","0.0-4.35-0.35-0.35","55","1","2025-01-31 01:14:01","af8d355d56820e421d246a7037deb6e6","73.237.179.246","Mozilla/5.0 (Windows NT 10.0; Win64; x64) AppleWebKit/537.36 (KHTML, like Gecko) Chrome/132.0.0.0 Safari/537.36","WebKit","Chrome","132.0.0.0","Windows","10.0","https://app.prolific.com/","en-US,en;q=0.9,pt;q=0.8","678d97abed191932719e540e","67949641171f97c04e14fb34","679c23d41bb54623aebe87e2","","472","","3","Intro Trial",""
"","","","","","html-button-response","40","140960","0.0-4.36-0.36-0.36","55","1","2025-01-31 01:14:01","af8d355d56820e421d246a7037deb6e6","73.237.179.246","Mozilla/5.0 (Windows NT 10.0; Win64; x64) AppleWebKit/537.36 (KHTML, like Gecko) Chrome/132.0.0.0 Safari/537.36","WebKit","Chrome","132.0.0.0","Windows","10.0","https://app.prolific.com/","en-US,en;q=0.9,pt;q=0.8","678d97abed191932719e540e","67949641171f97c04e14fb34","679c23d41bb54623aebe87e2","","1289","","5","Intro Trial",""
"","","","","","html-keyboard-response","41","150974","0.0-5.0","55","1","2025-01-31 01:14:01","af8d355d56820e421d246a7037deb6e6","73.237.179.246","Mozilla/5.0 (Windows NT 10.0; Win64; x64) AppleWebKit/537.36 (KHTML, like Gecko) Chrome/132.0.0.0 Safari/537.36","WebKit","Chrome","132.0.0.0","Windows","10.0","https://app.prolific.com/","en-US,en;q=0.9,pt;q=0.8","678d97abed191932719e540e","67949641171f97c04e14fb34","679c23d41bb54623aebe87e2","","10012","[""You sorted correctly by using the balance 18 times. <br><br> <img src='G_5.jpg' height='90'><img src='G_2.jpg' height='90'><img src='G_3.jpg' height='90'><img src='G_1.jpg' height='90'><img src='G_4.jpg' height='90'><br><br> Your final order is 1,2,3,4,5<br><br><br>Omgne Sort in this game will allow you to sort correctly by using the balance 8 times. Press Enter to learn it!""]","enter","",""
"","","","","","html-keyboard-response","42","164472","0.0-6.0","55","1","2025-01-31 01:14:01","af8d355d56820e421d246a7037deb6e6","73.237.179.246","Mozilla/5.0 (Windows NT 10.0; Win64; x64) AppleWebKit/537.36 (KHTML, like Gecko) Chrome/132.0.0.0 Safari/537.36","WebKit","Chrome","132.0.0.0","Windows","10.0","https://app.prolific.com/","en-US,en;q=0.9,pt;q=0.8","678d97abed191932719e540e","67949641171f97c04e14fb34","679c23d41bb54623aebe87e2","","13497","<p>Welcome to the learning phase! <br><br> You will learn by six examples. The following learning trials will not be used to calculate your performance. <br><br> Press Enter to continue.<p/>","enter","",""
"","","","","","html-keyboard-response","43","168783","0.0-7.0","55","1","2025-01-31 01:14:01","af8d355d56820e421d246a7037deb6e6","73.237.179.246","Mozilla/5.0 (Windows NT 10.0; Win64; x64) AppleWebKit/537.36 (KHTML, like Gecko) Chrome/132.0.0.0 Safari/537.36","WebKit","Chrome","132.0.0.0","Windows","10.0","https://app.prolific.com/","en-US,en;q=0.9,pt;q=0.8","678d97abed191932719e540e","67949641171f97c04e14fb34","679c23d41bb54623aebe87e2","","4309","[""Example 1<br><br>You will watch Omnge Sort in action. Try to identify any patterns in the comparisons made by this method. <br><br>Press Enter to continue.""]","enter","",""
"","","","","","html-keyboard-response","44","169288","0.0-8.0","55","1","2025-01-31 01:14:01","af8d355d56820e421d246a7037deb6e6","73.237.179.246","Mozilla/5.0 (Windows NT 10.0; Win64; x64) AppleWebKit/537.36 (KHTML, like Gecko) Chrome/132.0.0.0 Safari/537.36","WebKit","Chrome","132.0.0.0","Windows","10.0","https://app.prolific.com/","en-US,en;q=0.9,pt;q=0.8","678d97abed191932719e540e","67949641171f97c04e14fb34","679c23d41bb54623aebe87e2","","null","<img id='selected' src='G_5.jpg' height='90'> <img src='G_9.jpg' height='90'> <img src='G_3.jpg' height='90'> <img src='G_1.jpg' height='90'> <img src='G_7.jpg' height='90'>","null","Animation0",""
"","","","","","html-keyboard-response","45","169802","0.0-9.0","55","1","2025-01-31 01:14:01","af8d355d56820e421d246a7037deb6e6","73.237.179.246","Mozilla/5.0 (Windows NT 10.0; Win64; x64) AppleWebKit/537.36 (KHTML, like Gecko) Chrome/132.0.0.0 Safari/537.36","WebKit","Chrome","132.0.0.0","Windows","10.0","https://app.prolific.com/","en-US,en;q=0.9,pt;q=0.8","678d97abed191932719e540e","67949641171f97c04e14fb34","679c23d41bb54623aebe87e2","","null","<img id='selected' src='G_5.jpg' height='90'> <img id='selected' src='G_9.jpg' height='90'> <img src='G_3.jpg' height='90'> <img src='G_1.jpg' height='90'> <img src='G_7.jpg' height='90'>","null","Animation0",""
"","","","","","html-keyboard-response","46","170316","0.0-10.0","55","1","2025-01-31 01:14:01","af8d355d56820e421d246a7037deb6e6","73.237.179.246","Mozilla/5.0 (Windows NT 10.0; Win64; x64) AppleWebKit/537.36 (KHTML, like Gecko) Chrome/132.0.0.0 Safari/537.36","WebKit","Chrome","132.0.0.0","Windows","10.0","https://app.prolific.com/","en-US,en;q=0.9,pt;q=0.8","678d97abed191932719e540e","67949641171f97c04e14fb34","679c23d41bb54623aebe87e2","","null","<img id='swapped' src='G_9.jpg' height='90'> <img id='swapped' src='G_5.jpg' height='90'> <img src='G_3.jpg' height='90'> <img src='G_1.jpg' height='90'> <img src='G_7.jpg' height='90'>","null","Animation0",""
"","","","","","html-keyboard-response","47","170630","0.0-11.0","55","1","2025-01-31 01:14:01","af8d355d56820e421d246a7037deb6e6","73.237.179.246","Mozilla/5.0 (Windows NT 10.0; Win64; x64) AppleWebKit/537.36 (KHTML, like Gecko) Chrome/132.0.0.0 Safari/537.36","WebKit","Chrome","132.0.0.0","Windows","10.0","https://app.prolific.com/","en-US,en;q=0.9,pt;q=0.8","678d97abed191932719e540e","67949641171f97c04e14fb34","679c23d41bb54623aebe87e2","","null","<img  src='G_9.jpg' height='90'> <img  src='G_5.jpg' height='90'> <img src='G_3.jpg' height='90'> <img src='G_1.jpg' height='90'> <img src='G_7.jpg' height='90'>","null","Animation0",""
"","","","","","html-keyboard-response","48","171145","0.0-12.0","55","1","2025-01-31 01:14:01","af8d355d56820e421d246a7037deb6e6","73.237.179.246","Mozilla/5.0 (Windows NT 10.0; Win64; x64) AppleWebKit/537.36 (KHTML, like Gecko) Chrome/132.0.0.0 Safari/537.36","WebKit","Chrome","132.0.0.0","Windows","10.0","https://app.prolific.com/","en-US,en;q=0.9,pt;q=0.8","678d97abed191932719e540e","67949641171f97c04e14fb34","679c23d41bb54623aebe87e2","","null","<img  src='G_9.jpg' height='90'> <img id='selected'  src='G_5.jpg' height='90'> <img src='G_3.jpg' height='90'> <img src='G_1.jpg' height='90'> <img src='G_7.jpg' height='90'>","null","Animation0",""
"","","","","","html-keyboard-response","49","171662","0.0-13.0","55","1","2025-01-31 01:14:01","af8d355d56820e421d246a7037deb6e6","73.237.179.246","Mozilla/5.0 (Windows NT 10.0; Win64; x64) AppleWebKit/537.36 (KHTML, like Gecko) Chrome/132.0.0.0 Safari/537.36","WebKit","Chrome","132.0.0.0","Windows","10.0","https://app.prolific.com/","en-US,en;q=0.9,pt;q=0.8","678d97abed191932719e540e","67949641171f97c04e14fb34","679c23d41bb54623aebe87e2","","null","<img  src='G_9.jpg' height='90'> <img id='selected'  src='G_5.jpg' height='90'> <img id='selected' src='G_3.jpg' height='90'> <img src='G_1.jpg' height='90'> <img src='G_7.jpg' height='90'>","null","Animation0",""
"","","","","","html-keyboard-response","50","172175","0.0-14.0","55","1","2025-01-31 01:14:01","af8d355d56820e421d246a7037deb6e6","73.237.179.246","Mozilla/5.0 (Windows NT 10.0; Win64; x64) AppleWebKit/537.36 (KHTML, like Gecko) Chrome/132.0.0.0 Safari/537.36","WebKit","Chrome","132.0.0.0","Windows","10.0","https://app.prolific.com/","en-US,en;q=0.9,pt;q=0.8","678d97abed191932719e540e","67949641171f97c04e14fb34","679c23d41bb54623aebe87e2","","null","<img  src='G_9.jpg' height='90'> <img id='selected'  src='G_5.jpg' height='90'> <img id='selected' src='G_3.jpg' height='90'> <img src='G_1.jpg' height='90'> <img src='G_7.jpg' height='90'>","null","Animation0",""
"","","","","","html-keyboard-response","51","172488","0.0-15.0","55","1","2025-01-31 01:14:01","af8d355d56820e421d246a7037deb6e6","73.237.179.246","Mozilla/5.0 (Windows NT 10.0; Win64; x64) AppleWebKit/537.36 (KHTML, like Gecko) Chrome/132.0.0.0 Safari/537.36","WebKit","Chrome","132.0.0.0","Windows","10.0","https://app.prolific.com/","en-US,en;q=0.9,pt;q=0.8","678d97abed191932719e540e","67949641171f97c04e14fb34","679c23d41bb54623aebe87e2","","null","<img  src='G_9.jpg' height='90'> <img   src='G_5.jpg' height='90'> <img  src='G_3.jpg' height='90'> <img src='G_1.jpg' height='90'> <img src='G_7.jpg' height='90'>","null","Animation0",""
"","","","","","html-keyboard-response","52","173004","0.0-16.0","55","1","2025-01-31 01:14:01","af8d355d56820e421d246a7037deb6e6","73.237.179.246","Mozilla/5.0 (Windows NT 10.0; Win64; x64) AppleWebKit/537.36 (KHTML, like Gecko) Chrome/132.0.0.0 Safari/537.36","WebKit","Chrome","132.0.0.0","Windows","10.0","https://app.prolific.com/","en-US,en;q=0.9,pt;q=0.8","678d97abed191932719e540e","67949641171f97c04e14fb34","679c23d41bb54623aebe87e2","","null","<img  src='G_9.jpg' height='90'> <img   src='G_5.jpg' height='90'> <img id='selected'  src='G_3.jpg' height='90'> <img src='G_1.jpg' height='90'> <img src='G_7.jpg' height='90'>","null","Animation0",""
"","","","","","html-keyboard-response","53","173520","0.0-17.0","55","1","2025-01-31 01:14:01","af8d355d56820e421d246a7037deb6e6","73.237.179.246","Mozilla/5.0 (Windows NT 10.0; Win64; x64) AppleWebKit/537.36 (KHTML, like Gecko) Chrome/132.0.0.0 Safari/537.36","WebKit","Chrome","132.0.0.0","Windows","10.0","https://app.prolific.com/","en-US,en;q=0.9,pt;q=0.8","678d97abed191932719e540e","67949641171f97c04e14fb34","679c23d41bb54623aebe87e2","","null","<img  src='G_9.jpg' height='90'> <img   src='G_5.jpg' height='90'> <img id='selected'  src='G_3.jpg' height='90'> <img id='selected' src='G_1.jpg' height='90'> <img src='G_7.jpg' height='90'>","null","Animation0",""
"","","","","","html-keyboard-response","54","174036","0.0-18.0","55","1","2025-01-31 01:14:01","af8d355d56820e421d246a7037deb6e6","73.237.179.246","Mozilla/5.0 (Windows NT 10.0; Win64; x64) AppleWebKit/537.36 (KHTML, like Gecko) Chrome/132.0.0.0 Safari/537.36","WebKit","Chrome","132.0.0.0","Windows","10.0","https://app.prolific.com/","en-US,en;q=0.9,pt;q=0.8","678d97abed191932719e540e","67949641171f97c04e14fb34","679c23d41bb54623aebe87e2","","null","<img  src='G_9.jpg' height='90'> <img   src='G_5.jpg' height='90'> <img id='selected'  src='G_3.jpg' height='90'> <img id='selected' src='G_1.jpg' height='90'> <img src='G_7.jpg' height='90'>","null","Animation0",""
"","","","","","html-keyboard-response","55","174348","0.0-19.0","55","1","2025-01-31 01:14:01","af8d355d56820e421d246a7037deb6e6","73.237.179.246","Mozilla/5.0 (Windows NT 10.0; Win64; x64) AppleWebKit/537.36 (KHTML, like Gecko) Chrome/132.0.0.0 Safari/537.36","WebKit","Chrome","132.0.0.0","Windows","10.0","https://app.prolific.com/","en-US,en;q=0.9,pt;q=0.8","678d97abed191932719e540e","67949641171f97c04e14fb34","679c23d41bb54623aebe87e2","","null","<img  src='G_9.jpg' height='90'> <img   src='G_5.jpg' height='90'> <img   src='G_3.jpg' height='90'> <img  src='G_1.jpg' height='90'> <img src='G_7.jpg' height='90'>","null","Animation0",""
"","","","","","html-keyboard-response","56","174866","0.0-20.0","55","1","2025-01-31 01:14:01","af8d355d56820e421d246a7037deb6e6","73.237.179.246","Mozilla/5.0 (Windows NT 10.0; Win64; x64) AppleWebKit/537.36 (KHTML, like Gecko) Chrome/132.0.0.0 Safari/537.36","WebKit","Chrome","132.0.0.0","Windows","10.0","https://app.prolific.com/","en-US,en;q=0.9,pt;q=0.8","678d97abed191932719e540e","67949641171f97c04e14fb34","679c23d41bb54623aebe87e2","","null","<img  src='G_9.jpg' height='90'> <img   src='G_5.jpg' height='90'> <img   src='G_3.jpg' height='90'> <img id='selected'  src='G_1.jpg' height='90'> <img src='G_7.jpg' height='90'>","null","Animation0",""
"","","","","","html-keyboard-response","57","175380","0.0-21.0","55","1","2025-01-31 01:14:01","af8d355d56820e421d246a7037deb6e6","73.237.179.246","Mozilla/5.0 (Windows NT 10.0; Win64; x64) AppleWebKit/537.36 (KHTML, like Gecko) Chrome/132.0.0.0 Safari/537.36","WebKit","Chrome","132.0.0.0","Windows","10.0","https://app.prolific.com/","en-US,en;q=0.9,pt;q=0.8","678d97abed191932719e540e","67949641171f97c04e14fb34","679c23d41bb54623aebe87e2","","null","<img  src='G_9.jpg' height='90'> <img   src='G_5.jpg' height='90'> <img   src='G_3.jpg' height='90'> <img id='selected'  src='G_1.jpg' height='90'> <img id='selected' src='G_7.jpg' height='90'>","null","Animation0",""
"","","","","","html-keyboard-response","58","175893","0.0-22.0","55","1","2025-01-31 01:14:01","af8d355d56820e421d246a7037deb6e6","73.237.179.246","Mozilla/5.0 (Windows NT 10.0; Win64; x64) AppleWebKit/537.36 (KHTML, like Gecko) Chrome/132.0.0.0 Safari/537.36","WebKit","Chrome","132.0.0.0","Windows","10.0","https://app.prolific.com/","en-US,en;q=0.9,pt;q=0.8","678d97abed191932719e540e","67949641171f97c04e14fb34","679c23d41bb54623aebe87e2","","null","<img  src='G_9.jpg' height='90'> <img   src='G_5.jpg' height='90'> <img   src='G_3.jpg' height='90'> <img id='selected'  src='G_1.jpg' height='90'> <img id='selected' src='G_7.jpg' height='90'>","null","Animation0",""
"","","","","","html-keyboard-response","59","176205","0.0-23.0","55","1","2025-01-31 01:14:01","af8d355d56820e421d246a7037deb6e6","73.237.179.246","Mozilla/5.0 (Windows NT 10.0; Win64; x64) AppleWebKit/537.36 (KHTML, like Gecko) Chrome/132.0.0.0 Safari/537.36","WebKit","Chrome","132.0.0.0","Windows","10.0","https://app.prolific.com/","en-US,en;q=0.9,pt;q=0.8","678d97abed191932719e540e","67949641171f97c04e14fb34","679c23d41bb54623aebe87e2","","null","<img  src='G_9.jpg' height='90'> <img   src='G_5.jpg' height='90'> <img   src='G_3.jpg' height='90'> <img   src='G_1.jpg' height='90'> <img  src='G_7.jpg' height='90'>","null","Animation0",""
"","","","","","html-keyboard-response","60","181346","0.0-24.0","55","1","2025-01-31 01:14:01","af8d355d56820e421d246a7037deb6e6","73.237.179.246","Mozilla/5.0 (Windows NT 10.0; Win64; x64) AppleWebKit/537.36 (KHTML, like Gecko) Chrome/132.0.0.0 Safari/537.36","WebKit","Chrome","132.0.0.0","Windows","10.0","https://app.prolific.com/","en-US,en;q=0.9,pt;q=0.8","678d97abed191932719e540e","67949641171f97c04e14fb34","679c23d41bb54623aebe87e2","","5135","[""Did you notice any patterns? <br><br>Press Enter to watch that example again and follow the steps of Omgne Sort.""]","enter","",""
"","","","","","html-button-response","61","181764","0.0-25.0","55","1","2025-01-31 01:14:01","af8d355d56820e421d246a7037deb6e6","73.237.179.246","Mozilla/5.0 (Windows NT 10.0; Win64; x64) AppleWebKit/537.36 (KHTML, like Gecko) Chrome/132.0.0.0 Safari/537.36","WebKit","Chrome","132.0.0.0","Windows","10.0","https://app.prolific.com/","en-US,en;q=0.9,pt;q=0.8","678d97abed191932719e540e","67949641171f97c04e14fb34","679c23d41bb54623aebe87e2","","null","<img id='selected' src='G_5.jpg' height='90'> <img src='G_9.jpg' height='90'> <img src='G_3.jpg' height='90'> <img src='G_1.jpg' height='90'> <img src='G_7.jpg' height='90'>","null","Learning example 0",""
"","","","","","html-button-response","62","182077","0.0-26.0","55","1","2025-01-31 01:14:01","af8d355d56820e421d246a7037deb6e6","73.237.179.246","Mozilla/5.0 (Windows NT 10.0; Win64; x64) AppleWebKit/537.36 (KHTML, like Gecko) Chrome/132.0.0.0 Safari/537.36","WebKit","Chrome","132.0.0.0","Windows","10.0","https://app.prolific.com/","en-US,en;q=0.9,pt;q=0.8","678d97abed191932719e540e","67949641171f97c04e14fb34","679c23d41bb54623aebe87e2","","null","<img id='selected' src='G_5.jpg' height='90'> <img id='selected' src='G_9.jpg' height='90'> <img src='G_3.jpg' height='90'> <img src='G_1.jpg' height='90'> <img src='G_7.jpg' height='90'>","null","Learning example 0",""
"","","","","","html-button-response","63","182393","0.0-27.0","55","1","2025-01-31 01:14:01","af8d355d56820e421d246a7037deb6e6","73.237.179.246","Mozilla/5.0 (Windows NT 10.0; Win64; x64) AppleWebKit/537.36 (KHTML, like Gecko) Chrome/132.0.0.0 Safari/537.36","WebKit","Chrome","132.0.0.0","Windows","10.0","https://app.prolific.com/","en-US,en;q=0.9,pt;q=0.8","678d97abed191932719e540e","67949641171f97c04e14fb34","679c23d41bb54623aebe87e2","","null","<img id='swapped' src='G_9.jpg' height='90'> <img id='swapped' src='G_5.jpg' height='90'> <img src='G_3.jpg' height='90'> <img src='G_1.jpg' height='90'> <img src='G_7.jpg' height='90'>","null","Learning example 0",""
"","","","","","html-button-response","64","193938","0.0-28.0-0.0-0.0","55","1","2025-01-31 01:14:01","af8d355d56820e421d246a7037deb6e6","73.237.179.246","Mozilla/5.0 (Windows NT 10.0; Win64; x64) AppleWebKit/537.36 (KHTML, like Gecko) Chrome/132.0.0.0 Safari/537.36","WebKit","Chrome","132.0.0.0","Windows","10.0","https://app.prolific.com/","en-US,en;q=0.9,pt;q=0.8","678d97abed191932719e540e","67949641171f97c04e14fb34","679c23d41bb54623aebe87e2","","11542","<img id='swapped' src='G_9.jpg' height='90'> <img id='swapped' src='G_5.jpg' height='90'> <img src='G_3.jpg' height='90'> <img src='G_1.jpg' height='90'> <img src='G_7.jpg' height='90'>","0","Learning example 0",""
"","","","","","html-button-response","65","194357","0.0-28.1-0.1-0.1","55","1","2025-01-31 01:14:01","af8d355d56820e421d246a7037deb6e6","73.237.179.246","Mozilla/5.0 (Windows NT 10.0; Win64; x64) AppleWebKit/537.36 (KHTML, like Gecko) Chrome/132.0.0.0 Safari/537.36","WebKit","Chrome","132.0.0.0","Windows","10.0","https://app.prolific.com/","en-US,en;q=0.9,pt;q=0.8","678d97abed191932719e540e","67949641171f97c04e14fb34","679c23d41bb54623aebe87e2","","416","<img id='swapped' src='G_9.jpg' height='90'> <img id='swapped' src='G_5.jpg' height='90'> <img src='G_3.jpg' height='90'> <img src='G_1.jpg' height='90'> <img src='G_7.jpg' height='90'>","1","Learning example 0",""
"","","","","","html-button-response","66","194568","0.0-29.0","55","1","2025-01-31 01:14:01","af8d355d56820e421d246a7037deb6e6","73.237.179.246","Mozilla/5.0 (Windows NT 10.0; Win64; x64) AppleWebKit/537.36 (KHTML, like Gecko) Chrome/132.0.0.0 Safari/537.36","WebKit","Chrome","132.0.0.0","Windows","10.0","https://app.prolific.com/","en-US,en;q=0.9,pt;q=0.8","678d97abed191932719e540e","67949641171f97c04e14fb34","679c23d41bb54623aebe87e2","","null","<img  src='G_9.jpg' height='90'> <img  src='G_5.jpg' height='90'> <img src='G_3.jpg' height='90'> <img src='G_1.jpg' height='90'> <img src='G_7.jpg' height='90'>","null","Learning example 0",""
"","","","","","html-button-response","67","194976","0.0-30.0","55","1","2025-01-31 01:14:01","af8d355d56820e421d246a7037deb6e6","73.237.179.246","Mozilla/5.0 (Windows NT 10.0; Win64; x64) AppleWebKit/537.36 (KHTML, like Gecko) Chrome/132.0.0.0 Safari/537.36","WebKit","Chrome","132.0.0.0","Windows","10.0","https://app.prolific.com/","en-US,en;q=0.9,pt;q=0.8","678d97abed191932719e540e","67949641171f97c04e14fb34","679c23d41bb54623aebe87e2","","null","<img  src='G_9.jpg' height='90'> <img id='selected'  src='G_5.jpg' height='90'> <img src='G_3.jpg' height='90'> <img src='G_1.jpg' height='90'> <img src='G_7.jpg' height='90'>","null","Learning example 0",""
"","","","","","html-button-response","68","195296","0.0-31.0","55","1","2025-01-31 01:14:01","af8d355d56820e421d246a7037deb6e6","73.237.179.246","Mozilla/5.0 (Windows NT 10.0; Win64; x64) AppleWebKit/537.36 (KHTML, like Gecko) Chrome/132.0.0.0 Safari/537.36","WebKit","Chrome","132.0.0.0","Windows","10.0","https://app.prolific.com/","en-US,en;q=0.9,pt;q=0.8","678d97abed191932719e540e","67949641171f97c04e14fb34","679c23d41bb54623aebe87e2","","null","<img  src='G_9.jpg' height='90'> <img id='selected'  src='G_5.jpg' height='90'> <img id='selected' src='G_3.jpg' height='90'> <img src='G_1.jpg' height='90'> <img src='G_7.jpg' height='90'>","null","Learning example 0",""
"","","","","","html-button-response","69","195615","0.0-32.0","55","1","2025-01-31 01:14:01","af8d355d56820e421d246a7037deb6e6","73.237.179.246","Mozilla/5.0 (Windows NT 10.0; Win64; x64) AppleWebKit/537.36 (KHTML, like Gecko) Chrome/132.0.0.0 Safari/537.36","WebKit","Chrome","132.0.0.0","Windows","10.0","https://app.prolific.com/","en-US,en;q=0.9,pt;q=0.8","678d97abed191932719e540e","67949641171f97c04e14fb34","679c23d41bb54623aebe87e2","","null","<img  src='G_9.jpg' height='90'> <img id='selected'  src='G_5.jpg' height='90'> <img id='selected' src='G_3.jpg' height='90'> <img src='G_1.jpg' height='90'> <img src='G_7.jpg' height='90'>","null","Learning example 0",""
"","","","","","html-button-response","70","198481","0.0-33.0-0.0-0.0","55","1","2025-01-31 01:14:01","af8d355d56820e421d246a7037deb6e6","73.237.179.246","Mozilla/5.0 (Windows NT 10.0; Win64; x64) AppleWebKit/537.36 (KHTML, like Gecko) Chrome/132.0.0.0 Safari/537.36","WebKit","Chrome","132.0.0.0","Windows","10.0","https://app.prolific.com/","en-US,en;q=0.9,pt;q=0.8","678d97abed191932719e540e","67949641171f97c04e14fb34","679c23d41bb54623aebe87e2","","2859","<img  src='G_9.jpg' height='90'> <img id='selected'  src='G_5.jpg' height='90'> <img id='selected' src='G_3.jpg' height='90'> <img src='G_1.jpg' height='90'> <img src='G_7.jpg' height='90'>","1","Learning example 0",""
"","","","","","html-button-response","71","198903","0.0-33.1-0.1-0.1","55","1","2025-01-31 01:14:01","af8d355d56820e421d246a7037deb6e6","73.237.179.246","Mozilla/5.0 (Windows NT 10.0; Win64; x64) AppleWebKit/537.36 (KHTML, like Gecko) Chrome/132.0.0.0 Safari/537.36","WebKit","Chrome","132.0.0.0","Windows","10.0","https://app.prolific.com/","en-US,en;q=0.9,pt;q=0.8","678d97abed191932719e540e","67949641171f97c04e14fb34","679c23d41bb54623aebe87e2","","419","<img  src='G_9.jpg' height='90'> <img id='selected'  src='G_5.jpg' height='90'> <img id='selected' src='G_3.jpg' height='90'> <img src='G_1.jpg' height='90'> <img src='G_7.jpg' height='90'>","2","Learning example 0",""
"","","","","","html-button-response","72","199112","0.0-34.0","55","1","2025-01-31 01:14:01","af8d355d56820e421d246a7037deb6e6","73.237.179.246","Mozilla/5.0 (Windows NT 10.0; Win64; x64) AppleWebKit/537.36 (KHTML, like Gecko) Chrome/132.0.0.0 Safari/537.36","WebKit","Chrome","132.0.0.0","Windows","10.0","https://app.prolific.com/","en-US,en;q=0.9,pt;q=0.8","678d97abed191932719e540e","67949641171f97c04e14fb34","679c23d41bb54623aebe87e2","","null","<img  src='G_9.jpg' height='90'> <img   src='G_5.jpg' height='90'> <img  src='G_3.jpg' height='90'> <img src='G_1.jpg' height='90'> <img src='G_7.jpg' height='90'>","null","Learning example 0",""
"","","","","","html-button-response","73","199532","0.0-35.0","55","1","2025-01-31 01:14:01","af8d355d56820e421d246a7037deb6e6","73.237.179.246","Mozilla/5.0 (Windows NT 10.0; Win64; x64) AppleWebKit/537.36 (KHTML, like Gecko) Chrome/132.0.0.0 Safari/537.36","WebKit","Chrome","132.0.0.0","Windows","10.0","https://app.prolific.com/","en-US,en;q=0.9,pt;q=0.8","678d97abed191932719e540e","67949641171f97c04e14fb34","679c23d41bb54623aebe87e2","","null","<img  src='G_9.jpg' height='90'> <img   src='G_5.jpg' height='90'> <img id='selected'  src='G_3.jpg' height='90'> <img src='G_1.jpg' height='90'> <img src='G_7.jpg' height='90'>","null","Learning example 0",""
"","","","","","html-button-response","74","199845","0.0-36.0","55","1","2025-01-31 01:14:01","af8d355d56820e421d246a7037deb6e6","73.237.179.246","Mozilla/5.0 (Windows NT 10.0; Win64; x64) AppleWebKit/537.36 (KHTML, like Gecko) Chrome/132.0.0.0 Safari/537.36","WebKit","Chrome","132.0.0.0","Windows","10.0","https://app.prolific.com/","en-US,en;q=0.9,pt;q=0.8","678d97abed191932719e540e","67949641171f97c04e14fb34","679c23d41bb54623aebe87e2","","null","<img  src='G_9.jpg' height='90'> <img   src='G_5.jpg' height='90'> <img id='selected'  src='G_3.jpg' height='90'> <img id='selected' src='G_1.jpg' height='90'> <img src='G_7.jpg' height='90'>","null","Learning example 0",""
"","","","","","html-button-response","75","200158","0.0-37.0","55","1","2025-01-31 01:14:01","af8d355d56820e421d246a7037deb6e6","73.237.179.246","Mozilla/5.0 (Windows NT 10.0; Win64; x64) AppleWebKit/537.36 (KHTML, like Gecko) Chrome/132.0.0.0 Safari/537.36","WebKit","Chrome","132.0.0.0","Windows","10.0","https://app.prolific.com/","en-US,en;q=0.9,pt;q=0.8","678d97abed191932719e540e","67949641171f97c04e14fb34","679c23d41bb54623aebe87e2","","null","<img  src='G_9.jpg' height='90'> <img   src='G_5.jpg' height='90'> <img id='selected'  src='G_3.jpg' height='90'> <img id='selected' src='G_1.jpg' height='90'> <img src='G_7.jpg' height='90'>","null","Learning example 0",""
"","","","","","html-button-response","76","201403","0.0-38.0-0.0-0.0","55","1","2025-01-31 01:14:01","af8d355d56820e421d246a7037deb6e6","73.237.179.246","Mozilla/5.0 (Windows NT 10.0; Win64; x64) AppleWebKit/537.36 (KHTML, like Gecko) Chrome/132.0.0.0 Safari/537.36","WebKit","Chrome","132.0.0.0","Windows","10.0","https://app.prolific.com/","en-US,en;q=0.9,pt;q=0.8","678d97abed191932719e540e","67949641171f97c04e14fb34","679c23d41bb54623aebe87e2","","1237","<img  src='G_9.jpg' height='90'> <img   src='G_5.jpg' height='90'> <img id='selected'  src='G_3.jpg' height='90'> <img id='selected' src='G_1.jpg' height='90'> <img src='G_7.jpg' height='90'>","2","Learning example 0",""
"","","","","","html-button-response","77","201766","0.0-38.1-0.1-0.1","55","1","2025-01-31 01:14:01","af8d355d56820e421d246a7037deb6e6","73.237.179.246","Mozilla/5.0 (Windows NT 10.0; Win64; x64) AppleWebKit/537.36 (KHTML, like Gecko) Chrome/132.0.0.0 Safari/537.36","WebKit","Chrome","132.0.0.0","Windows","10.0","https://app.prolific.com/","en-US,en;q=0.9,pt;q=0.8","678d97abed191932719e540e","67949641171f97c04e14fb34","679c23d41bb54623aebe87e2","","359","<img  src='G_9.jpg' height='90'> <img   src='G_5.jpg' height='90'> <img id='selected'  src='G_3.jpg' height='90'> <img id='selected' src='G_1.jpg' height='90'> <img src='G_7.jpg' height='90'>","3","Learning example 0",""
"","","","","","html-button-response","78","201975","0.0-39.0","55","1","2025-01-31 01:14:01","af8d355d56820e421d246a7037deb6e6","73.237.179.246","Mozilla/5.0 (Windows NT 10.0; Win64; x64) AppleWebKit/537.36 (KHTML, like Gecko) Chrome/132.0.0.0 Safari/537.36","WebKit","Chrome","132.0.0.0","Windows","10.0","https://app.prolific.com/","en-US,en;q=0.9,pt;q=0.8","678d97abed191932719e540e","67949641171f97c04e14fb34","679c23d41bb54623aebe87e2","","null","<img  src='G_9.jpg' height='90'> <img   src='G_5.jpg' height='90'> <img   src='G_3.jpg' height='90'> <img  src='G_1.jpg' height='90'> <img src='G_7.jpg' height='90'>","null","Learning example 0",""
"","","","","","html-button-response","79","202382","0.0-40.0","55","1","2025-01-31 01:14:01","af8d355d56820e421d246a7037deb6e6","73.237.179.246","Mozilla/5.0 (Windows NT 10.0; Win64; x64) AppleWebKit/537.36 (KHTML, like Gecko) Chrome/132.0.0.0 Safari/537.36","WebKit","Chrome","132.0.0.0","Windows","10.0","https://app.prolific.com/","en-US,en;q=0.9,pt;q=0.8","678d97abed191932719e540e","67949641171f97c04e14fb34","679c23d41bb54623aebe87e2","","null","<img  src='G_9.jpg' height='90'> <img   src='G_5.jpg' height='90'> <img   src='G_3.jpg' height='90'> <img id='selected'  src='G_1.jpg' height='90'> <img src='G_7.jpg' height='90'>","null","Learning example 0",""
"","","","","","html-button-response","80","202693","0.0-41.0","55","1","2025-01-31 01:14:01","af8d355d56820e421d246a7037deb6e6","73.237.179.246","Mozilla/5.0 (Windows NT 10.0; Win64; x64) AppleWebKit/537.36 (KHTML, like Gecko) Chrome/132.0.0.0 Safari/537.36","WebKit","Chrome","132.0.0.0","Windows","10.0","https://app.prolific.com/","en-US,en;q=0.9,pt;q=0.8","678d97abed191932719e540e","67949641171f97c04e14fb34","679c23d41bb54623aebe87e2","","null","<img  src='G_9.jpg' height='90'> <img   src='G_5.jpg' height='90'> <img   src='G_3.jpg' height='90'> <img id='selected'  src='G_1.jpg' height='90'> <img id='selected' src='G_7.jpg' height='90'>","null","Learning example 0",""
"","","","","","html-button-response","81","203005","0.0-42.0","55","1","2025-01-31 01:14:01","af8d355d56820e421d246a7037deb6e6","73.237.179.246","Mozilla/5.0 (Windows NT 10.0; Win64; x64) AppleWebKit/537.36 (KHTML, like Gecko) Chrome/132.0.0.0 Safari/537.36","WebKit","Chrome","132.0.0.0","Windows","10.0","https://app.prolific.com/","en-US,en;q=0.9,pt;q=0.8","678d97abed191932719e540e","67949641171f97c04e14fb34","679c23d41bb54623aebe87e2","","null","<img  src='G_9.jpg' height='90'> <img   src='G_5.jpg' height='90'> <img   src='G_3.jpg' height='90'> <img id='selected'  src='G_1.jpg' height='90'> <img id='selected' src='G_7.jpg' height='90'>","null","Learning example 0",""
"","","","","","html-button-response","82","203630","0.0-43.0-0.0-0.0","55","1","2025-01-31 01:14:01","af8d355d56820e421d246a7037deb6e6","73.237.179.246","Mozilla/5.0 (Windows NT 10.0; Win64; x64) AppleWebKit/537.36 (KHTML, like Gecko) Chrome/132.0.0.0 Safari/537.36","WebKit","Chrome","132.0.0.0","Windows","10.0","https://app.prolific.com/","en-US,en;q=0.9,pt;q=0.8","678d97abed191932719e540e","67949641171f97c04e14fb34","679c23d41bb54623aebe87e2","","617","<img  src='G_9.jpg' height='90'> <img   src='G_5.jpg' height='90'> <img   src='G_3.jpg' height='90'> <img id='selected'  src='G_1.jpg' height='90'> <img id='selected' src='G_7.jpg' height='90'>","3","Learning example 0",""
"","","","","","html-button-response","83","203999","0.0-43.1-0.1-0.1","55","1","2025-01-31 01:14:01","af8d355d56820e421d246a7037deb6e6","73.237.179.246","Mozilla/5.0 (Windows NT 10.0; Win64; x64) AppleWebKit/537.36 (KHTML, like Gecko) Chrome/132.0.0.0 Safari/537.36","WebKit","Chrome","132.0.0.0","Windows","10.0","https://app.prolific.com/","en-US,en;q=0.9,pt;q=0.8","678d97abed191932719e540e","67949641171f97c04e14fb34","679c23d41bb54623aebe87e2","","366","<img  src='G_9.jpg' height='90'> <img   src='G_5.jpg' height='90'> <img   src='G_3.jpg' height='90'> <img id='selected'  src='G_1.jpg' height='90'> <img id='selected' src='G_7.jpg' height='90'>","4","Learning example 0",""
"","","","","","html-button-response","84","204203","0.0-44.0","55","1","2025-01-31 01:14:01","af8d355d56820e421d246a7037deb6e6","73.237.179.246","Mozilla/5.0 (Windows NT 10.0; Win64; x64) AppleWebKit/537.36 (KHTML, like Gecko) Chrome/132.0.0.0 Safari/537.36","WebKit","Chrome","132.0.0.0","Windows","10.0","https://app.prolific.com/","en-US,en;q=0.9,pt;q=0.8","678d97abed191932719e540e","67949641171f97c04e14fb34","679c23d41bb54623aebe87e2","","null","<img  src='G_9.jpg' height='90'> <img   src='G_5.jpg' height='90'> <img   src='G_3.jpg' height='90'> <img   src='G_1.jpg' height='90'> <img  src='G_7.jpg' height='90'>","null","Learning example 0",""
"","","","","","html-keyboard-response","85","213749","0.0-45.0","55","1","2025-01-31 01:14:01","af8d355d56820e421d246a7037deb6e6","73.237.179.246","Mozilla/5.0 (Windows NT 10.0; Win64; x64) AppleWebKit/537.36 (KHTML, like Gecko) Chrome/132.0.0.0 Safari/537.36","WebKit","Chrome","132.0.0.0","Windows","10.0","https://app.prolific.com/","en-US,en;q=0.9,pt;q=0.8","678d97abed191932719e540e","67949641171f97c04e14fb34","679c23d41bb54623aebe87e2","","9543","[""Final order was 1,2,3,4,5. The initial order was 2,1,3,4,5.<br>It took 1 swaps to sort it correctly with Omgne Sort. <br><br>Press Enter to continue.""]","enter","",""
"","","","","","html-keyboard-response","86","218288","0.0-46.0","55","1","2025-01-31 01:14:01","af8d355d56820e421d246a7037deb6e6","73.237.179.246","Mozilla/5.0 (Windows NT 10.0; Win64; x64) AppleWebKit/537.36 (KHTML, like Gecko) Chrome/132.0.0.0 Safari/537.36","WebKit","Chrome","132.0.0.0","Windows","10.0","https://app.prolific.com/","en-US,en;q=0.9,pt;q=0.8","678d97abed191932719e540e","67949641171f97c04e14fb34","679c23d41bb54623aebe87e2","","4537","[""Example 2<br><br>You will watch Omnge Sort in action. Try to identify any patterns in the comparisons made by this method. <br><br>Press Enter to continue.""]","enter","",""
"","","","","","html-keyboard-response","87","218794","0.0-47.0","55","1","2025-01-31 01:14:01","af8d355d56820e421d246a7037deb6e6","73.237.179.246","Mozilla/5.0 (Windows NT 10.0; Win64; x64) AppleWebKit/537.36 (KHTML, like Gecko) Chrome/132.0.0.0 Safari/537.36","WebKit","Chrome","132.0.0.0","Windows","10.0","https://app.prolific.com/","en-US,en;q=0.9,pt;q=0.8","678d97abed191932719e540e","67949641171f97c04e14fb34","679c23d41bb54623aebe87e2","","null","<img id='selected' src='G_1.jpg' height='90'> <img src='G_8.jpg' height='90'> <img src='G_7.jpg' height='90'> <img src='G_3.jpg' height='90'> <img src='G_4.jpg' height='90'> <img src='G_5.jpg' height='90'> <img src='G_2.jpg' height='90'> <img src='G_6.jpg' height='90'>","null","Animation1",""
"","","","","","html-keyboard-response","88","219311","0.0-48.0","55","1","2025-01-31 01:14:01","af8d355d56820e421d246a7037deb6e6","73.237.179.246","Mozilla/5.0 (Windows NT 10.0; Win64; x64) AppleWebKit/537.36 (KHTML, like Gecko) Chrome/132.0.0.0 Safari/537.36","WebKit","Chrome","132.0.0.0","Windows","10.0","https://app.prolific.com/","en-US,en;q=0.9,pt;q=0.8","678d97abed191932719e540e","67949641171f97c04e14fb34","679c23d41bb54623aebe87e2","","null","<img id='selected' src='G_1.jpg' height='90'> <img id='selected' src='G_8.jpg' height='90'> <img src='G_7.jpg' height='90'> <img src='G_3.jpg' height='90'> <img src='G_4.jpg' height='90'> <img src='G_5.jpg' height='90'> <img src='G_2.jpg' height='90'> <img src='G_6.jpg' height='90'>","null","Animation1",""
"","","","","","html-keyboard-response","89","219828","0.0-49.0","55","1","2025-01-31 01:14:01","af8d355d56820e421d246a7037deb6e6","73.237.179.246","Mozilla/5.0 (Windows NT 10.0; Win64; x64) AppleWebKit/537.36 (KHTML, like Gecko) Chrome/132.0.0.0 Safari/537.36","WebKit","Chrome","132.0.0.0","Windows","10.0","https://app.prolific.com/","en-US,en;q=0.9,pt;q=0.8","678d97abed191932719e540e","67949641171f97c04e14fb34","679c23d41bb54623aebe87e2","","null","<img id='selected' src='G_1.jpg' height='90'> <img id='selected' src='G_8.jpg' height='90'> <img src='G_7.jpg' height='90'> <img src='G_3.jpg' height='90'> <img src='G_4.jpg' height='90'> <img src='G_5.jpg' height='90'> <img src='G_2.jpg' height='90'> <img src='G_6.jpg' height='90'>","null","Animation1",""
"","","","","","html-keyboard-response","90","220145","0.0-50.0","55","1","2025-01-31 01:14:01","af8d355d56820e421d246a7037deb6e6","73.237.179.246","Mozilla/5.0 (Windows NT 10.0; Win64; x64) AppleWebKit/537.36 (KHTML, like Gecko) Chrome/132.0.0.0 Safari/537.36","WebKit","Chrome","132.0.0.0","Windows","10.0","https://app.prolific.com/","en-US,en;q=0.9,pt;q=0.8","678d97abed191932719e540e","67949641171f97c04e14fb34","679c23d41bb54623aebe87e2","","null","<img  src='G_1.jpg' height='90'> <img  src='G_8.jpg' height='90'> <img src='G_7.jpg' height='90'> <img src='G_3.jpg' height='90'> <img src='G_4.jpg' height='90'> <img src='G_5.jpg' height='90'> <img src='G_2.jpg' height='90'> <img src='G_6.jpg' height='90'>","null","Animation1",""
"","","","","","html-keyboard-response","91","220666","0.0-51.0","55","1","2025-01-31 01:14:01","af8d355d56820e421d246a7037deb6e6","73.237.179.246","Mozilla/5.0 (Windows NT 10.0; Win64; x64) AppleWebKit/537.36 (KHTML, like Gecko) Chrome/132.0.0.0 Safari/537.36","WebKit","Chrome","132.0.0.0","Windows","10.0","https://app.prolific.com/","en-US,en;q=0.9,pt;q=0.8","678d97abed191932719e540e","67949641171f97c04e14fb34","679c23d41bb54623aebe87e2","","null","<img  src='G_1.jpg' height='90'> <img id='selected'  src='G_8.jpg' height='90'> <img src='G_7.jpg' height='90'> <img src='G_3.jpg' height='90'> <img src='G_4.jpg' height='90'> <img src='G_5.jpg' height='90'> <img src='G_2.jpg' height='90'> <img src='G_6.jpg' height='90'>","null","Animation1",""
"","","","","","html-keyboard-response","92","221175","0.0-52.0","55","1","2025-01-31 01:14:01","af8d355d56820e421d246a7037deb6e6","73.237.179.246","Mozilla/5.0 (Windows NT 10.0; Win64; x64) AppleWebKit/537.36 (KHTML, like Gecko) Chrome/132.0.0.0 Safari/537.36","WebKit","Chrome","132.0.0.0","Windows","10.0","https://app.prolific.com/","en-US,en;q=0.9,pt;q=0.8","678d97abed191932719e540e","67949641171f97c04e14fb34","679c23d41bb54623aebe87e2","","null","<img  src='G_1.jpg' height='90'> <img id='selected'  src='G_8.jpg' height='90'> <img id='selected' src='G_7.jpg' height='90'> <img src='G_3.jpg' height='90'> <img src='G_4.jpg' height='90'> <img src='G_5.jpg' height='90'> <img src='G_2.jpg' height='90'> <img src='G_6.jpg' height='90'>","null","Animation1",""
"","","","","","html-keyboard-response","93","221688","0.0-53.0","55","1","2025-01-31 01:14:01","af8d355d56820e421d246a7037deb6e6","73.237.179.246","Mozilla/5.0 (Windows NT 10.0; Win64; x64) AppleWebKit/537.36 (KHTML, like Gecko) Chrome/132.0.0.0 Safari/537.36","WebKit","Chrome","132.0.0.0","Windows","10.0","https://app.prolific.com/","en-US,en;q=0.9,pt;q=0.8","678d97abed191932719e540e","67949641171f97c04e14fb34","679c23d41bb54623aebe87e2","","null","<img  src='G_1.jpg' height='90'> <img id='swapped' src='G_7.jpg' height='90'> <img id='swapped'  src='G_8.jpg' height='90'> <img src='G_3.jpg' height='90'> <img src='G_4.jpg' height='90'> <img src='G_5.jpg' height='90'> <img src='G_2.jpg' height='90'> <img src='G_6.jpg' height='90'>","null","Animation1",""
"","","","","","html-keyboard-response","94","222000","0.0-54.0","55","1","2025-01-31 01:14:01","af8d355d56820e421d246a7037deb6e6","73.237.179.246","Mozilla/5.0 (Windows NT 10.0; Win64; x64) AppleWebKit/537.36 (KHTML, like Gecko) Chrome/132.0.0.0 Safari/537.36","WebKit","Chrome","132.0.0.0","Windows","10.0","https://app.prolific.com/","en-US,en;q=0.9,pt;q=0.8","678d97abed191932719e540e","67949641171f97c04e14fb34","679c23d41bb54623aebe87e2","","null","<img  src='G_1.jpg' height='90'> <img  src='G_7.jpg' height='90'> <img   src='G_8.jpg' height='90'> <img src='G_3.jpg' height='90'> <img src='G_4.jpg' height='90'> <img src='G_5.jpg' height='90'> <img src='G_2.jpg' height='90'> <img src='G_6.jpg' height='90'>","null","Animation1",""
"","","","","","html-keyboard-response","95","222514","0.0-55.0","55","1","2025-01-31 01:14:01","af8d355d56820e421d246a7037deb6e6","73.237.179.246","Mozilla/5.0 (Windows NT 10.0; Win64; x64) AppleWebKit/537.36 (KHTML, like Gecko) Chrome/132.0.0.0 Safari/537.36","WebKit","Chrome","132.0.0.0","Windows","10.0","https://app.prolific.com/","en-US,en;q=0.9,pt;q=0.8","678d97abed191932719e540e","67949641171f97c04e14fb34","679c23d41bb54623aebe87e2","","null","<img id='selected'  src='G_1.jpg' height='90'> <img  src='G_7.jpg' height='90'> <img   src='G_8.jpg' height='90'> <img src='G_3.jpg' height='90'> <img src='G_4.jpg' height='90'> <img src='G_5.jpg' height='90'> <img src='G_2.jpg' height='90'> <img src='G_6.jpg' height='90'>","null","Animation1",""
"","","","","","html-keyboard-response","96","223032","0.0-56.0","55","1","2025-01-31 01:14:01","af8d355d56820e421d246a7037deb6e6","73.237.179.246","Mozilla/5.0 (Windows NT 10.0; Win64; x64) AppleWebKit/537.36 (KHTML, like Gecko) Chrome/132.0.0.0 Safari/537.36","WebKit","Chrome","132.0.0.0","Windows","10.0","https://app.prolific.com/","en-US,en;q=0.9,pt;q=0.8","678d97abed191932719e540e","67949641171f97c04e14fb34","679c23d41bb54623aebe87e2","","null","<img id='selected'  src='G_1.jpg' height='90'> <img id='selected'  src='G_7.jpg' height='90'> <img   src='G_8.jpg' height='90'> <img src='G_3.jpg' height='90'> <img src='G_4.jpg' height='90'> <img src='G_5.jpg' height='90'> <img src='G_2.jpg' height='90'> <img src='G_6.jpg' height='90'>","null","Animation1",""
"","","","","","html-keyboard-response","97","223549","0.0-57.0","55","1","2025-01-31 01:14:01","af8d355d56820e421d246a7037deb6e6","73.237.179.246","Mozilla/5.0 (Windows NT 10.0; Win64; x64) AppleWebKit/537.36 (KHTML, like Gecko) Chrome/132.0.0.0 Safari/537.36","WebKit","Chrome","132.0.0.0","Windows","10.0","https://app.prolific.com/","en-US,en;q=0.9,pt;q=0.8","678d97abed191932719e540e","67949641171f97c04e14fb34","679c23d41bb54623aebe87e2","","null","<img id='swapped'  src='G_7.jpg' height='90'> <img id='swapped'  src='G_1.jpg' height='90'> <img   src='G_8.jpg' height='90'> <img src='G_3.jpg' height='90'> <img src='G_4.jpg' height='90'> <img src='G_5.jpg' height='90'> <img src='G_2.jpg' height='90'> <img src='G_6.jpg' height='90'>","null","Animation1",""
"","","","","","html-keyboard-response","98","223863","0.0-58.0","55","1","2025-01-31 01:14:01","af8d355d56820e421d246a7037deb6e6","73.237.179.246","Mozilla/5.0 (Windows NT 10.0; Win64; x64) AppleWebKit/537.36 (KHTML, like Gecko) Chrome/132.0.0.0 Safari/537.36","WebKit","Chrome","132.0.0.0","Windows","10.0","https://app.prolific.com/","en-US,en;q=0.9,pt;q=0.8","678d97abed191932719e540e","67949641171f97c04e14fb34","679c23d41bb54623aebe87e2","","null","<img   src='G_7.jpg' height='90'> <img   src='G_1.jpg' height='90'> <img   src='G_8.jpg' height='90'> <img src='G_3.jpg' height='90'> <img src='G_4.jpg' height='90'> <img src='G_5.jpg' height='90'> <img src='G_2.jpg' height='90'> <img src='G_6.jpg' height='90'>","null","Animation1",""
"","","","","","html-keyboard-response","99","224380","0.0-59.0","55","1","2025-01-31 01:14:01","af8d355d56820e421d246a7037deb6e6","73.237.179.246","Mozilla/5.0 (Windows NT 10.0; Win64; x64) AppleWebKit/537.36 (KHTML, like Gecko) Chrome/132.0.0.0 Safari/537.36","WebKit","Chrome","132.0.0.0","Windows","10.0","https://app.prolific.com/","en-US,en;q=0.9,pt;q=0.8","678d97abed191932719e540e","67949641171f97c04e14fb34","679c23d41bb54623aebe87e2","","null","<img   src='G_7.jpg' height='90'> <img   src='G_1.jpg' height='90'> <img id='selected'   src='G_8.jpg' height='90'> <img src='G_3.jpg' height='90'> <img src='G_4.jpg' height='90'> <img src='G_5.jpg' height='90'> <img src='G_2.jpg' height='90'> <img src='G_6.jpg' height='90'>","null","Animation1",""
"","","","","","html-keyboard-response","100","224900","0.0-60.0","55","1","2025-01-31 01:14:01","af8d355d56820e421d246a7037deb6e6","73.237.179.246","Mozilla/5.0 (Windows NT 10.0; Win64; x64) AppleWebKit/537.36 (KHTML, like Gecko) Chrome/132.0.0.0 Safari/537.36","WebKit","Chrome","132.0.0.0","Windows","10.0","https://app.prolific.com/","en-US,en;q=0.9,pt;q=0.8","678d97abed191932719e540e","67949641171f97c04e14fb34","679c23d41bb54623aebe87e2","","null","<img   src='G_7.jpg' height='90'> <img   src='G_1.jpg' height='90'> <img id='selected'   src='G_8.jpg' height='90'> <img id='selected' src='G_3.jpg' height='90'> <img src='G_4.jpg' height='90'> <img src='G_5.jpg' height='90'> <img src='G_2.jpg' height='90'> <img src='G_6.jpg' height='90'>","null","Animation1",""
"","","","","","html-keyboard-response","101","225424","0.0-61.0","55","1","2025-01-31 01:14:01","af8d355d56820e421d246a7037deb6e6","73.237.179.246","Mozilla/5.0 (Windows NT 10.0; Win64; x64) AppleWebKit/537.36 (KHTML, like Gecko) Chrome/132.0.0.0 Safari/537.36","WebKit","Chrome","132.0.0.0","Windows","10.0","https://app.prolific.com/","en-US,en;q=0.9,pt;q=0.8","678d97abed191932719e540e","67949641171f97c04e14fb34","679c23d41bb54623aebe87e2","","null","<img   src='G_7.jpg' height='90'> <img   src='G_1.jpg' height='90'> <img id='swapped' src='G_3.jpg' height='90'> <img id='swapped'   src='G_8.jpg' height='90'> <img src='G_4.jpg' height='90'> <img src='G_5.jpg' height='90'> <img src='G_2.jpg' height='90'> <img src='G_6.jpg' height='90'>","null","Animation1",""
"","","","","","html-keyboard-response","102","225737","0.0-62.0","55","1","2025-01-31 01:14:01","af8d355d56820e421d246a7037deb6e6","73.237.179.246","Mozilla/5.0 (Windows NT 10.0; Win64; x64) AppleWebKit/537.36 (KHTML, like Gecko) Chrome/132.0.0.0 Safari/537.36","WebKit","Chrome","132.0.0.0","Windows","10.0","https://app.prolific.com/","en-US,en;q=0.9,pt;q=0.8","678d97abed191932719e540e","67949641171f97c04e14fb34","679c23d41bb54623aebe87e2","","null","<img   src='G_7.jpg' height='90'> <img   src='G_1.jpg' height='90'> <img  src='G_3.jpg' height='90'> <img    src='G_8.jpg' height='90'> <img src='G_4.jpg' height='90'> <img src='G_5.jpg' height='90'> <img src='G_2.jpg' height='90'> <img src='G_6.jpg' height='90'>","null","Animation1",""
"","","","","","html-keyboard-response","103","226251","0.0-63.0","55","1","2025-01-31 01:14:01","af8d355d56820e421d246a7037deb6e6","73.237.179.246","Mozilla/5.0 (Windows NT 10.0; Win64; x64) AppleWebKit/537.36 (KHTML, like Gecko) Chrome/132.0.0.0 Safari/537.36","WebKit","Chrome","132.0.0.0","Windows","10.0","https://app.prolific.com/","en-US,en;q=0.9,pt;q=0.8","678d97abed191932719e540e","67949641171f97c04e14fb34","679c23d41bb54623aebe87e2","","null","<img   src='G_7.jpg' height='90'> <img id='selected'   src='G_1.jpg' height='90'> <img  src='G_3.jpg' height='90'> <img    src='G_8.jpg' height='90'> <img src='G_4.jpg' height='90'> <img src='G_5.jpg' height='90'> <img src='G_2.jpg' height='90'> <img src='G_6.jpg' height='90'>","null","Animation1",""
"","","","","","html-keyboard-response","104","226766","0.0-64.0","55","1","2025-01-31 01:14:01","af8d355d56820e421d246a7037deb6e6","73.237.179.246","Mozilla/5.0 (Windows NT 10.0; Win64; x64) AppleWebKit/537.36 (KHTML, like Gecko) Chrome/132.0.0.0 Safari/537.36","WebKit","Chrome","132.0.0.0","Windows","10.0","https://app.prolific.com/","en-US,en;q=0.9,pt;q=0.8","678d97abed191932719e540e","67949641171f97c04e14fb34","679c23d41bb54623aebe87e2","","null","<img   src='G_7.jpg' height='90'> <img id='selected'   src='G_1.jpg' height='90'> <img id='selected'  src='G_3.jpg' height='90'> <img    src='G_8.jpg' height='90'> <img src='G_4.jpg' height='90'> <img src='G_5.jpg' height='90'> <img src='G_2.jpg' height='90'> <img src='G_6.jpg' height='90'>","null","Animation1",""
"","","","","","html-keyboard-response","105","227285","0.0-65.0","55","1","2025-01-31 01:14:01","af8d355d56820e421d246a7037deb6e6","73.237.179.246","Mozilla/5.0 (Windows NT 10.0; Win64; x64) AppleWebKit/537.36 (KHTML, like Gecko) Chrome/132.0.0.0 Safari/537.36","WebKit","Chrome","132.0.0.0","Windows","10.0","https://app.prolific.com/","en-US,en;q=0.9,pt;q=0.8","678d97abed191932719e540e","67949641171f97c04e14fb34","679c23d41bb54623aebe87e2","","null","<img   src='G_7.jpg' height='90'> <img id='swapped'  src='G_3.jpg' height='90'> <img id='swapped'   src='G_1.jpg' height='90'> <img    src='G_8.jpg' height='90'> <img src='G_4.jpg' height='90'> <img src='G_5.jpg' height='90'> <img src='G_2.jpg' height='90'> <img src='G_6.jpg' height='90'>","null","Animation1",""
"","","","","","html-keyboard-response","106","227597","0.0-66.0","55","1","2025-01-31 01:14:01","af8d355d56820e421d246a7037deb6e6","73.237.179.246","Mozilla/5.0 (Windows NT 10.0; Win64; x64) AppleWebKit/537.36 (KHTML, like Gecko) Chrome/132.0.0.0 Safari/537.36","WebKit","Chrome","132.0.0.0","Windows","10.0","https://app.prolific.com/","en-US,en;q=0.9,pt;q=0.8","678d97abed191932719e540e","67949641171f97c04e14fb34","679c23d41bb54623aebe87e2","","null","<img   src='G_7.jpg' height='90'> <img   src='G_3.jpg' height='90'> <img    src='G_1.jpg' height='90'> <img    src='G_8.jpg' height='90'> <img src='G_4.jpg' height='90'> <img src='G_5.jpg' height='90'> <img src='G_2.jpg' height='90'> <img src='G_6.jpg' height='90'>","null","Animation1",""
"","","","","","html-keyboard-response","107","228111","0.0-67.0","55","1","2025-01-31 01:14:01","af8d355d56820e421d246a7037deb6e6","73.237.179.246","Mozilla/5.0 (Windows NT 10.0; Win64; x64) AppleWebKit/537.36 (KHTML, like Gecko) Chrome/132.0.0.0 Safari/537.36","WebKit","Chrome","132.0.0.0","Windows","10.0","https://app.prolific.com/","en-US,en;q=0.9,pt;q=0.8","678d97abed191932719e540e","67949641171f97c04e14fb34","679c23d41bb54623aebe87e2","","null","<img id='selected'   src='G_7.jpg' height='90'> <img   src='G_3.jpg' height='90'> <img    src='G_1.jpg' height='90'> <img    src='G_8.jpg' height='90'> <img src='G_4.jpg' height='90'> <img src='G_5.jpg' height='90'> <img src='G_2.jpg' height='90'> <img src='G_6.jpg' height='90'>","null","Animation1",""
"","","","","","html-keyboard-response","108","228628","0.0-68.0","55","1","2025-01-31 01:14:01","af8d355d56820e421d246a7037deb6e6","73.237.179.246","Mozilla/5.0 (Windows NT 10.0; Win64; x64) AppleWebKit/537.36 (KHTML, like Gecko) Chrome/132.0.0.0 Safari/537.36","WebKit","Chrome","132.0.0.0","Windows","10.0","https://app.prolific.com/","en-US,en;q=0.9,pt;q=0.8","678d97abed191932719e540e","67949641171f97c04e14fb34","679c23d41bb54623aebe87e2","","null","<img id='selected'   src='G_7.jpg' height='90'> <img id='selected'   src='G_3.jpg' height='90'> <img    src='G_1.jpg' height='90'> <img    src='G_8.jpg' height='90'> <img src='G_4.jpg' height='90'> <img src='G_5.jpg' height='90'> <img src='G_2.jpg' height='90'> <img src='G_6.jpg' height='90'>","null","Animation1",""
"","","","","","html-keyboard-response","109","229145","0.0-69.0","55","1","2025-01-31 01:14:01","af8d355d56820e421d246a7037deb6e6","73.237.179.246","Mozilla/5.0 (Windows NT 10.0; Win64; x64) AppleWebKit/537.36 (KHTML, like Gecko) Chrome/132.0.0.0 Safari/537.36","WebKit","Chrome","132.0.0.0","Windows","10.0","https://app.prolific.com/","en-US,en;q=0.9,pt;q=0.8","678d97abed191932719e540e","67949641171f97c04e14fb34","679c23d41bb54623aebe87e2","","null","<img id='swapped'   src='G_3.jpg' height='90'> <img id='swapped'   src='G_7.jpg' height='90'> <img    src='G_1.jpg' height='90'> <img    src='G_8.jpg' height='90'> <img src='G_4.jpg' height='90'> <img src='G_5.jpg' height='90'> <img src='G_2.jpg' height='90'> <img src='G_6.jpg' height='90'>","null","Animation1",""
"","","","","","html-keyboard-response","110","229457","0.0-70.0","55","1","2025-01-31 01:14:01","af8d355d56820e421d246a7037deb6e6","73.237.179.246","Mozilla/5.0 (Windows NT 10.0; Win64; x64) AppleWebKit/537.36 (KHTML, like Gecko) Chrome/132.0.0.0 Safari/537.36","WebKit","Chrome","132.0.0.0","Windows","10.0","https://app.prolific.com/","en-US,en;q=0.9,pt;q=0.8","678d97abed191932719e540e","67949641171f97c04e14fb34","679c23d41bb54623aebe87e2","","null","<img    src='G_3.jpg' height='90'> <img    src='G_7.jpg' height='90'> <img    src='G_1.jpg' height='90'> <img    src='G_8.jpg' height='90'> <img src='G_4.jpg' height='90'> <img src='G_5.jpg' height='90'> <img src='G_2.jpg' height='90'> <img src='G_6.jpg' height='90'>","null","Animation1",""
"","","","","","html-keyboard-response","111","229971","0.0-71.0","55","1","2025-01-31 01:14:01","af8d355d56820e421d246a7037deb6e6","73.237.179.246","Mozilla/5.0 (Windows NT 10.0; Win64; x64) AppleWebKit/537.36 (KHTML, like Gecko) Chrome/132.0.0.0 Safari/537.36","WebKit","Chrome","132.0.0.0","Windows","10.0","https://app.prolific.com/","en-US,en;q=0.9,pt;q=0.8","678d97abed191932719e540e","67949641171f97c04e14fb34","679c23d41bb54623aebe87e2","","null","<img    src='G_3.jpg' height='90'> <img    src='G_7.jpg' height='90'> <img    src='G_1.jpg' height='90'> <img id='selected'    src='G_8.jpg' height='90'> <img src='G_4.jpg' height='90'> <img src='G_5.jpg' height='90'> <img src='G_2.jpg' height='90'> <img src='G_6.jpg' height='90'>","null","Animation1",""
"","","","","","html-keyboard-response","112","230486","0.0-72.0","55","1","2025-01-31 01:14:01","af8d355d56820e421d246a7037deb6e6","73.237.179.246","Mozilla/5.0 (Windows NT 10.0; Win64; x64) AppleWebKit/537.36 (KHTML, like Gecko) Chrome/132.0.0.0 Safari/537.36","WebKit","Chrome","132.0.0.0","Windows","10.0","https://app.prolific.com/","en-US,en;q=0.9,pt;q=0.8","678d97abed191932719e540e","67949641171f97c04e14fb34","679c23d41bb54623aebe87e2","","null","<img    src='G_3.jpg' height='90'> <img    src='G_7.jpg' height='90'> <img    src='G_1.jpg' height='90'> <img id='selected'    src='G_8.jpg' height='90'> <img id='selected' src='G_4.jpg' height='90'> <img src='G_5.jpg' height='90'> <img src='G_2.jpg' height='90'> <img src='G_6.jpg' height='90'>","null","Animation1",""
"","","","","","html-keyboard-response","113","230998","0.0-73.0","55","1","2025-01-31 01:14:01","af8d355d56820e421d246a7037deb6e6","73.237.179.246","Mozilla/5.0 (Windows NT 10.0; Win64; x64) AppleWebKit/537.36 (KHTML, like Gecko) Chrome/132.0.0.0 Safari/537.36","WebKit","Chrome","132.0.0.0","Windows","10.0","https://app.prolific.com/","en-US,en;q=0.9,pt;q=0.8","678d97abed191932719e540e","67949641171f97c04e14fb34","679c23d41bb54623aebe87e2","","null","<img    src='G_3.jpg' height='90'> <img    src='G_7.jpg' height='90'> <img    src='G_1.jpg' height='90'> <img id='swapped' src='G_4.jpg' height='90'> <img id='swapped'    src='G_8.jpg' height='90'> <img src='G_5.jpg' height='90'> <img src='G_2.jpg' height='90'> <img src='G_6.jpg' height='90'>","null","Animation1",""
"","","","","","html-keyboard-response","114","231316","0.0-74.0","55","1","2025-01-31 01:14:01","af8d355d56820e421d246a7037deb6e6","73.237.179.246","Mozilla/5.0 (Windows NT 10.0; Win64; x64) AppleWebKit/537.36 (KHTML, like Gecko) Chrome/132.0.0.0 Safari/537.36","WebKit","Chrome","132.0.0.0","Windows","10.0","https://app.prolific.com/","en-US,en;q=0.9,pt;q=0.8","678d97abed191932719e540e","67949641171f97c04e14fb34","679c23d41bb54623aebe87e2","","null","<img    src='G_3.jpg' height='90'> <img    src='G_7.jpg' height='90'> <img    src='G_1.jpg' height='90'> <img  src='G_4.jpg' height='90'> <img     src='G_8.jpg' height='90'> <img src='G_5.jpg' height='90'> <img src='G_2.jpg' height='90'> <img src='G_6.jpg' height='90'>","null","Animation1",""
"","","","","","html-keyboard-response","115","231832","0.0-75.0","55","1","2025-01-31 01:14:01","af8d355d56820e421d246a7037deb6e6","73.237.179.246","Mozilla/5.0 (Windows NT 10.0; Win64; x64) AppleWebKit/537.36 (KHTML, like Gecko) Chrome/132.0.0.0 Safari/537.36","WebKit","Chrome","132.0.0.0","Windows","10.0","https://app.prolific.com/","en-US,en;q=0.9,pt;q=0.8","678d97abed191932719e540e","67949641171f97c04e14fb34","679c23d41bb54623aebe87e2","","null","<img    src='G_3.jpg' height='90'> <img    src='G_7.jpg' height='90'> <img id='selected'    src='G_1.jpg' height='90'> <img  src='G_4.jpg' height='90'> <img     src='G_8.jpg' height='90'> <img src='G_5.jpg' height='90'> <img src='G_2.jpg' height='90'> <img src='G_6.jpg' height='90'>","null","Animation1",""
"","","","","","html-keyboard-response","116","232351","0.0-76.0","55","1","2025-01-31 01:14:01","af8d355d56820e421d246a7037deb6e6","73.237.179.246","Mozilla/5.0 (Windows NT 10.0; Win64; x64) AppleWebKit/537.36 (KHTML, like Gecko) Chrome/132.0.0.0 Safari/537.36","WebKit","Chrome","132.0.0.0","Windows","10.0","https://app.prolific.com/","en-US,en;q=0.9,pt;q=0.8","678d97abed191932719e540e","67949641171f97c04e14fb34","679c23d41bb54623aebe87e2","","null","<img    src='G_3.jpg' height='90'> <img    src='G_7.jpg' height='90'> <img id='selected'    src='G_1.jpg' height='90'> <img id='selected'  src='G_4.jpg' height='90'> <img     src='G_8.jpg' height='90'> <img src='G_5.jpg' height='90'> <img src='G_2.jpg' height='90'> <img src='G_6.jpg' height='90'>","null","Animation1",""
"","","","","","html-keyboard-response","117","232862","0.0-77.0","55","1","2025-01-31 01:14:01","af8d355d56820e421d246a7037deb6e6","73.237.179.246","Mozilla/5.0 (Windows NT 10.0; Win64; x64) AppleWebKit/537.36 (KHTML, like Gecko) Chrome/132.0.0.0 Safari/537.36","WebKit","Chrome","132.0.0.0","Windows","10.0","https://app.prolific.com/","en-US,en;q=0.9,pt;q=0.8","678d97abed191932719e540e","67949641171f97c04e14fb34","679c23d41bb54623aebe87e2","","null","<img    src='G_3.jpg' height='90'> <img    src='G_7.jpg' height='90'> <img id='swapped'  src='G_4.jpg' height='90'> <img id='swapped'    src='G_1.jpg' height='90'> <img     src='G_8.jpg' height='90'> <img src='G_5.jpg' height='90'> <img src='G_2.jpg' height='90'> <img src='G_6.jpg' height='90'>","null","Animation1",""
"","","","","","html-keyboard-response","118","233180","0.0-78.0","55","1","2025-01-31 01:14:01","af8d355d56820e421d246a7037deb6e6","73.237.179.246","Mozilla/5.0 (Windows NT 10.0; Win64; x64) AppleWebKit/537.36 (KHTML, like Gecko) Chrome/132.0.0.0 Safari/537.36","WebKit","Chrome","132.0.0.0","Windows","10.0","https://app.prolific.com/","en-US,en;q=0.9,pt;q=0.8","678d97abed191932719e540e","67949641171f97c04e14fb34","679c23d41bb54623aebe87e2","","null","<img    src='G_3.jpg' height='90'> <img    src='G_7.jpg' height='90'> <img   src='G_4.jpg' height='90'> <img     src='G_1.jpg' height='90'> <img     src='G_8.jpg' height='90'> <img src='G_5.jpg' height='90'> <img src='G_2.jpg' height='90'> <img src='G_6.jpg' height='90'>","null","Animation1",""
"","","","","","html-keyboard-response","119","233697","0.0-79.0","55","1","2025-01-31 01:14:01","af8d355d56820e421d246a7037deb6e6","73.237.179.246","Mozilla/5.0 (Windows NT 10.0; Win64; x64) AppleWebKit/537.36 (KHTML, like Gecko) Chrome/132.0.0.0 Safari/537.36","WebKit","Chrome","132.0.0.0","Windows","10.0","https://app.prolific.com/","en-US,en;q=0.9,pt;q=0.8","678d97abed191932719e540e","67949641171f97c04e14fb34","679c23d41bb54623aebe87e2","","null","<img    src='G_3.jpg' height='90'> <img id='selected'    src='G_7.jpg' height='90'> <img   src='G_4.jpg' height='90'> <img     src='G_1.jpg' height='90'> <img     src='G_8.jpg' height='90'> <img src='G_5.jpg' height='90'> <img src='G_2.jpg' height='90'> <img src='G_6.jpg' height='90'>","null","Animation1",""
"","","","","","html-keyboard-response","120","234211","0.0-80.0","55","1","2025-01-31 01:14:01","af8d355d56820e421d246a7037deb6e6","73.237.179.246","Mozilla/5.0 (Windows NT 10.0; Win64; x64) AppleWebKit/537.36 (KHTML, like Gecko) Chrome/132.0.0.0 Safari/537.36","WebKit","Chrome","132.0.0.0","Windows","10.0","https://app.prolific.com/","en-US,en;q=0.9,pt;q=0.8","678d97abed191932719e540e","67949641171f97c04e14fb34","679c23d41bb54623aebe87e2","","null","<img    src='G_3.jpg' height='90'> <img id='selected'    src='G_7.jpg' height='90'> <img id='selected'   src='G_4.jpg' height='90'> <img     src='G_1.jpg' height='90'> <img     src='G_8.jpg' height='90'> <img src='G_5.jpg' height='90'> <img src='G_2.jpg' height='90'> <img src='G_6.jpg' height='90'>","null","Animation1",""
"","","","","","html-keyboard-response","121","234727","0.0-81.0","55","1","2025-01-31 01:14:01","af8d355d56820e421d246a7037deb6e6","73.237.179.246","Mozilla/5.0 (Windows NT 10.0; Win64; x64) AppleWebKit/537.36 (KHTML, like Gecko) Chrome/132.0.0.0 Safari/537.36","WebKit","Chrome","132.0.0.0","Windows","10.0","https://app.prolific.com/","en-US,en;q=0.9,pt;q=0.8","678d97abed191932719e540e","67949641171f97c04e14fb34","679c23d41bb54623aebe87e2","","null","<img    src='G_3.jpg' height='90'> <img id='swapped'   src='G_4.jpg' height='90'> <img id='swapped'    src='G_7.jpg' height='90'> <img     src='G_1.jpg' height='90'> <img     src='G_8.jpg' height='90'> <img src='G_5.jpg' height='90'> <img src='G_2.jpg' height='90'> <img src='G_6.jpg' height='90'>","null","Animation1",""
"","","","","","html-keyboard-response","122","235039","0.0-82.0","55","1","2025-01-31 01:14:01","af8d355d56820e421d246a7037deb6e6","73.237.179.246","Mozilla/5.0 (Windows NT 10.0; Win64; x64) AppleWebKit/537.36 (KHTML, like Gecko) Chrome/132.0.0.0 Safari/537.36","WebKit","Chrome","132.0.0.0","Windows","10.0","https://app.prolific.com/","en-US,en;q=0.9,pt;q=0.8","678d97abed191932719e540e","67949641171f97c04e14fb34","679c23d41bb54623aebe87e2","","null","<img    src='G_3.jpg' height='90'> <img    src='G_4.jpg' height='90'> <img     src='G_7.jpg' height='90'> <img     src='G_1.jpg' height='90'> <img     src='G_8.jpg' height='90'> <img src='G_5.jpg' height='90'> <img src='G_2.jpg' height='90'> <img src='G_6.jpg' height='90'>","null","Animation1",""
"","","","","","html-keyboard-response","123","235552","0.0-83.0","55","1","2025-01-31 01:14:01","af8d355d56820e421d246a7037deb6e6","73.237.179.246","Mozilla/5.0 (Windows NT 10.0; Win64; x64) AppleWebKit/537.36 (KHTML, like Gecko) Chrome/132.0.0.0 Safari/537.36","WebKit","Chrome","132.0.0.0","Windows","10.0","https://app.prolific.com/","en-US,en;q=0.9,pt;q=0.8","678d97abed191932719e540e","67949641171f97c04e14fb34","679c23d41bb54623aebe87e2","","null","<img id='selected'    src='G_3.jpg' height='90'> <img    src='G_4.jpg' height='90'> <img     src='G_7.jpg' height='90'> <img     src='G_1.jpg' height='90'> <img     src='G_8.jpg' height='90'> <img src='G_5.jpg' height='90'> <img src='G_2.jpg' height='90'> <img src='G_6.jpg' height='90'>","null","Animation1",""
"","","","","","html-keyboard-response","124","236059","0.0-84.0","55","1","2025-01-31 01:14:01","af8d355d56820e421d246a7037deb6e6","73.237.179.246","Mozilla/5.0 (Windows NT 10.0; Win64; x64) AppleWebKit/537.36 (KHTML, like Gecko) Chrome/132.0.0.0 Safari/537.36","WebKit","Chrome","132.0.0.0","Windows","10.0","https://app.prolific.com/","en-US,en;q=0.9,pt;q=0.8","678d97abed191932719e540e","67949641171f97c04e14fb34","679c23d41bb54623aebe87e2","","null","<img id='selected'    src='G_3.jpg' height='90'> <img id='selected'    src='G_4.jpg' height='90'> <img     src='G_7.jpg' height='90'> <img     src='G_1.jpg' height='90'> <img     src='G_8.jpg' height='90'> <img src='G_5.jpg' height='90'> <img src='G_2.jpg' height='90'> <img src='G_6.jpg' height='90'>","null","Animation1",""
"","","","","","html-keyboard-response","125","236578","0.0-85.0","55","1","2025-01-31 01:14:01","af8d355d56820e421d246a7037deb6e6","73.237.179.246","Mozilla/5.0 (Windows NT 10.0; Win64; x64) AppleWebKit/537.36 (KHTML, like Gecko) Chrome/132.0.0.0 Safari/537.36","WebKit","Chrome","132.0.0.0","Windows","10.0","https://app.prolific.com/","en-US,en;q=0.9,pt;q=0.8","678d97abed191932719e540e","67949641171f97c04e14fb34","679c23d41bb54623aebe87e2","","null","<img id='selected'    src='G_3.jpg' height='90'> <img id='selected'    src='G_4.jpg' height='90'> <img     src='G_7.jpg' height='90'> <img     src='G_1.jpg' height='90'> <img     src='G_8.jpg' height='90'> <img src='G_5.jpg' height='90'> <img src='G_2.jpg' height='90'> <img src='G_6.jpg' height='90'>","null","Animation1",""
"","","","","","html-keyboard-response","126","236892","0.0-86.0","55","1","2025-01-31 01:14:01","af8d355d56820e421d246a7037deb6e6","73.237.179.246","Mozilla/5.0 (Windows NT 10.0; Win64; x64) AppleWebKit/537.36 (KHTML, like Gecko) Chrome/132.0.0.0 Safari/537.36","WebKit","Chrome","132.0.0.0","Windows","10.0","https://app.prolific.com/","en-US,en;q=0.9,pt;q=0.8","678d97abed191932719e540e","67949641171f97c04e14fb34","679c23d41bb54623aebe87e2","","null","<img     src='G_3.jpg' height='90'> <img     src='G_4.jpg' height='90'> <img     src='G_7.jpg' height='90'> <img     src='G_1.jpg' height='90'> <img     src='G_8.jpg' height='90'> <img src='G_5.jpg' height='90'> <img src='G_2.jpg' height='90'> <img src='G_6.jpg' height='90'>","null","Animation1",""
"","","","","","html-keyboard-response","127","237399","0.0-87.0","55","1","2025-01-31 01:14:01","af8d355d56820e421d246a7037deb6e6","73.237.179.246","Mozilla/5.0 (Windows NT 10.0; Win64; x64) AppleWebKit/537.36 (KHTML, like Gecko) Chrome/132.0.0.0 Safari/537.36","WebKit","Chrome","132.0.0.0","Windows","10.0","https://app.prolific.com/","en-US,en;q=0.9,pt;q=0.8","678d97abed191932719e540e","67949641171f97c04e14fb34","679c23d41bb54623aebe87e2","","null","<img     src='G_3.jpg' height='90'> <img     src='G_4.jpg' height='90'> <img     src='G_7.jpg' height='90'> <img     src='G_1.jpg' height='90'> <img id='selected'     src='G_8.jpg' height='90'> <img src='G_5.jpg' height='90'> <img src='G_2.jpg' height='90'> <img src='G_6.jpg' height='90'>","null","Animation1",""
"","","","","","html-keyboard-response","128","237907","0.0-88.0","55","1","2025-01-31 01:14:01","af8d355d56820e421d246a7037deb6e6","73.237.179.246","Mozilla/5.0 (Windows NT 10.0; Win64; x64) AppleWebKit/537.36 (KHTML, like Gecko) Chrome/132.0.0.0 Safari/537.36","WebKit","Chrome","132.0.0.0","Windows","10.0","https://app.prolific.com/","en-US,en;q=0.9,pt;q=0.8","678d97abed191932719e540e","67949641171f97c04e14fb34","679c23d41bb54623aebe87e2","","null","<img     src='G_3.jpg' height='90'> <img     src='G_4.jpg' height='90'> <img     src='G_7.jpg' height='90'> <img     src='G_1.jpg' height='90'> <img id='selected'     src='G_8.jpg' height='90'> <img id='selected' src='G_5.jpg' height='90'> <img src='G_2.jpg' height='90'> <img src='G_6.jpg' height='90'>","null","Animation1",""
"","","","","","html-keyboard-response","129","238421","0.0-89.0","55","1","2025-01-31 01:14:01","af8d355d56820e421d246a7037deb6e6","73.237.179.246","Mozilla/5.0 (Windows NT 10.0; Win64; x64) AppleWebKit/537.36 (KHTML, like Gecko) Chrome/132.0.0.0 Safari/537.36","WebKit","Chrome","132.0.0.0","Windows","10.0","https://app.prolific.com/","en-US,en;q=0.9,pt;q=0.8","678d97abed191932719e540e","67949641171f97c04e14fb34","679c23d41bb54623aebe87e2","","null","<img     src='G_3.jpg' height='90'> <img     src='G_4.jpg' height='90'> <img     src='G_7.jpg' height='90'> <img     src='G_1.jpg' height='90'> <img id='swapped' src='G_5.jpg' height='90'> <img id='swapped'     src='G_8.jpg' height='90'> <img src='G_2.jpg' height='90'> <img src='G_6.jpg' height='90'>","null","Animation1",""
"","","","","","html-keyboard-response","130","238725","0.0-90.0","55","1","2025-01-31 01:14:01","af8d355d56820e421d246a7037deb6e6","73.237.179.246","Mozilla/5.0 (Windows NT 10.0; Win64; x64) AppleWebKit/537.36 (KHTML, like Gecko) Chrome/132.0.0.0 Safari/537.36","WebKit","Chrome","132.0.0.0","Windows","10.0","https://app.prolific.com/","en-US,en;q=0.9,pt;q=0.8","678d97abed191932719e540e","67949641171f97c04e14fb34","679c23d41bb54623aebe87e2","","null","<img     src='G_3.jpg' height='90'> <img     src='G_4.jpg' height='90'> <img     src='G_7.jpg' height='90'> <img     src='G_1.jpg' height='90'> <img  src='G_5.jpg' height='90'> <img      src='G_8.jpg' height='90'> <img src='G_2.jpg' height='90'> <img src='G_6.jpg' height='90'>","null","Animation1",""
"","","","","","html-keyboard-response","131","239235","0.0-91.0","55","1","2025-01-31 01:14:01","af8d355d56820e421d246a7037deb6e6","73.237.179.246","Mozilla/5.0 (Windows NT 10.0; Win64; x64) AppleWebKit/537.36 (KHTML, like Gecko) Chrome/132.0.0.0 Safari/537.36","WebKit","Chrome","132.0.0.0","Windows","10.0","https://app.prolific.com/","en-US,en;q=0.9,pt;q=0.8","678d97abed191932719e540e","67949641171f97c04e14fb34","679c23d41bb54623aebe87e2","","null","<img     src='G_3.jpg' height='90'> <img     src='G_4.jpg' height='90'> <img     src='G_7.jpg' height='90'> <img id='selected'     src='G_1.jpg' height='90'> <img  src='G_5.jpg' height='90'> <img      src='G_8.jpg' height='90'> <img src='G_2.jpg' height='90'> <img src='G_6.jpg' height='90'>","null","Animation1",""
"","","","","","html-keyboard-response","132","239742","0.0-92.0","55","1","2025-01-31 01:14:01","af8d355d56820e421d246a7037deb6e6","73.237.179.246","Mozilla/5.0 (Windows NT 10.0; Win64; x64) AppleWebKit/537.36 (KHTML, like Gecko) Chrome/132.0.0.0 Safari/537.36","WebKit","Chrome","132.0.0.0","Windows","10.0","https://app.prolific.com/","en-US,en;q=0.9,pt;q=0.8","678d97abed191932719e540e","67949641171f97c04e14fb34","679c23d41bb54623aebe87e2","","null","<img     src='G_3.jpg' height='90'> <img     src='G_4.jpg' height='90'> <img     src='G_7.jpg' height='90'> <img id='selected'     src='G_1.jpg' height='90'> <img id='selected'  src='G_5.jpg' height='90'> <img      src='G_8.jpg' height='90'> <img src='G_2.jpg' height='90'> <img src='G_6.jpg' height='90'>","null","Animation1",""
"","","","","","html-keyboard-response","133","240252","0.0-93.0","55","1","2025-01-31 01:14:01","af8d355d56820e421d246a7037deb6e6","73.237.179.246","Mozilla/5.0 (Windows NT 10.0; Win64; x64) AppleWebKit/537.36 (KHTML, like Gecko) Chrome/132.0.0.0 Safari/537.36","WebKit","Chrome","132.0.0.0","Windows","10.0","https://app.prolific.com/","en-US,en;q=0.9,pt;q=0.8","678d97abed191932719e540e","67949641171f97c04e14fb34","679c23d41bb54623aebe87e2","","null","<img     src='G_3.jpg' height='90'> <img     src='G_4.jpg' height='90'> <img     src='G_7.jpg' height='90'> <img id='selected'     src='G_1.jpg' height='90'> <img id='selected'  src='G_5.jpg' height='90'> <img      src='G_8.jpg' height='90'> <img src='G_2.jpg' height='90'> <img src='G_6.jpg' height='90'>","null","Animation1",""
"","","","","","html-keyboard-response","134","240559","0.0-94.0","55","1","2025-01-31 01:14:01","af8d355d56820e421d246a7037deb6e6","73.237.179.246","Mozilla/5.0 (Windows NT 10.0; Win64; x64) AppleWebKit/537.36 (KHTML, like Gecko) Chrome/132.0.0.0 Safari/537.36","WebKit","Chrome","132.0.0.0","Windows","10.0","https://app.prolific.com/","en-US,en;q=0.9,pt;q=0.8","678d97abed191932719e540e","67949641171f97c04e14fb34","679c23d41bb54623aebe87e2","","null","<img     src='G_3.jpg' height='90'> <img     src='G_4.jpg' height='90'> <img     src='G_7.jpg' height='90'> <img      src='G_1.jpg' height='90'> <img   src='G_5.jpg' height='90'> <img      src='G_8.jpg' height='90'> <img src='G_2.jpg' height='90'> <img src='G_6.jpg' height='90'>","null","Animation1",""
"","","","","","html-keyboard-response","135","241070","0.0-95.0","55","1","2025-01-31 01:14:01","af8d355d56820e421d246a7037deb6e6","73.237.179.246","Mozilla/5.0 (Windows NT 10.0; Win64; x64) AppleWebKit/537.36 (KHTML, like Gecko) Chrome/132.0.0.0 Safari/537.36","WebKit","Chrome","132.0.0.0","Windows","10.0","https://app.prolific.com/","en-US,en;q=0.9,pt;q=0.8","678d97abed191932719e540e","67949641171f97c04e14fb34","679c23d41bb54623aebe87e2","","null","<img     src='G_3.jpg' height='90'> <img     src='G_4.jpg' height='90'> <img     src='G_7.jpg' height='90'> <img      src='G_1.jpg' height='90'> <img   src='G_5.jpg' height='90'> <img id='selected'      src='G_8.jpg' height='90'> <img src='G_2.jpg' height='90'> <img src='G_6.jpg' height='90'>","null","Animation1",""
"","","","","","html-keyboard-response","136","241585","0.0-96.0","55","1","2025-01-31 01:14:01","af8d355d56820e421d246a7037deb6e6","73.237.179.246","Mozilla/5.0 (Windows NT 10.0; Win64; x64) AppleWebKit/537.36 (KHTML, like Gecko) Chrome/132.0.0.0 Safari/537.36","WebKit","Chrome","132.0.0.0","Windows","10.0","https://app.prolific.com/","en-US,en;q=0.9,pt;q=0.8","678d97abed191932719e540e","67949641171f97c04e14fb34","679c23d41bb54623aebe87e2","","null","<img     src='G_3.jpg' height='90'> <img     src='G_4.jpg' height='90'> <img     src='G_7.jpg' height='90'> <img      src='G_1.jpg' height='90'> <img   src='G_5.jpg' height='90'> <img id='selected'      src='G_8.jpg' height='90'> <img id='selected' src='G_2.jpg' height='90'> <img src='G_6.jpg' height='90'>","null","Animation1",""
"","","","","","html-keyboard-response","137","242093","0.0-97.0","55","1","2025-01-31 01:14:01","af8d355d56820e421d246a7037deb6e6","73.237.179.246","Mozilla/5.0 (Windows NT 10.0; Win64; x64) AppleWebKit/537.36 (KHTML, like Gecko) Chrome/132.0.0.0 Safari/537.36","WebKit","Chrome","132.0.0.0","Windows","10.0","https://app.prolific.com/","en-US,en;q=0.9,pt;q=0.8","678d97abed191932719e540e","67949641171f97c04e14fb34","679c23d41bb54623aebe87e2","","null","<img     src='G_3.jpg' height='90'> <img     src='G_4.jpg' height='90'> <img     src='G_7.jpg' height='90'> <img      src='G_1.jpg' height='90'> <img   src='G_5.jpg' height='90'> <img id='selected'      src='G_8.jpg' height='90'> <img id='selected' src='G_2.jpg' height='90'> <img src='G_6.jpg' height='90'>","null","Animation1",""
"","","","","","html-keyboard-response","138","242410","0.0-98.0","55","1","2025-01-31 01:14:01","af8d355d56820e421d246a7037deb6e6","73.237.179.246","Mozilla/5.0 (Windows NT 10.0; Win64; x64) AppleWebKit/537.36 (KHTML, like Gecko) Chrome/132.0.0.0 Safari/537.36","WebKit","Chrome","132.0.0.0","Windows","10.0","https://app.prolific.com/","en-US,en;q=0.9,pt;q=0.8","678d97abed191932719e540e","67949641171f97c04e14fb34","679c23d41bb54623aebe87e2","","null","<img     src='G_3.jpg' height='90'> <img     src='G_4.jpg' height='90'> <img     src='G_7.jpg' height='90'> <img      src='G_1.jpg' height='90'> <img   src='G_5.jpg' height='90'> <img       src='G_8.jpg' height='90'> <img  src='G_2.jpg' height='90'> <img src='G_6.jpg' height='90'>","null","Animation1",""
"","","","","","html-keyboard-response","139","242929","0.0-99.0","55","1","2025-01-31 01:14:01","af8d355d56820e421d246a7037deb6e6","73.237.179.246","Mozilla/5.0 (Windows NT 10.0; Win64; x64) AppleWebKit/537.36 (KHTML, like Gecko) Chrome/132.0.0.0 Safari/537.36","WebKit","Chrome","132.0.0.0","Windows","10.0","https://app.prolific.com/","en-US,en;q=0.9,pt;q=0.8","678d97abed191932719e540e","67949641171f97c04e14fb34","679c23d41bb54623aebe87e2","","null","<img     src='G_3.jpg' height='90'> <img     src='G_4.jpg' height='90'> <img     src='G_7.jpg' height='90'> <img      src='G_1.jpg' height='90'> <img   src='G_5.jpg' height='90'> <img       src='G_8.jpg' height='90'> <img id='selected'  src='G_2.jpg' height='90'> <img src='G_6.jpg' height='90'>","null","Animation1",""
"","","","","","html-keyboard-response","140","243440","0.0-100.0","55","1","2025-01-31 01:14:01","af8d355d56820e421d246a7037deb6e6","73.237.179.246","Mozilla/5.0 (Windows NT 10.0; Win64; x64) AppleWebKit/537.36 (KHTML, like Gecko) Chrome/132.0.0.0 Safari/537.36","WebKit","Chrome","132.0.0.0","Windows","10.0","https://app.prolific.com/","en-US,en;q=0.9,pt;q=0.8","678d97abed191932719e540e","67949641171f97c04e14fb34","679c23d41bb54623aebe87e2","","null","<img     src='G_3.jpg' height='90'> <img     src='G_4.jpg' height='90'> <img     src='G_7.jpg' height='90'> <img      src='G_1.jpg' height='90'> <img   src='G_5.jpg' height='90'> <img       src='G_8.jpg' height='90'> <img id='selected'  src='G_2.jpg' height='90'> <img id='selected' src='G_6.jpg' height='90'>","null","Animation1",""
"","","","","","html-keyboard-response","141","243950","0.0-101.0","55","1","2025-01-31 01:14:01","af8d355d56820e421d246a7037deb6e6","73.237.179.246","Mozilla/5.0 (Windows NT 10.0; Win64; x64) AppleWebKit/537.36 (KHTML, like Gecko) Chrome/132.0.0.0 Safari/537.36","WebKit","Chrome","132.0.0.0","Windows","10.0","https://app.prolific.com/","en-US,en;q=0.9,pt;q=0.8","678d97abed191932719e540e","67949641171f97c04e14fb34","679c23d41bb54623aebe87e2","","null","<img     src='G_3.jpg' height='90'> <img     src='G_4.jpg' height='90'> <img     src='G_7.jpg' height='90'> <img      src='G_1.jpg' height='90'> <img   src='G_5.jpg' height='90'> <img       src='G_8.jpg' height='90'> <img id='swapped' src='G_6.jpg' height='90'> <img id='swapped'  src='G_2.jpg' height='90'>","null","Animation1",""
"","","","","","html-keyboard-response","142","244269","0.0-102.0","55","1","2025-01-31 01:14:01","af8d355d56820e421d246a7037deb6e6","73.237.179.246","Mozilla/5.0 (Windows NT 10.0; Win64; x64) AppleWebKit/537.36 (KHTML, like Gecko) Chrome/132.0.0.0 Safari/537.36","WebKit","Chrome","132.0.0.0","Windows","10.0","https://app.prolific.com/","en-US,en;q=0.9,pt;q=0.8","678d97abed191932719e540e","67949641171f97c04e14fb34","679c23d41bb54623aebe87e2","","null","<img     src='G_3.jpg' height='90'> <img     src='G_4.jpg' height='90'> <img     src='G_7.jpg' height='90'> <img      src='G_1.jpg' height='90'> <img   src='G_5.jpg' height='90'> <img       src='G_8.jpg' height='90'> <img  src='G_6.jpg' height='90'> <img   src='G_2.jpg' height='90'>","null","Animation1",""
"","","","","","html-keyboard-response","143","244774","0.0-103.0","55","1","2025-01-31 01:14:01","af8d355d56820e421d246a7037deb6e6","73.237.179.246","Mozilla/5.0 (Windows NT 10.0; Win64; x64) AppleWebKit/537.36 (KHTML, like Gecko) Chrome/132.0.0.0 Safari/537.36","WebKit","Chrome","132.0.0.0","Windows","10.0","https://app.prolific.com/","en-US,en;q=0.9,pt;q=0.8","678d97abed191932719e540e","67949641171f97c04e14fb34","679c23d41bb54623aebe87e2","","null","<img     src='G_3.jpg' height='90'> <img     src='G_4.jpg' height='90'> <img     src='G_7.jpg' height='90'> <img      src='G_1.jpg' height='90'> <img   src='G_5.jpg' height='90'> <img id='selected'       src='G_8.jpg' height='90'> <img  src='G_6.jpg' height='90'> <img   src='G_2.jpg' height='90'>","null","Animation1",""
"","","","","","html-keyboard-response","144","245295","0.0-104.0","55","1","2025-01-31 01:14:01","af8d355d56820e421d246a7037deb6e6","73.237.179.246","Mozilla/5.0 (Windows NT 10.0; Win64; x64) AppleWebKit/537.36 (KHTML, like Gecko) Chrome/132.0.0.0 Safari/537.36","WebKit","Chrome","132.0.0.0","Windows","10.0","https://app.prolific.com/","en-US,en;q=0.9,pt;q=0.8","678d97abed191932719e540e","67949641171f97c04e14fb34","679c23d41bb54623aebe87e2","","null","<img     src='G_3.jpg' height='90'> <img     src='G_4.jpg' height='90'> <img     src='G_7.jpg' height='90'> <img      src='G_1.jpg' height='90'> <img   src='G_5.jpg' height='90'> <img id='selected'       src='G_8.jpg' height='90'> <img id='selected'  src='G_6.jpg' height='90'> <img   src='G_2.jpg' height='90'>","null","Animation1",""
"","","","","","html-keyboard-response","145","245814","0.0-105.0","55","1","2025-01-31 01:14:01","af8d355d56820e421d246a7037deb6e6","73.237.179.246","Mozilla/5.0 (Windows NT 10.0; Win64; x64) AppleWebKit/537.36 (KHTML, like Gecko) Chrome/132.0.0.0 Safari/537.36","WebKit","Chrome","132.0.0.0","Windows","10.0","https://app.prolific.com/","en-US,en;q=0.9,pt;q=0.8","678d97abed191932719e540e","67949641171f97c04e14fb34","679c23d41bb54623aebe87e2","","null","<img     src='G_3.jpg' height='90'> <img     src='G_4.jpg' height='90'> <img     src='G_7.jpg' height='90'> <img      src='G_1.jpg' height='90'> <img   src='G_5.jpg' height='90'> <img id='selected'       src='G_8.jpg' height='90'> <img id='selected'  src='G_6.jpg' height='90'> <img   src='G_2.jpg' height='90'>","null","Animation1",""
"","","","","","html-keyboard-response","146","246130","0.0-106.0","55","1","2025-01-31 01:14:01","af8d355d56820e421d246a7037deb6e6","73.237.179.246","Mozilla/5.0 (Windows NT 10.0; Win64; x64) AppleWebKit/537.36 (KHTML, like Gecko) Chrome/132.0.0.0 Safari/537.36","WebKit","Chrome","132.0.0.0","Windows","10.0","https://app.prolific.com/","en-US,en;q=0.9,pt;q=0.8","678d97abed191932719e540e","67949641171f97c04e14fb34","679c23d41bb54623aebe87e2","","null","<img     src='G_3.jpg' height='90'> <img     src='G_4.jpg' height='90'> <img     src='G_7.jpg' height='90'> <img      src='G_1.jpg' height='90'> <img   src='G_5.jpg' height='90'> <img        src='G_8.jpg' height='90'> <img   src='G_6.jpg' height='90'> <img   src='G_2.jpg' height='90'>","null","Animation1",""
"","","","","","html-keyboard-response","147","249253","0.0-107.0","55","1","2025-01-31 01:14:01","af8d355d56820e421d246a7037deb6e6","73.237.179.246","Mozilla/5.0 (Windows NT 10.0; Win64; x64) AppleWebKit/537.36 (KHTML, like Gecko) Chrome/132.0.0.0 Safari/537.36","WebKit","Chrome","132.0.0.0","Windows","10.0","https://app.prolific.com/","en-US,en;q=0.9,pt;q=0.8","678d97abed191932719e540e","67949641171f97c04e14fb34","679c23d41bb54623aebe87e2","","3119","[""Did you notice any patterns? <br><br>Press Enter to watch that example again and follow the steps of Omgne Sort.""]","enter","",""
"","","","","","html-button-response","148","249660","0.0-108.0","55","1","2025-01-31 01:14:01","af8d355d56820e421d246a7037deb6e6","73.237.179.246","Mozilla/5.0 (Windows NT 10.0; Win64; x64) AppleWebKit/537.36 (KHTML, like Gecko) Chrome/132.0.0.0 Safari/537.36","WebKit","Chrome","132.0.0.0","Windows","10.0","https://app.prolific.com/","en-US,en;q=0.9,pt;q=0.8","678d97abed191932719e540e","67949641171f97c04e14fb34","679c23d41bb54623aebe87e2","","null","<img id='selected' src='G_1.jpg' height='90'> <img src='G_8.jpg' height='90'> <img src='G_7.jpg' height='90'> <img src='G_3.jpg' height='90'> <img src='G_4.jpg' height='90'> <img src='G_5.jpg' height='90'> <img src='G_2.jpg' height='90'> <img src='G_6.jpg' height='90'>","null","Learning example 1",""
"","","","","","html-button-response","149","249976","0.0-109.0","55","1","2025-01-31 01:14:01","af8d355d56820e421d246a7037deb6e6","73.237.179.246","Mozilla/5.0 (Windows NT 10.0; Win64; x64) AppleWebKit/537.36 (KHTML, like Gecko) Chrome/132.0.0.0 Safari/537.36","WebKit","Chrome","132.0.0.0","Windows","10.0","https://app.prolific.com/","en-US,en;q=0.9,pt;q=0.8","678d97abed191932719e540e","67949641171f97c04e14fb34","679c23d41bb54623aebe87e2","","null","<img id='selected' src='G_1.jpg' height='90'> <img id='selected' src='G_8.jpg' height='90'> <img src='G_7.jpg' height='90'> <img src='G_3.jpg' height='90'> <img src='G_4.jpg' height='90'> <img src='G_5.jpg' height='90'> <img src='G_2.jpg' height='90'> <img src='G_6.jpg' height='90'>","null","Learning example 1",""
