"success","timeout","failed_images","failed_audio","failed_video","trial_type","trial_index","time_elapsed","internal_node_id","run_id","condition","recorded_at","source_code_version","ip","user_agent","device","browser","browser_version","platform","platform_version","referer","accept_language","PROLIFIC_PID","STUDY_ID","SESSION_ID","view_history","rt","stimulus","response","phase","question_order"
"true","false","[]","[]","[]","preload","0","105","0.0-0.0","56","1","2025-01-31 01:14:23","af8d355d56820e421d246a7037deb6e6","47.230.12.148","Mozilla/5.0 (Windows NT 10.0; Win64; x64) AppleWebKit/537.36 (KHTML, like Gecko) Chrome/132.0.0.0 Safari/537.36","WebKit","Chrome","132.0.0.0","Windows","10.0","https://app.prolific.com/","en-US,en;q=0.9","678f1df528b89f7aa06b930e","67949641171f97c04e14fb34","679c23d6ea31c37473567d34","","","","","",""
"","","","","","instructions","1","8280","0.0-1.0","56","1","2025-01-31 01:14:23","af8d355d56820e421d246a7037deb6e6","47.230.12.148","Mozilla/5.0 (Windows NT 10.0; Win64; x64) AppleWebKit/537.36 (KHTML, like Gecko) Chrome/132.0.0.0 Safari/537.36","WebKit","Chrome","132.0.0.0","Windows","10.0","https://app.prolific.com/","en-US,en;q=0.9","678f1df528b89f7aa06b930e","67949641171f97c04e14fb34","679c23d6ea31c37473567d34","[{""page_index"":0,""viewing_time"":8174}]","8174","","","",""
"","","","","","html-keyboard-response","2","8790","0.0-2.0","56","1","2025-01-31 01:14:23","af8d355d56820e421d246a7037deb6e6","47.230.12.148","Mozilla/5.0 (Windows NT 10.0; Win64; x64) AppleWebKit/537.36 (KHTML, like Gecko) Chrome/132.0.0.0 Safari/537.36","WebKit","Chrome","132.0.0.0","Windows","10.0","https://app.prolific.com/","en-US,en;q=0.9","678f1df528b89f7aa06b930e","67949641171f97c04e14fb34","679c23d6ea31c37473567d34","","null","<p> + <p/>","null","",""
"","","","","","instructions","3","35480","0.0-3.0","56","1","2025-01-31 01:14:23","af8d355d56820e421d246a7037deb6e6","47.230.12.148","Mozilla/5.0 (Windows NT 10.0; Win64; x64) AppleWebKit/537.36 (KHTML, like Gecko) Chrome/132.0.0.0 Safari/537.36","WebKit","Chrome","132.0.0.0","Windows","10.0","https://app.prolific.com/","en-US,en;q=0.9","678f1df528b89f7aa06b930e","67949641171f97c04e14fb34","679c23d6ea31c37473567d34","[{""page_index"":0,""viewing_time"":2874},{""page_index"":1,""viewing_time"":6000},{""page_index"":2,""viewing_time"":6112},{""page_index"":3,""viewing_time"":4888},{""page_index"":4,""viewing_time"":6816}]","26690","","","",""
"","","","","","html-button-response","4","44583","0.0-4.0-0.0-0.0","56","1","2025-01-31 01:14:23","af8d355d56820e421d246a7037deb6e6","47.230.12.148","Mozilla/5.0 (Windows NT 10.0; Win64; x64) AppleWebKit/537.36 (KHTML, like Gecko) Chrome/132.0.0.0 Safari/537.36","WebKit","Chrome","132.0.0.0","Windows","10.0","https://app.prolific.com/","en-US,en;q=0.9","678f1df528b89f7aa06b930e","67949641171f97c04e14fb34","679c23d6ea31c37473567d34","","9101","","2","Intro Trial",""
"","","","","","html-button-response","5","45340","0.0-4.1-0.1-0.1","56","1","2025-01-31 01:14:23","af8d355d56820e421d246a7037deb6e6","47.230.12.148","Mozilla/5.0 (Windows NT 10.0; Win64; x64) AppleWebKit/537.36 (KHTML, like Gecko) Chrome/132.0.0.0 Safari/537.36","WebKit","Chrome","132.0.0.0","Windows","10.0","https://app.prolific.com/","en-US,en;q=0.9","678f1df528b89f7aa06b930e","67949641171f97c04e14fb34","679c23d6ea31c37473567d34","","756","","4","Intro Trial",""
"","","","","","html-button-response","6","47994","0.0-4.2-0.2-0.2","56","1","2025-01-31 01:14:23","af8d355d56820e421d246a7037deb6e6","47.230.12.148","Mozilla/5.0 (Windows NT 10.0; Win64; x64) AppleWebKit/537.36 (KHTML, like Gecko) Chrome/132.0.0.0 Safari/537.36","WebKit","Chrome","132.0.0.0","Windows","10.0","https://app.prolific.com/","en-US,en;q=0.9","678f1df528b89f7aa06b930e","67949641171f97c04e14fb34","679c23d6ea31c37473567d34","","2653","","0","Intro Trial",""
"","","","","","html-button-response","7","48365","0.0-4.3-0.3-0.3","56","1","2025-01-31 01:14:23","af8d355d56820e421d246a7037deb6e6","47.230.12.148","Mozilla/5.0 (Windows NT 10.0; Win64; x64) AppleWebKit/537.36 (KHTML, like Gecko) Chrome/132.0.0.0 Safari/537.36","WebKit","Chrome","132.0.0.0","Windows","10.0","https://app.prolific.com/","en-US,en;q=0.9","678f1df528b89f7aa06b930e","67949641171f97c04e14fb34","679c23d6ea31c37473567d34","","371","","1","Intro Trial",""
"","","","","","html-button-response","8","49300","0.0-4.4-0.4-0.4","56","1","2025-01-31 01:14:23","af8d355d56820e421d246a7037deb6e6","47.230.12.148","Mozilla/5.0 (Windows NT 10.0; Win64; x64) AppleWebKit/537.36 (KHTML, like Gecko) Chrome/132.0.0.0 Safari/537.36","WebKit","Chrome","132.0.0.0","Windows","10.0","https://app.prolific.com/","en-US,en;q=0.9","678f1df528b89f7aa06b930e","67949641171f97c04e14fb34","679c23d6ea31c37473567d34","","934","","0","Intro Trial",""
"","","","","","html-button-response","9","49924","0.0-4.5-0.5-0.5","56","1","2025-01-31 01:14:23","af8d355d56820e421d246a7037deb6e6","47.230.12.148","Mozilla/5.0 (Windows NT 10.0; Win64; x64) AppleWebKit/537.36 (KHTML, like Gecko) Chrome/132.0.0.0 Safari/537.36","WebKit","Chrome","132.0.0.0","Windows","10.0","https://app.prolific.com/","en-US,en;q=0.9","678f1df528b89f7aa06b930e","67949641171f97c04e14fb34","679c23d6ea31c37473567d34","","623","","1","Intro Trial",""
"","","","","","html-button-response","10","50636","0.0-4.6-0.6-0.6","56","1","2025-01-31 01:14:23","af8d355d56820e421d246a7037deb6e6","47.230.12.148","Mozilla/5.0 (Windows NT 10.0; Win64; x64) AppleWebKit/537.36 (KHTML, like Gecko) Chrome/132.0.0.0 Safari/537.36","WebKit","Chrome","132.0.0.0","Windows","10.0","https://app.prolific.com/","en-US,en;q=0.9","678f1df528b89f7aa06b930e","67949641171f97c04e14fb34","679c23d6ea31c37473567d34","","711","","1","Intro Trial",""
"","","","","","html-button-response","11","52284","0.0-4.7-0.7-0.7","56","1","2025-01-31 01:14:23","af8d355d56820e421d246a7037deb6e6","47.230.12.148","Mozilla/5.0 (Windows NT 10.0; Win64; x64) AppleWebKit/537.36 (KHTML, like Gecko) Chrome/132.0.0.0 Safari/537.36","WebKit","Chrome","132.0.0.0","Windows","10.0","https://app.prolific.com/","en-US,en;q=0.9","678f1df528b89f7aa06b930e","67949641171f97c04e14fb34","679c23d6ea31c37473567d34","","1647","","3","Intro Trial",""
"","","","","","html-button-response","12","53146","0.0-4.8-0.8-0.8","56","1","2025-01-31 01:14:23","af8d355d56820e421d246a7037deb6e6","47.230.12.148","Mozilla/5.0 (Windows NT 10.0; Win64; x64) AppleWebKit/537.36 (KHTML, like Gecko) Chrome/132.0.0.0 Safari/537.36","WebKit","Chrome","132.0.0.0","Windows","10.0","https://app.prolific.com/","en-US,en;q=0.9","678f1df528b89f7aa06b930e","67949641171f97c04e14fb34","679c23d6ea31c37473567d34","","861","","1","Intro Trial",""
"","","","","","html-button-response","13","54570","0.0-4.9-0.9-0.9","56","1","2025-01-31 01:14:23","af8d355d56820e421d246a7037deb6e6","47.230.12.148","Mozilla/5.0 (Windows NT 10.0; Win64; x64) AppleWebKit/537.36 (KHTML, like Gecko) Chrome/132.0.0.0 Safari/537.36","WebKit","Chrome","132.0.0.0","Windows","10.0","https://app.prolific.com/","en-US,en;q=0.9","678f1df528b89f7aa06b930e","67949641171f97c04e14fb34","679c23d6ea31c37473567d34","","1423","","1","Intro Trial",""
"","","","","","html-button-response","14","54957","0.0-4.10-0.10-0.10","56","1","2025-01-31 01:14:23","af8d355d56820e421d246a7037deb6e6","47.230.12.148","Mozilla/5.0 (Windows NT 10.0; Win64; x64) AppleWebKit/537.36 (KHTML, like Gecko) Chrome/132.0.0.0 Safari/537.36","WebKit","Chrome","132.0.0.0","Windows","10.0","https://app.prolific.com/","en-US,en;q=0.9","678f1df528b89f7aa06b930e","67949641171f97c04e14fb34","679c23d6ea31c37473567d34","","386","","2","Intro Trial",""
"","","","","","html-button-response","15","55275","0.0-4.11-0.11-0.11","56","1","2025-01-31 01:14:23","af8d355d56820e421d246a7037deb6e6","47.230.12.148","Mozilla/5.0 (Windows NT 10.0; Win64; x64) AppleWebKit/537.36 (KHTML, like Gecko) Chrome/132.0.0.0 Safari/537.36","WebKit","Chrome","132.0.0.0","Windows","10.0","https://app.prolific.com/","en-US,en;q=0.9","678f1df528b89f7aa06b930e","67949641171f97c04e14fb34","679c23d6ea31c37473567d34","","317","","3","Intro Trial",""
"","","","","","html-button-response","16","55866","0.0-4.12-0.12-0.12","56","1","2025-01-31 01:14:23","af8d355d56820e421d246a7037deb6e6","47.230.12.148","Mozilla/5.0 (Windows NT 10.0; Win64; x64) AppleWebKit/537.36 (KHTML, like Gecko) Chrome/132.0.0.0 Safari/537.36","WebKit","Chrome","132.0.0.0","Windows","10.0","https://app.prolific.com/","en-US,en;q=0.9","678f1df528b89f7aa06b930e","67949641171f97c04e14fb34","679c23d6ea31c37473567d34","","590","","2","Intro Trial",""
"","","","","","html-button-response","17","56237","0.0-4.13-0.13-0.13","56","1","2025-01-31 01:14:23","af8d355d56820e421d246a7037deb6e6","47.230.12.148","Mozilla/5.0 (Windows NT 10.0; Win64; x64) AppleWebKit/537.36 (KHTML, like Gecko) Chrome/132.0.0.0 Safari/537.36","WebKit","Chrome","132.0.0.0","Windows","10.0","https://app.prolific.com/","en-US,en;q=0.9","678f1df528b89f7aa06b930e","67949641171f97c04e14fb34","679c23d6ea31c37473567d34","","369","","4","Intro Trial",""
"","","","","","html-button-response","18","56647","0.0-4.14-0.14-0.14","56","1","2025-01-31 01:14:23","af8d355d56820e421d246a7037deb6e6","47.230.12.148","Mozilla/5.0 (Windows NT 10.0; Win64; x64) AppleWebKit/537.36 (KHTML, like Gecko) Chrome/132.0.0.0 Safari/537.36","WebKit","Chrome","132.0.0.0","Windows","10.0","https://app.prolific.com/","en-US,en;q=0.9","678f1df528b89f7aa06b930e","67949641171f97c04e14fb34","679c23d6ea31c37473567d34","","410","","3","Intro Trial",""
"","","","","","html-button-response","19","57003","0.0-4.15-0.15-0.15","56","1","2025-01-31 01:14:23","af8d355d56820e421d246a7037deb6e6","47.230.12.148","Mozilla/5.0 (Windows NT 10.0; Win64; x64) AppleWebKit/537.36 (KHTML, like Gecko) Chrome/132.0.0.0 Safari/537.36","WebKit","Chrome","132.0.0.0","Windows","10.0","https://app.prolific.com/","en-US,en;q=0.9","678f1df528b89f7aa06b930e","67949641171f97c04e14fb34","679c23d6ea31c37473567d34","","355","","4","Intro Trial",""
"","","","","","html-button-response","20","57875","0.0-4.16-0.16-0.16","56","1","2025-01-31 01:14:23","af8d355d56820e421d246a7037deb6e6","47.230.12.148","Mozilla/5.0 (Windows NT 10.0; Win64; x64) AppleWebKit/537.36 (KHTML, like Gecko) Chrome/132.0.0.0 Safari/537.36","WebKit","Chrome","132.0.0.0","Windows","10.0","https://app.prolific.com/","en-US,en;q=0.9","678f1df528b89f7aa06b930e","67949641171f97c04e14fb34","679c23d6ea31c37473567d34","","871","","3","Intro Trial",""
"","","","","","html-button-response","21","58225","0.0-4.17-0.17-0.17","56","1","2025-01-31 01:14:23","af8d355d56820e421d246a7037deb6e6","47.230.12.148","Mozilla/5.0 (Windows NT 10.0; Win64; x64) AppleWebKit/537.36 (KHTML, like Gecko) Chrome/132.0.0.0 Safari/537.36","WebKit","Chrome","132.0.0.0","Windows","10.0","https://app.prolific.com/","en-US,en;q=0.9","678f1df528b89f7aa06b930e","67949641171f97c04e14fb34","679c23d6ea31c37473567d34","","349","","4","Intro Trial",""
"","","","","","html-button-response","22","60129","0.0-4.18-0.18-0.18","56","1","2025-01-31 01:14:23","af8d355d56820e421d246a7037deb6e6","47.230.12.148","Mozilla/5.0 (Windows NT 10.0; Win64; x64) AppleWebKit/537.36 (KHTML, like Gecko) Chrome/132.0.0.0 Safari/537.36","WebKit","Chrome","132.0.0.0","Windows","10.0","https://app.prolific.com/","en-US,en;q=0.9","678f1df528b89f7aa06b930e","67949641171f97c04e14fb34","679c23d6ea31c37473567d34","","1903","","4","Intro Trial",""
"","","","","","html-button-response","23","60440","0.0-4.19-0.19-0.19","56","1","2025-01-31 01:14:23","af8d355d56820e421d246a7037deb6e6","47.230.12.148","Mozilla/5.0 (Windows NT 10.0; Win64; x64) AppleWebKit/537.36 (KHTML, like Gecko) Chrome/132.0.0.0 Safari/537.36","WebKit","Chrome","132.0.0.0","Windows","10.0","https://app.prolific.com/","en-US,en;q=0.9","678f1df528b89f7aa06b930e","67949641171f97c04e14fb34","679c23d6ea31c37473567d34","","311","","3","Intro Trial",""
"","","","","","html-button-response","24","61210","0.0-4.20-0.20-0.20","56","1","2025-01-31 01:14:23","af8d355d56820e421d246a7037deb6e6","47.230.12.148","Mozilla/5.0 (Windows NT 10.0; Win64; x64) AppleWebKit/537.36 (KHTML, like Gecko) Chrome/132.0.0.0 Safari/537.36","WebKit","Chrome","132.0.0.0","Windows","10.0","https://app.prolific.com/","en-US,en;q=0.9","678f1df528b89f7aa06b930e","67949641171f97c04e14fb34","679c23d6ea31c37473567d34","","768","","2","Intro Trial",""
"","","","","","html-button-response","25","61581","0.0-4.21-0.21-0.21","56","1","2025-01-31 01:14:23","af8d355d56820e421d246a7037deb6e6","47.230.12.148","Mozilla/5.0 (Windows NT 10.0; Win64; x64) AppleWebKit/537.36 (KHTML, like Gecko) Chrome/132.0.0.0 Safari/537.36","WebKit","Chrome","132.0.0.0","Windows","10.0","https://app.prolific.com/","en-US,en;q=0.9","678f1df528b89f7aa06b930e","67949641171f97c04e14fb34","679c23d6ea31c37473567d34","","370","","4","Intro Trial",""
"","","","","","html-button-response","26","61952","0.0-4.22-0.22-0.22","56","1","2025-01-31 01:14:23","af8d355d56820e421d246a7037deb6e6","47.230.12.148","Mozilla/5.0 (Windows NT 10.0; Win64; x64) AppleWebKit/537.36 (KHTML, like Gecko) Chrome/132.0.0.0 Safari/537.36","WebKit","Chrome","132.0.0.0","Windows","10.0","https://app.prolific.com/","en-US,en;q=0.9","678f1df528b89f7aa06b930e","67949641171f97c04e14fb34","679c23d6ea31c37473567d34","","370","","1","Intro Trial",""
"","","","","","html-button-response","27","62517","0.0-4.23-0.23-0.23","56","1","2025-01-31 01:14:23","af8d355d56820e421d246a7037deb6e6","47.230.12.148","Mozilla/5.0 (Windows NT 10.0; Win64; x64) AppleWebKit/537.36 (KHTML, like Gecko) Chrome/132.0.0.0 Safari/537.36","WebKit","Chrome","132.0.0.0","Windows","10.0","https://app.prolific.com/","en-US,en;q=0.9","678f1df528b89f7aa06b930e","67949641171f97c04e14fb34","679c23d6ea31c37473567d34","","563","","4","Intro Trial",""
"","","","","","html-button-response","28","62951","0.0-4.24-0.24-0.24","56","1","2025-01-31 01:14:23","af8d355d56820e421d246a7037deb6e6","47.230.12.148","Mozilla/5.0 (Windows NT 10.0; Win64; x64) AppleWebKit/537.36 (KHTML, like Gecko) Chrome/132.0.0.0 Safari/537.36","WebKit","Chrome","132.0.0.0","Windows","10.0","https://app.prolific.com/","en-US,en;q=0.9","678f1df528b89f7aa06b930e","67949641171f97c04e14fb34","679c23d6ea31c37473567d34","","433","","0","Intro Trial",""
"","","","","","html-button-response","29","64007","0.0-4.25-0.25-0.25","56","1","2025-01-31 01:14:23","af8d355d56820e421d246a7037deb6e6","47.230.12.148","Mozilla/5.0 (Windows NT 10.0; Win64; x64) AppleWebKit/537.36 (KHTML, like Gecko) Chrome/132.0.0.0 Safari/537.36","WebKit","Chrome","132.0.0.0","Windows","10.0","https://app.prolific.com/","en-US,en;q=0.9","678f1df528b89f7aa06b930e","67949641171f97c04e14fb34","679c23d6ea31c37473567d34","","1056","","1","Intro Trial",""
"","","","","","html-button-response","30","64370","0.0-4.26-0.26-0.26","56","1","2025-01-31 01:14:23","af8d355d56820e421d246a7037deb6e6","47.230.12.148","Mozilla/5.0 (Windows NT 10.0; Win64; x64) AppleWebKit/537.36 (KHTML, like Gecko) Chrome/132.0.0.0 Safari/537.36","WebKit","Chrome","132.0.0.0","Windows","10.0","https://app.prolific.com/","en-US,en;q=0.9","678f1df528b89f7aa06b930e","67949641171f97c04e14fb34","679c23d6ea31c37473567d34","","361","","0","Intro Trial",""
"","","","","","html-button-response","31","64718","0.0-4.27-0.27-0.27","56","1","2025-01-31 01:14:23","af8d355d56820e421d246a7037deb6e6","47.230.12.148","Mozilla/5.0 (Windows NT 10.0; Win64; x64) AppleWebKit/537.36 (KHTML, like Gecko) Chrome/132.0.0.0 Safari/537.36","WebKit","Chrome","132.0.0.0","Windows","10.0","https://app.prolific.com/","en-US,en;q=0.9","678f1df528b89f7aa06b930e","67949641171f97c04e14fb34","679c23d6ea31c37473567d34","","347","","2","Intro Trial",""
"","","","","","html-button-response","32","65128","0.0-4.28-0.28-0.28","56","1","2025-01-31 01:14:23","af8d355d56820e421d246a7037deb6e6","47.230.12.148","Mozilla/5.0 (Windows NT 10.0; Win64; x64) AppleWebKit/537.36 (KHTML, like Gecko) Chrome/132.0.0.0 Safari/537.36","WebKit","Chrome","132.0.0.0","Windows","10.0","https://app.prolific.com/","en-US,en;q=0.9","678f1df528b89f7aa06b930e","67949641171f97c04e14fb34","679c23d6ea31c37473567d34","","409","","0","Intro Trial",""
"","","","","","html-button-response","33","66162","0.0-4.29-0.29-0.29","56","1","2025-01-31 01:14:23","af8d355d56820e421d246a7037deb6e6","47.230.12.148","Mozilla/5.0 (Windows NT 10.0; Win64; x64) AppleWebKit/537.36 (KHTML, like Gecko) Chrome/132.0.0.0 Safari/537.36","WebKit","Chrome","132.0.0.0","Windows","10.0","https://app.prolific.com/","en-US,en;q=0.9","678f1df528b89f7aa06b930e","67949641171f97c04e14fb34","679c23d6ea31c37473567d34","","1033","","3","Intro Trial",""
"","","","","","html-button-response","34","66591","0.0-4.30-0.30-0.30","56","1","2025-01-31 01:14:23","af8d355d56820e421d246a7037deb6e6","47.230.12.148","Mozilla/5.0 (Windows NT 10.0; Win64; x64) AppleWebKit/537.36 (KHTML, like Gecko) Chrome/132.0.0.0 Safari/537.36","WebKit","Chrome","132.0.0.0","Windows","10.0","https://app.prolific.com/","en-US,en;q=0.9","678f1df528b89f7aa06b930e","67949641171f97c04e14fb34","679c23d6ea31c37473567d34","","427","","0","Intro Trial",""
"","","","","","html-button-response","35","67182","0.0-4.31-0.31-0.31","56","1","2025-01-31 01:14:23","af8d355d56820e421d246a7037deb6e6","47.230.12.148","Mozilla/5.0 (Windows NT 10.0; Win64; x64) AppleWebKit/537.36 (KHTML, like Gecko) Chrome/132.0.0.0 Safari/537.36","WebKit","Chrome","132.0.0.0","Windows","10.0","https://app.prolific.com/","en-US,en;q=0.9","678f1df528b89f7aa06b930e","67949641171f97c04e14fb34","679c23d6ea31c37473567d34","","591","","4","Intro Trial",""
"","","","","","html-button-response","36","67935","0.0-4.32-0.32-0.32","56","1","2025-01-31 01:14:23","af8d355d56820e421d246a7037deb6e6","47.230.12.148","Mozilla/5.0 (Windows NT 10.0; Win64; x64) AppleWebKit/537.36 (KHTML, like Gecko) Chrome/132.0.0.0 Safari/537.36","WebKit","Chrome","132.0.0.0","Windows","10.0","https://app.prolific.com/","en-US,en;q=0.9","678f1df528b89f7aa06b930e","67949641171f97c04e14fb34","679c23d6ea31c37473567d34","","752","","0","Intro Trial",""
"","","","","","html-button-response","37","68263","0.0-4.33-0.33-0.33","56","1","2025-01-31 01:14:23","af8d355d56820e421d246a7037deb6e6","47.230.12.148","Mozilla/5.0 (Windows NT 10.0; Win64; x64) AppleWebKit/537.36 (KHTML, like Gecko) Chrome/132.0.0.0 Safari/537.36","WebKit","Chrome","132.0.0.0","Windows","10.0","https://app.prolific.com/","en-US,en;q=0.9","678f1df528b89f7aa06b930e","67949641171f97c04e14fb34","679c23d6ea31c37473567d34","","327","","1","Intro Trial",""
"","","","","","html-button-response","38","68943","0.0-4.34-0.34-0.34","56","1","2025-01-31 01:14:23","af8d355d56820e421d246a7037deb6e6","47.230.12.148","Mozilla/5.0 (Windows NT 10.0; Win64; x64) AppleWebKit/537.36 (KHTML, like Gecko) Chrome/132.0.0.0 Safari/537.36","WebKit","Chrome","132.0.0.0","Windows","10.0","https://app.prolific.com/","en-US,en;q=0.9","678f1df528b89f7aa06b930e","67949641171f97c04e14fb34","679c23d6ea31c37473567d34","","678","","1","Intro Trial",""
"","","","","","html-button-response","39","69225","0.0-4.35-0.35-0.35","56","1","2025-01-31 01:14:23","af8d355d56820e421d246a7037deb6e6","47.230.12.148","Mozilla/5.0 (Windows NT 10.0; Win64; x64) AppleWebKit/537.36 (KHTML, like Gecko) Chrome/132.0.0.0 Safari/537.36","WebKit","Chrome","132.0.0.0","Windows","10.0","https://app.prolific.com/","en-US,en;q=0.9","678f1df528b89f7aa06b930e","67949641171f97c04e14fb34","679c23d6ea31c37473567d34","","282","","0","Intro Trial",""
"","","","","","html-button-response","40","69690","0.0-4.36-0.36-0.36","56","1","2025-01-31 01:14:23","af8d355d56820e421d246a7037deb6e6","47.230.12.148","Mozilla/5.0 (Windows NT 10.0; Win64; x64) AppleWebKit/537.36 (KHTML, like Gecko) Chrome/132.0.0.0 Safari/537.36","WebKit","Chrome","132.0.0.0","Windows","10.0","https://app.prolific.com/","en-US,en;q=0.9","678f1df528b89f7aa06b930e","67949641171f97c04e14fb34","679c23d6ea31c37473567d34","","464","","2","Intro Trial",""
"","","","","","html-button-response","41","70034","0.0-4.37-0.37-0.37","56","1","2025-01-31 01:14:23","af8d355d56820e421d246a7037deb6e6","47.230.12.148","Mozilla/5.0 (Windows NT 10.0; Win64; x64) AppleWebKit/537.36 (KHTML, like Gecko) Chrome/132.0.0.0 Safari/537.36","WebKit","Chrome","132.0.0.0","Windows","10.0","https://app.prolific.com/","en-US,en;q=0.9","678f1df528b89f7aa06b930e","67949641171f97c04e14fb34","679c23d6ea31c37473567d34","","343","","0","Intro Trial",""
"","","","","","html-button-response","42","71403","0.0-4.38-0.38-0.38","56","1","2025-01-31 01:14:23","af8d355d56820e421d246a7037deb6e6","47.230.12.148","Mozilla/5.0 (Windows NT 10.0; Win64; x64) AppleWebKit/537.36 (KHTML, like Gecko) Chrome/132.0.0.0 Safari/537.36","WebKit","Chrome","132.0.0.0","Windows","10.0","https://app.prolific.com/","en-US,en;q=0.9","678f1df528b89f7aa06b930e","67949641171f97c04e14fb34","679c23d6ea31c37473567d34","","1368","","0","Intro Trial",""
"","","","","","html-button-response","43","71923","0.0-4.39-0.39-0.39","56","1","2025-01-31 01:14:23","af8d355d56820e421d246a7037deb6e6","47.230.12.148","Mozilla/5.0 (Windows NT 10.0; Win64; x64) AppleWebKit/537.36 (KHTML, like Gecko) Chrome/132.0.0.0 Safari/537.36","WebKit","Chrome","132.0.0.0","Windows","10.0","https://app.prolific.com/","en-US,en;q=0.9","678f1df528b89f7aa06b930e","67949641171f97c04e14fb34","679c23d6ea31c37473567d34","","518","","4","Intro Trial",""
"","","","","","html-button-response","44","72415","0.0-4.40-0.40-0.40","56","1","2025-01-31 01:14:23","af8d355d56820e421d246a7037deb6e6","47.230.12.148","Mozilla/5.0 (Windows NT 10.0; Win64; x64) AppleWebKit/537.36 (KHTML, like Gecko) Chrome/132.0.0.0 Safari/537.36","WebKit","Chrome","132.0.0.0","Windows","10.0","https://app.prolific.com/","en-US,en;q=0.9","678f1df528b89f7aa06b930e","67949641171f97c04e14fb34","679c23d6ea31c37473567d34","","491","","0","Intro Trial",""
"","","","","","html-button-response","45","73311","0.0-4.41-0.41-0.41","56","1","2025-01-31 01:14:23","af8d355d56820e421d246a7037deb6e6","47.230.12.148","Mozilla/5.0 (Windows NT 10.0; Win64; x64) AppleWebKit/537.36 (KHTML, like Gecko) Chrome/132.0.0.0 Safari/537.36","WebKit","Chrome","132.0.0.0","Windows","10.0","https://app.prolific.com/","en-US,en;q=0.9","678f1df528b89f7aa06b930e","67949641171f97c04e14fb34","679c23d6ea31c37473567d34","","895","","1","Intro Trial",""
"","","","","","html-button-response","46","73610","0.0-4.42-0.42-0.42","56","1","2025-01-31 01:14:23","af8d355d56820e421d246a7037deb6e6","47.230.12.148","Mozilla/5.0 (Windows NT 10.0; Win64; x64) AppleWebKit/537.36 (KHTML, like Gecko) Chrome/132.0.0.0 Safari/537.36","WebKit","Chrome","132.0.0.0","Windows","10.0","https://app.prolific.com/","en-US,en;q=0.9","678f1df528b89f7aa06b930e","67949641171f97c04e14fb34","679c23d6ea31c37473567d34","","298","","0","Intro Trial",""
"","","","","","html-button-response","47","74263","0.0-4.43-0.43-0.43","56","1","2025-01-31 01:14:23","af8d355d56820e421d246a7037deb6e6","47.230.12.148","Mozilla/5.0 (Windows NT 10.0; Win64; x64) AppleWebKit/537.36 (KHTML, like Gecko) Chrome/132.0.0.0 Safari/537.36","WebKit","Chrome","132.0.0.0","Windows","10.0","https://app.prolific.com/","en-US,en;q=0.9","678f1df528b89f7aa06b930e","67949641171f97c04e14fb34","679c23d6ea31c37473567d34","","651","","1","Intro Trial",""
"","","","","","html-button-response","48","75023","0.0-4.44-0.44-0.44","56","1","2025-01-31 01:14:23","af8d355d56820e421d246a7037deb6e6","47.230.12.148","Mozilla/5.0 (Windows NT 10.0; Win64; x64) AppleWebKit/537.36 (KHTML, like Gecko) Chrome/132.0.0.0 Safari/537.36","WebKit","Chrome","132.0.0.0","Windows","10.0","https://app.prolific.com/","en-US,en;q=0.9","678f1df528b89f7aa06b930e","67949641171f97c04e14fb34","679c23d6ea31c37473567d34","","759","","2","Intro Trial",""
"","","","","","html-button-response","49","75407","0.0-4.45-0.45-0.45","56","1","2025-01-31 01:14:23","af8d355d56820e421d246a7037deb6e6","47.230.12.148","Mozilla/5.0 (Windows NT 10.0; Win64; x64) AppleWebKit/537.36 (KHTML, like Gecko) Chrome/132.0.0.0 Safari/537.36","WebKit","Chrome","132.0.0.0","Windows","10.0","https://app.prolific.com/","en-US,en;q=0.9","678f1df528b89f7aa06b930e","67949641171f97c04e14fb34","679c23d6ea31c37473567d34","","383","","4","Intro Trial",""
"","","","","","html-button-response","50","75666","0.0-4.46-0.46-0.46","56","1","2025-01-31 01:14:23","af8d355d56820e421d246a7037deb6e6","47.230.12.148","Mozilla/5.0 (Windows NT 10.0; Win64; x64) AppleWebKit/537.36 (KHTML, like Gecko) Chrome/132.0.0.0 Safari/537.36","WebKit","Chrome","132.0.0.0","Windows","10.0","https://app.prolific.com/","en-US,en;q=0.9","678f1df528b89f7aa06b930e","67949641171f97c04e14fb34","679c23d6ea31c37473567d34","","258","","3","Intro Trial",""
"","","","","","html-button-response","51","76216","0.0-4.47-0.47-0.47","56","1","2025-01-31 01:14:23","af8d355d56820e421d246a7037deb6e6","47.230.12.148","Mozilla/5.0 (Windows NT 10.0; Win64; x64) AppleWebKit/537.36 (KHTML, like Gecko) Chrome/132.0.0.0 Safari/537.36","WebKit","Chrome","132.0.0.0","Windows","10.0","https://app.prolific.com/","en-US,en;q=0.9","678f1df528b89f7aa06b930e","67949641171f97c04e14fb34","679c23d6ea31c37473567d34","","549","","5","Intro Trial",""
"","","","","","html-keyboard-response","52","85568","0.0-5.0","56","1","2025-01-31 01:14:23","af8d355d56820e421d246a7037deb6e6","47.230.12.148","Mozilla/5.0 (Windows NT 10.0; Win64; x64) AppleWebKit/537.36 (KHTML, like Gecko) Chrome/132.0.0.0 Safari/537.36","WebKit","Chrome","132.0.0.0","Windows","10.0","https://app.prolific.com/","en-US,en;q=0.9","678f1df528b89f7aa06b930e","67949641171f97c04e14fb34","679c23d6ea31c37473567d34","","9350","[""You sorted incorrectly by using the balance 22 times. <br><br> <img src='G_5.jpg' height='90'><img src='G_1.jpg' height='90'><img src='G_2.jpg' height='90'><img src='G_3.jpg' height='90'><img src='G_4.jpg' height='90'><br><br> Your final order is 1,4,2,3,5<br><br><br>Omgne Sort in this game will allow you to sort correctly by using the balance 8 times. Press Enter to learn it!""]","enter","",""
"","","","","","html-keyboard-response","53","88591","0.0-6.0","56","1","2025-01-31 01:14:23","af8d355d56820e421d246a7037deb6e6","47.230.12.148","Mozilla/5.0 (Windows NT 10.0; Win64; x64) AppleWebKit/537.36 (KHTML, like Gecko) Chrome/132.0.0.0 Safari/537.36","WebKit","Chrome","132.0.0.0","Windows","10.0","https://app.prolific.com/","en-US,en;q=0.9","678f1df528b89f7aa06b930e","67949641171f97c04e14fb34","679c23d6ea31c37473567d34","","3022","<p>Welcome to the learning phase! <br><br> You will learn by six examples. The following learning trials will not be used to calculate your performance. <br><br> Press Enter to continue.<p/>","enter","",""
"","","","","","html-keyboard-response","54","92031","0.0-7.0","56","1","2025-01-31 01:14:23","af8d355d56820e421d246a7037deb6e6","47.230.12.148","Mozilla/5.0 (Windows NT 10.0; Win64; x64) AppleWebKit/537.36 (KHTML, like Gecko) Chrome/132.0.0.0 Safari/537.36","WebKit","Chrome","132.0.0.0","Windows","10.0","https://app.prolific.com/","en-US,en;q=0.9","678f1df528b89f7aa06b930e","67949641171f97c04e14fb34","679c23d6ea31c37473567d34","","3439","[""Example 1<br><br>You will watch Omnge Sort in action. Try to identify any patterns in the comparisons made by this method. <br><br>Press Enter to continue.""]","enter","",""
"","","","","","html-keyboard-response","55","92536","0.0-8.0","56","1","2025-01-31 01:14:23","af8d355d56820e421d246a7037deb6e6","47.230.12.148","Mozilla/5.0 (Windows NT 10.0; Win64; x64) AppleWebKit/537.36 (KHTML, like Gecko) Chrome/132.0.0.0 Safari/537.36","WebKit","Chrome","132.0.0.0","Windows","10.0","https://app.prolific.com/","en-US,en;q=0.9","678f1df528b89f7aa06b930e","67949641171f97c04e14fb34","679c23d6ea31c37473567d34","","null","<img id='selected' src='G_7.jpg' height='90'> <img src='G_9.jpg' height='90'> <img src='G_5.jpg' height='90'> <img src='G_1.jpg' height='90'> <img src='G_3.jpg' height='90'>","null","Animation0",""
"","","","","","html-keyboard-response","56","93038","0.0-9.0","56","1","2025-01-31 01:14:23","af8d355d56820e421d246a7037deb6e6","47.230.12.148","Mozilla/5.0 (Windows NT 10.0; Win64; x64) AppleWebKit/537.36 (KHTML, like Gecko) Chrome/132.0.0.0 Safari/537.36","WebKit","Chrome","132.0.0.0","Windows","10.0","https://app.prolific.com/","en-US,en;q=0.9","678f1df528b89f7aa06b930e","67949641171f97c04e14fb34","679c23d6ea31c37473567d34","","null","<img id='selected' src='G_7.jpg' height='90'> <img id='selected' src='G_9.jpg' height='90'> <img src='G_5.jpg' height='90'> <img src='G_1.jpg' height='90'> <img src='G_3.jpg' height='90'>","null","Animation0",""
"","","","","","html-keyboard-response","57","93550","0.0-10.0","56","1","2025-01-31 01:14:23","af8d355d56820e421d246a7037deb6e6","47.230.12.148","Mozilla/5.0 (Windows NT 10.0; Win64; x64) AppleWebKit/537.36 (KHTML, like Gecko) Chrome/132.0.0.0 Safari/537.36","WebKit","Chrome","132.0.0.0","Windows","10.0","https://app.prolific.com/","en-US,en;q=0.9","678f1df528b89f7aa06b930e","67949641171f97c04e14fb34","679c23d6ea31c37473567d34","","null","<img id='swapped' src='G_9.jpg' height='90'> <img id='swapped' src='G_7.jpg' height='90'> <img src='G_5.jpg' height='90'> <img src='G_1.jpg' height='90'> <img src='G_3.jpg' height='90'>","null","Animation0",""
"","","","","","html-keyboard-response","58","93860","0.0-11.0","56","1","2025-01-31 01:14:23","af8d355d56820e421d246a7037deb6e6","47.230.12.148","Mozilla/5.0 (Windows NT 10.0; Win64; x64) AppleWebKit/537.36 (KHTML, like Gecko) Chrome/132.0.0.0 Safari/537.36","WebKit","Chrome","132.0.0.0","Windows","10.0","https://app.prolific.com/","en-US,en;q=0.9","678f1df528b89f7aa06b930e","67949641171f97c04e14fb34","679c23d6ea31c37473567d34","","null","<img  src='G_9.jpg' height='90'> <img  src='G_7.jpg' height='90'> <img src='G_5.jpg' height='90'> <img src='G_1.jpg' height='90'> <img src='G_3.jpg' height='90'>","null","Animation0",""
"","","","","","html-keyboard-response","59","94374","0.0-12.0","56","1","2025-01-31 01:14:23","af8d355d56820e421d246a7037deb6e6","47.230.12.148","Mozilla/5.0 (Windows NT 10.0; Win64; x64) AppleWebKit/537.36 (KHTML, like Gecko) Chrome/132.0.0.0 Safari/537.36","WebKit","Chrome","132.0.0.0","Windows","10.0","https://app.prolific.com/","en-US,en;q=0.9","678f1df528b89f7aa06b930e","67949641171f97c04e14fb34","679c23d6ea31c37473567d34","","null","<img  src='G_9.jpg' height='90'> <img id='selected'  src='G_7.jpg' height='90'> <img src='G_5.jpg' height='90'> <img src='G_1.jpg' height='90'> <img src='G_3.jpg' height='90'>","null","Animation0",""
"","","","","","html-keyboard-response","60","94886","0.0-13.0","56","1","2025-01-31 01:14:23","af8d355d56820e421d246a7037deb6e6","47.230.12.148","Mozilla/5.0 (Windows NT 10.0; Win64; x64) AppleWebKit/537.36 (KHTML, like Gecko) Chrome/132.0.0.0 Safari/537.36","WebKit","Chrome","132.0.0.0","Windows","10.0","https://app.prolific.com/","en-US,en;q=0.9","678f1df528b89f7aa06b930e","67949641171f97c04e14fb34","679c23d6ea31c37473567d34","","null","<img  src='G_9.jpg' height='90'> <img id='selected'  src='G_7.jpg' height='90'> <img id='selected' src='G_5.jpg' height='90'> <img src='G_1.jpg' height='90'> <img src='G_3.jpg' height='90'>","null","Animation0",""
"","","","","","html-keyboard-response","61","95398","0.0-14.0","56","1","2025-01-31 01:14:23","af8d355d56820e421d246a7037deb6e6","47.230.12.148","Mozilla/5.0 (Windows NT 10.0; Win64; x64) AppleWebKit/537.36 (KHTML, like Gecko) Chrome/132.0.0.0 Safari/537.36","WebKit","Chrome","132.0.0.0","Windows","10.0","https://app.prolific.com/","en-US,en;q=0.9","678f1df528b89f7aa06b930e","67949641171f97c04e14fb34","679c23d6ea31c37473567d34","","null","<img  src='G_9.jpg' height='90'> <img id='selected'  src='G_7.jpg' height='90'> <img id='selected' src='G_5.jpg' height='90'> <img src='G_1.jpg' height='90'> <img src='G_3.jpg' height='90'>","null","Animation0",""
"","","","","","html-keyboard-response","62","95704","0.0-15.0","56","1","2025-01-31 01:14:23","af8d355d56820e421d246a7037deb6e6","47.230.12.148","Mozilla/5.0 (Windows NT 10.0; Win64; x64) AppleWebKit/537.36 (KHTML, like Gecko) Chrome/132.0.0.0 Safari/537.36","WebKit","Chrome","132.0.0.0","Windows","10.0","https://app.prolific.com/","en-US,en;q=0.9","678f1df528b89f7aa06b930e","67949641171f97c04e14fb34","679c23d6ea31c37473567d34","","null","<img  src='G_9.jpg' height='90'> <img   src='G_7.jpg' height='90'> <img  src='G_5.jpg' height='90'> <img src='G_1.jpg' height='90'> <img src='G_3.jpg' height='90'>","null","Animation0",""
"","","","","","html-keyboard-response","63","96216","0.0-16.0","56","1","2025-01-31 01:14:23","af8d355d56820e421d246a7037deb6e6","47.230.12.148","Mozilla/5.0 (Windows NT 10.0; Win64; x64) AppleWebKit/537.36 (KHTML, like Gecko) Chrome/132.0.0.0 Safari/537.36","WebKit","Chrome","132.0.0.0","Windows","10.0","https://app.prolific.com/","en-US,en;q=0.9","678f1df528b89f7aa06b930e","67949641171f97c04e14fb34","679c23d6ea31c37473567d34","","null","<img  src='G_9.jpg' height='90'> <img   src='G_7.jpg' height='90'> <img id='selected'  src='G_5.jpg' height='90'> <img src='G_1.jpg' height='90'> <img src='G_3.jpg' height='90'>","null","Animation0",""
"","","","","","html-keyboard-response","64","96728","0.0-17.0","56","1","2025-01-31 01:14:23","af8d355d56820e421d246a7037deb6e6","47.230.12.148","Mozilla/5.0 (Windows NT 10.0; Win64; x64) AppleWebKit/537.36 (KHTML, like Gecko) Chrome/132.0.0.0 Safari/537.36","WebKit","Chrome","132.0.0.0","Windows","10.0","https://app.prolific.com/","en-US,en;q=0.9","678f1df528b89f7aa06b930e","67949641171f97c04e14fb34","679c23d6ea31c37473567d34","","null","<img  src='G_9.jpg' height='90'> <img   src='G_7.jpg' height='90'> <img id='selected'  src='G_5.jpg' height='90'> <img id='selected' src='G_1.jpg' height='90'> <img src='G_3.jpg' height='90'>","null","Animation0",""
"","","","","","html-keyboard-response","65","97242","0.0-18.0","56","1","2025-01-31 01:14:23","af8d355d56820e421d246a7037deb6e6","47.230.12.148","Mozilla/5.0 (Windows NT 10.0; Win64; x64) AppleWebKit/537.36 (KHTML, like Gecko) Chrome/132.0.0.0 Safari/537.36","WebKit","Chrome","132.0.0.0","Windows","10.0","https://app.prolific.com/","en-US,en;q=0.9","678f1df528b89f7aa06b930e","67949641171f97c04e14fb34","679c23d6ea31c37473567d34","","null","<img  src='G_9.jpg' height='90'> <img   src='G_7.jpg' height='90'> <img id='selected'  src='G_5.jpg' height='90'> <img id='selected' src='G_1.jpg' height='90'> <img src='G_3.jpg' height='90'>","null","Animation0",""
"","","","","","html-keyboard-response","66","97554","0.0-19.0","56","1","2025-01-31 01:14:23","af8d355d56820e421d246a7037deb6e6","47.230.12.148","Mozilla/5.0 (Windows NT 10.0; Win64; x64) AppleWebKit/537.36 (KHTML, like Gecko) Chrome/132.0.0.0 Safari/537.36","WebKit","Chrome","132.0.0.0","Windows","10.0","https://app.prolific.com/","en-US,en;q=0.9","678f1df528b89f7aa06b930e","67949641171f97c04e14fb34","679c23d6ea31c37473567d34","","null","<img  src='G_9.jpg' height='90'> <img   src='G_7.jpg' height='90'> <img   src='G_5.jpg' height='90'> <img  src='G_1.jpg' height='90'> <img src='G_3.jpg' height='90'>","null","Animation0",""
"","","","","","html-keyboard-response","67","98069","0.0-20.0","56","1","2025-01-31 01:14:23","af8d355d56820e421d246a7037deb6e6","47.230.12.148","Mozilla/5.0 (Windows NT 10.0; Win64; x64) AppleWebKit/537.36 (KHTML, like Gecko) Chrome/132.0.0.0 Safari/537.36","WebKit","Chrome","132.0.0.0","Windows","10.0","https://app.prolific.com/","en-US,en;q=0.9","678f1df528b89f7aa06b930e","67949641171f97c04e14fb34","679c23d6ea31c37473567d34","","null","<img  src='G_9.jpg' height='90'> <img   src='G_7.jpg' height='90'> <img   src='G_5.jpg' height='90'> <img id='selected'  src='G_1.jpg' height='90'> <img src='G_3.jpg' height='90'>","null","Animation0",""
"","","","","","html-keyboard-response","68","98580","0.0-21.0","56","1","2025-01-31 01:14:23","af8d355d56820e421d246a7037deb6e6","47.230.12.148","Mozilla/5.0 (Windows NT 10.0; Win64; x64) AppleWebKit/537.36 (KHTML, like Gecko) Chrome/132.0.0.0 Safari/537.36","WebKit","Chrome","132.0.0.0","Windows","10.0","https://app.prolific.com/","en-US,en;q=0.9","678f1df528b89f7aa06b930e","67949641171f97c04e14fb34","679c23d6ea31c37473567d34","","null","<img  src='G_9.jpg' height='90'> <img   src='G_7.jpg' height='90'> <img   src='G_5.jpg' height='90'> <img id='selected'  src='G_1.jpg' height='90'> <img id='selected' src='G_3.jpg' height='90'>","null","Animation0",""
"","","","","","html-keyboard-response","69","99093","0.0-22.0","56","1","2025-01-31 01:14:23","af8d355d56820e421d246a7037deb6e6","47.230.12.148","Mozilla/5.0 (Windows NT 10.0; Win64; x64) AppleWebKit/537.36 (KHTML, like Gecko) Chrome/132.0.0.0 Safari/537.36","WebKit","Chrome","132.0.0.0","Windows","10.0","https://app.prolific.com/","en-US,en;q=0.9","678f1df528b89f7aa06b930e","67949641171f97c04e14fb34","679c23d6ea31c37473567d34","","null","<img  src='G_9.jpg' height='90'> <img   src='G_7.jpg' height='90'> <img   src='G_5.jpg' height='90'> <img id='selected'  src='G_1.jpg' height='90'> <img id='selected' src='G_3.jpg' height='90'>","null","Animation0",""
"","","","","","html-keyboard-response","70","99405","0.0-23.0","56","1","2025-01-31 01:14:23","af8d355d56820e421d246a7037deb6e6","47.230.12.148","Mozilla/5.0 (Windows NT 10.0; Win64; x64) AppleWebKit/537.36 (KHTML, like Gecko) Chrome/132.0.0.0 Safari/537.36","WebKit","Chrome","132.0.0.0","Windows","10.0","https://app.prolific.com/","en-US,en;q=0.9","678f1df528b89f7aa06b930e","67949641171f97c04e14fb34","679c23d6ea31c37473567d34","","null","<img  src='G_9.jpg' height='90'> <img   src='G_7.jpg' height='90'> <img   src='G_5.jpg' height='90'> <img   src='G_1.jpg' height='90'> <img  src='G_3.jpg' height='90'>","null","Animation0",""
"","","","","","html-keyboard-response","71","102063","0.0-24.0","56","1","2025-01-31 01:14:23","af8d355d56820e421d246a7037deb6e6","47.230.12.148","Mozilla/5.0 (Windows NT 10.0; Win64; x64) AppleWebKit/537.36 (KHTML, like Gecko) Chrome/132.0.0.0 Safari/537.36","WebKit","Chrome","132.0.0.0","Windows","10.0","https://app.prolific.com/","en-US,en;q=0.9","678f1df528b89f7aa06b930e","67949641171f97c04e14fb34","679c23d6ea31c37473567d34","","2657","[""Did you notice any patterns? <br><br>Press Enter to watch that example again and follow the steps of Omgne Sort.""]","enter","",""
"","","","","","html-button-response","72","102477","0.0-25.0","56","1","2025-01-31 01:14:23","af8d355d56820e421d246a7037deb6e6","47.230.12.148","Mozilla/5.0 (Windows NT 10.0; Win64; x64) AppleWebKit/537.36 (KHTML, like Gecko) Chrome/132.0.0.0 Safari/537.36","WebKit","Chrome","132.0.0.0","Windows","10.0","https://app.prolific.com/","en-US,en;q=0.9","678f1df528b89f7aa06b930e","67949641171f97c04e14fb34","679c23d6ea31c37473567d34","","null","<img id='selected' src='G_7.jpg' height='90'> <img src='G_9.jpg' height='90'> <img src='G_5.jpg' height='90'> <img src='G_1.jpg' height='90'> <img src='G_3.jpg' height='90'>","null","Learning example 0",""
"","","","","","html-button-response","73","102787","0.0-26.0","56","1","2025-01-31 01:14:23","af8d355d56820e421d246a7037deb6e6","47.230.12.148","Mozilla/5.0 (Windows NT 10.0; Win64; x64) AppleWebKit/537.36 (KHTML, like Gecko) Chrome/132.0.0.0 Safari/537.36","WebKit","Chrome","132.0.0.0","Windows","10.0","https://app.prolific.com/","en-US,en;q=0.9","678f1df528b89f7aa06b930e","67949641171f97c04e14fb34","679c23d6ea31c37473567d34","","null","<img id='selected' src='G_7.jpg' height='90'> <img id='selected' src='G_9.jpg' height='90'> <img src='G_5.jpg' height='90'> <img src='G_1.jpg' height='90'> <img src='G_3.jpg' height='90'>","null","Learning example 0",""
"","","","","","html-button-response","74","103101","0.0-27.0","56","1","2025-01-31 01:14:23","af8d355d56820e421d246a7037deb6e6","47.230.12.148","Mozilla/5.0 (Windows NT 10.0; Win64; x64) AppleWebKit/537.36 (KHTML, like Gecko) Chrome/132.0.0.0 Safari/537.36","WebKit","Chrome","132.0.0.0","Windows","10.0","https://app.prolific.com/","en-US,en;q=0.9","678f1df528b89f7aa06b930e","67949641171f97c04e14fb34","679c23d6ea31c37473567d34","","null","<img id='swapped' src='G_9.jpg' height='90'> <img id='swapped' src='G_7.jpg' height='90'> <img src='G_5.jpg' height='90'> <img src='G_1.jpg' height='90'> <img src='G_3.jpg' height='90'>","null","Learning example 0",""
"","","","","","html-button-response","75","106412","0.0-28.0-0.0-0.0","56","1","2025-01-31 01:14:23","af8d355d56820e421d246a7037deb6e6","47.230.12.148","Mozilla/5.0 (Windows NT 10.0; Win64; x64) AppleWebKit/537.36 (KHTML, like Gecko) Chrome/132.0.0.0 Safari/537.36","WebKit","Chrome","132.0.0.0","Windows","10.0","https://app.prolific.com/","en-US,en;q=0.9","678f1df528b89f7aa06b930e","67949641171f97c04e14fb34","679c23d6ea31c37473567d34","","3309","<img id='swapped' src='G_9.jpg' height='90'> <img id='swapped' src='G_7.jpg' height='90'> <img src='G_5.jpg' height='90'> <img src='G_1.jpg' height='90'> <img src='G_3.jpg' height='90'>","0","Learning example 0",""
"","","","","","html-button-response","76","106776","0.0-28.1-0.1-0.1","56","1","2025-01-31 01:14:23","af8d355d56820e421d246a7037deb6e6","47.230.12.148","Mozilla/5.0 (Windows NT 10.0; Win64; x64) AppleWebKit/537.36 (KHTML, like Gecko) Chrome/132.0.0.0 Safari/537.36","WebKit","Chrome","132.0.0.0","Windows","10.0","https://app.prolific.com/","en-US,en;q=0.9","678f1df528b89f7aa06b930e","67949641171f97c04e14fb34","679c23d6ea31c37473567d34","","362","<img id='swapped' src='G_9.jpg' height='90'> <img id='swapped' src='G_7.jpg' height='90'> <img src='G_5.jpg' height='90'> <img src='G_1.jpg' height='90'> <img src='G_3.jpg' height='90'>","1","Learning example 0",""
"","","","","","html-button-response","77","106986","0.0-29.0","56","1","2025-01-31 01:14:23","af8d355d56820e421d246a7037deb6e6","47.230.12.148","Mozilla/5.0 (Windows NT 10.0; Win64; x64) AppleWebKit/537.36 (KHTML, like Gecko) Chrome/132.0.0.0 Safari/537.36","WebKit","Chrome","132.0.0.0","Windows","10.0","https://app.prolific.com/","en-US,en;q=0.9","678f1df528b89f7aa06b930e","67949641171f97c04e14fb34","679c23d6ea31c37473567d34","","null","<img  src='G_9.jpg' height='90'> <img  src='G_7.jpg' height='90'> <img src='G_5.jpg' height='90'> <img src='G_1.jpg' height='90'> <img src='G_3.jpg' height='90'>","null","Learning example 0",""
"","","","","","html-button-response","78","107392","0.0-30.0","56","1","2025-01-31 01:14:23","af8d355d56820e421d246a7037deb6e6","47.230.12.148","Mozilla/5.0 (Windows NT 10.0; Win64; x64) AppleWebKit/537.36 (KHTML, like Gecko) Chrome/132.0.0.0 Safari/537.36","WebKit","Chrome","132.0.0.0","Windows","10.0","https://app.prolific.com/","en-US,en;q=0.9","678f1df528b89f7aa06b930e","67949641171f97c04e14fb34","679c23d6ea31c37473567d34","","null","<img  src='G_9.jpg' height='90'> <img id='selected'  src='G_7.jpg' height='90'> <img src='G_5.jpg' height='90'> <img src='G_1.jpg' height='90'> <img src='G_3.jpg' height='90'>","null","Learning example 0",""
"","","","","","html-button-response","79","107705","0.0-31.0","56","1","2025-01-31 01:14:23","af8d355d56820e421d246a7037deb6e6","47.230.12.148","Mozilla/5.0 (Windows NT 10.0; Win64; x64) AppleWebKit/537.36 (KHTML, like Gecko) Chrome/132.0.0.0 Safari/537.36","WebKit","Chrome","132.0.0.0","Windows","10.0","https://app.prolific.com/","en-US,en;q=0.9","678f1df528b89f7aa06b930e","67949641171f97c04e14fb34","679c23d6ea31c37473567d34","","null","<img  src='G_9.jpg' height='90'> <img id='selected'  src='G_7.jpg' height='90'> <img id='selected' src='G_5.jpg' height='90'> <img src='G_1.jpg' height='90'> <img src='G_3.jpg' height='90'>","null","Learning example 0",""
"","","","","","html-button-response","80","108007","0.0-32.0","56","1","2025-01-31 01:14:23","af8d355d56820e421d246a7037deb6e6","47.230.12.148","Mozilla/5.0 (Windows NT 10.0; Win64; x64) AppleWebKit/537.36 (KHTML, like Gecko) Chrome/132.0.0.0 Safari/537.36","WebKit","Chrome","132.0.0.0","Windows","10.0","https://app.prolific.com/","en-US,en;q=0.9","678f1df528b89f7aa06b930e","67949641171f97c04e14fb34","679c23d6ea31c37473567d34","","null","<img  src='G_9.jpg' height='90'> <img id='selected'  src='G_7.jpg' height='90'> <img id='selected' src='G_5.jpg' height='90'> <img src='G_1.jpg' height='90'> <img src='G_3.jpg' height='90'>","null","Learning example 0",""
"","","","","","html-button-response","81","109083","0.0-33.0-0.0-0.0","56","1","2025-01-31 01:14:23","af8d355d56820e421d246a7037deb6e6","47.230.12.148","Mozilla/5.0 (Windows NT 10.0; Win64; x64) AppleWebKit/537.36 (KHTML, like Gecko) Chrome/132.0.0.0 Safari/537.36","WebKit","Chrome","132.0.0.0","Windows","10.0","https://app.prolific.com/","en-US,en;q=0.9","678f1df528b89f7aa06b930e","67949641171f97c04e14fb34","679c23d6ea31c37473567d34","","1074","<img  src='G_9.jpg' height='90'> <img id='selected'  src='G_7.jpg' height='90'> <img id='selected' src='G_5.jpg' height='90'> <img src='G_1.jpg' height='90'> <img src='G_3.jpg' height='90'>","1","Learning example 0",""
"","","","","","html-button-response","82","109403","0.0-33.1-0.1-0.1","56","1","2025-01-31 01:14:23","af8d355d56820e421d246a7037deb6e6","47.230.12.148","Mozilla/5.0 (Windows NT 10.0; Win64; x64) AppleWebKit/537.36 (KHTML, like Gecko) Chrome/132.0.0.0 Safari/537.36","WebKit","Chrome","132.0.0.0","Windows","10.0","https://app.prolific.com/","en-US,en;q=0.9","678f1df528b89f7aa06b930e","67949641171f97c04e14fb34","679c23d6ea31c37473567d34","","319","<img  src='G_9.jpg' height='90'> <img id='selected'  src='G_7.jpg' height='90'> <img id='selected' src='G_5.jpg' height='90'> <img src='G_1.jpg' height='90'> <img src='G_3.jpg' height='90'>","2","Learning example 0",""
"","","","","","html-button-response","83","109605","0.0-34.0","56","1","2025-01-31 01:14:23","af8d355d56820e421d246a7037deb6e6","47.230.12.148","Mozilla/5.0 (Windows NT 10.0; Win64; x64) AppleWebKit/537.36 (KHTML, like Gecko) Chrome/132.0.0.0 Safari/537.36","WebKit","Chrome","132.0.0.0","Windows","10.0","https://app.prolific.com/","en-US,en;q=0.9","678f1df528b89f7aa06b930e","67949641171f97c04e14fb34","679c23d6ea31c37473567d34","","null","<img  src='G_9.jpg' height='90'> <img   src='G_7.jpg' height='90'> <img  src='G_5.jpg' height='90'> <img src='G_1.jpg' height='90'> <img src='G_3.jpg' height='90'>","null","Learning example 0",""
"","","","","","html-button-response","84","110012","0.0-35.0","56","1","2025-01-31 01:14:23","af8d355d56820e421d246a7037deb6e6","47.230.12.148","Mozilla/5.0 (Windows NT 10.0; Win64; x64) AppleWebKit/537.36 (KHTML, like Gecko) Chrome/132.0.0.0 Safari/537.36","WebKit","Chrome","132.0.0.0","Windows","10.0","https://app.prolific.com/","en-US,en;q=0.9","678f1df528b89f7aa06b930e","67949641171f97c04e14fb34","679c23d6ea31c37473567d34","","null","<img  src='G_9.jpg' height='90'> <img   src='G_7.jpg' height='90'> <img id='selected'  src='G_5.jpg' height='90'> <img src='G_1.jpg' height='90'> <img src='G_3.jpg' height='90'>","null","Learning example 0",""
"","","","","","html-button-response","85","110319","0.0-36.0","56","1","2025-01-31 01:14:23","af8d355d56820e421d246a7037deb6e6","47.230.12.148","Mozilla/5.0 (Windows NT 10.0; Win64; x64) AppleWebKit/537.36 (KHTML, like Gecko) Chrome/132.0.0.0 Safari/537.36","WebKit","Chrome","132.0.0.0","Windows","10.0","https://app.prolific.com/","en-US,en;q=0.9","678f1df528b89f7aa06b930e","67949641171f97c04e14fb34","679c23d6ea31c37473567d34","","null","<img  src='G_9.jpg' height='90'> <img   src='G_7.jpg' height='90'> <img id='selected'  src='G_5.jpg' height='90'> <img id='selected' src='G_1.jpg' height='90'> <img src='G_3.jpg' height='90'>","null","Learning example 0",""
"","","","","","html-button-response","86","110585","0.0-37.0","56","1","2025-01-31 01:14:23","af8d355d56820e421d246a7037deb6e6","47.230.12.148","Mozilla/5.0 (Windows NT 10.0; Win64; x64) AppleWebKit/537.36 (KHTML, like Gecko) Chrome/132.0.0.0 Safari/537.36","WebKit","Chrome","132.0.0.0","Windows","10.0","https://app.prolific.com/","en-US,en;q=0.9","678f1df528b89f7aa06b930e","67949641171f97c04e14fb34","679c23d6ea31c37473567d34","","265","<img  src='G_9.jpg' height='90'> <img   src='G_7.jpg' height='90'> <img id='selected'  src='G_5.jpg' height='90'> <img id='selected' src='G_1.jpg' height='90'> <img src='G_3.jpg' height='90'>","2","Learning example 0",""
"","","","","","html-button-response","87","111104","0.0-38.0-0.0-0.0","56","1","2025-01-31 01:14:23","af8d355d56820e421d246a7037deb6e6","47.230.12.148","Mozilla/5.0 (Windows NT 10.0; Win64; x64) AppleWebKit/537.36 (KHTML, like Gecko) Chrome/132.0.0.0 Safari/537.36","WebKit","Chrome","132.0.0.0","Windows","10.0","https://app.prolific.com/","en-US,en;q=0.9","678f1df528b89f7aa06b930e","67949641171f97c04e14fb34","679c23d6ea31c37473567d34","","518","<img  src='G_9.jpg' height='90'> <img   src='G_7.jpg' height='90'> <img id='selected'  src='G_5.jpg' height='90'> <img id='selected' src='G_1.jpg' height='90'> <img src='G_3.jpg' height='90'>","3","Learning example 0",""
"","","","","","html-button-response","88","111306","0.0-39.0","56","1","2025-01-31 01:14:23","af8d355d56820e421d246a7037deb6e6","47.230.12.148","Mozilla/5.0 (Windows NT 10.0; Win64; x64) AppleWebKit/537.36 (KHTML, like Gecko) Chrome/132.0.0.0 Safari/537.36","WebKit","Chrome","132.0.0.0","Windows","10.0","https://app.prolific.com/","en-US,en;q=0.9","678f1df528b89f7aa06b930e","67949641171f97c04e14fb34","679c23d6ea31c37473567d34","","null","<img  src='G_9.jpg' height='90'> <img   src='G_7.jpg' height='90'> <img   src='G_5.jpg' height='90'> <img  src='G_1.jpg' height='90'> <img src='G_3.jpg' height='90'>","null","Learning example 0",""
"","","","","","html-button-response","89","111708","0.0-40.0","56","1","2025-01-31 01:14:23","af8d355d56820e421d246a7037deb6e6","47.230.12.148","Mozilla/5.0 (Windows NT 10.0; Win64; x64) AppleWebKit/537.36 (KHTML, like Gecko) Chrome/132.0.0.0 Safari/537.36","WebKit","Chrome","132.0.0.0","Windows","10.0","https://app.prolific.com/","en-US,en;q=0.9","678f1df528b89f7aa06b930e","67949641171f97c04e14fb34","679c23d6ea31c37473567d34","","null","<img  src='G_9.jpg' height='90'> <img   src='G_7.jpg' height='90'> <img   src='G_5.jpg' height='90'> <img id='selected'  src='G_1.jpg' height='90'> <img src='G_3.jpg' height='90'>","null","Learning example 0",""
"","","","","","html-button-response","90","111986","0.0-41.0","56","1","2025-01-31 01:14:23","af8d355d56820e421d246a7037deb6e6","47.230.12.148","Mozilla/5.0 (Windows NT 10.0; Win64; x64) AppleWebKit/537.36 (KHTML, like Gecko) Chrome/132.0.0.0 Safari/537.36","WebKit","Chrome","132.0.0.0","Windows","10.0","https://app.prolific.com/","en-US,en;q=0.9","678f1df528b89f7aa06b930e","67949641171f97c04e14fb34","679c23d6ea31c37473567d34","","277","<img  src='G_9.jpg' height='90'> <img   src='G_7.jpg' height='90'> <img   src='G_5.jpg' height='90'> <img id='selected'  src='G_1.jpg' height='90'> <img id='selected' src='G_3.jpg' height='90'>","3","Learning example 0",""
"","","","","","html-button-response","91","112288","0.0-42.0","56","1","2025-01-31 01:14:23","af8d355d56820e421d246a7037deb6e6","47.230.12.148","Mozilla/5.0 (Windows NT 10.0; Win64; x64) AppleWebKit/537.36 (KHTML, like Gecko) Chrome/132.0.0.0 Safari/537.36","WebKit","Chrome","132.0.0.0","Windows","10.0","https://app.prolific.com/","en-US,en;q=0.9","678f1df528b89f7aa06b930e","67949641171f97c04e14fb34","679c23d6ea31c37473567d34","","null","<img  src='G_9.jpg' height='90'> <img   src='G_7.jpg' height='90'> <img   src='G_5.jpg' height='90'> <img id='selected'  src='G_1.jpg' height='90'> <img id='selected' src='G_3.jpg' height='90'>","null","Learning example 0",""
"","","","","","html-button-response","92","112533","0.0-43.0-0.0-0.0","56","1","2025-01-31 01:14:23","af8d355d56820e421d246a7037deb6e6","47.230.12.148","Mozilla/5.0 (Windows NT 10.0; Win64; x64) AppleWebKit/537.36 (KHTML, like Gecko) Chrome/132.0.0.0 Safari/537.36","WebKit","Chrome","132.0.0.0","Windows","10.0","https://app.prolific.com/","en-US,en;q=0.9","678f1df528b89f7aa06b930e","67949641171f97c04e14fb34","679c23d6ea31c37473567d34","","243","<img  src='G_9.jpg' height='90'> <img   src='G_7.jpg' height='90'> <img   src='G_5.jpg' height='90'> <img id='selected'  src='G_1.jpg' height='90'> <img id='selected' src='G_3.jpg' height='90'>","4","Learning example 0",""
"","","","","","html-button-response","93","115351","0.0-43.1-0.1-0.1","56","1","2025-01-31 01:14:23","af8d355d56820e421d246a7037deb6e6","47.230.12.148","Mozilla/5.0 (Windows NT 10.0; Win64; x64) AppleWebKit/537.36 (KHTML, like Gecko) Chrome/132.0.0.0 Safari/537.36","WebKit","Chrome","132.0.0.0","Windows","10.0","https://app.prolific.com/","en-US,en;q=0.9","678f1df528b89f7aa06b930e","67949641171f97c04e14fb34","679c23d6ea31c37473567d34","","2816","<img  src='G_9.jpg' height='90'> <img   src='G_7.jpg' height='90'> <img   src='G_5.jpg' height='90'> <img id='selected'  src='G_1.jpg' height='90'> <img id='selected' src='G_3.jpg' height='90'>","3","Learning example 0",""
"","","","","","html-button-response","94","115553","0.0-44.0","56","1","2025-01-31 01:14:23","af8d355d56820e421d246a7037deb6e6","47.230.12.148","Mozilla/5.0 (Windows NT 10.0; Win64; x64) AppleWebKit/537.36 (KHTML, like Gecko) Chrome/132.0.0.0 Safari/537.36","WebKit","Chrome","132.0.0.0","Windows","10.0","https://app.prolific.com/","en-US,en;q=0.9","678f1df528b89f7aa06b930e","67949641171f97c04e14fb34","679c23d6ea31c37473567d34","","null","<img  src='G_9.jpg' height='90'> <img   src='G_7.jpg' height='90'> <img   src='G_5.jpg' height='90'> <img   src='G_1.jpg' height='90'> <img  src='G_3.jpg' height='90'>","null","Learning example 0",""
"","","","","","html-keyboard-response","95","121982","0.0-45.0","56","1","2025-01-31 01:14:23","af8d355d56820e421d246a7037deb6e6","47.230.12.148","Mozilla/5.0 (Windows NT 10.0; Win64; x64) AppleWebKit/537.36 (KHTML, like Gecko) Chrome/132.0.0.0 Safari/537.36","WebKit","Chrome","132.0.0.0","Windows","10.0","https://app.prolific.com/","en-US,en;q=0.9","678f1df528b89f7aa06b930e","67949641171f97c04e14fb34","679c23d6ea31c37473567d34","","6429","[""Final order was 1,2,3,4,5. The initial order was 2,1,3,4,5.<br>It took 1 swaps to sort it correctly with Omgne Sort. <br><br>Press Enter to continue.""]","enter","",""
"","","","","","html-keyboard-response","96","124879","0.0-46.0","56","1","2025-01-31 01:14:23","af8d355d56820e421d246a7037deb6e6","47.230.12.148","Mozilla/5.0 (Windows NT 10.0; Win64; x64) AppleWebKit/537.36 (KHTML, like Gecko) Chrome/132.0.0.0 Safari/537.36","WebKit","Chrome","132.0.0.0","Windows","10.0","https://app.prolific.com/","en-US,en;q=0.9","678f1df528b89f7aa06b930e","67949641171f97c04e14fb34","679c23d6ea31c37473567d34","","2895","[""Example 2<br><br>You will watch Omnge Sort in action. Try to identify any patterns in the comparisons made by this method. <br><br>Press Enter to continue.""]","enter","",""
"","","","","","html-keyboard-response","97","125388","0.0-47.0","56","1","2025-01-31 01:14:23","af8d355d56820e421d246a7037deb6e6","47.230.12.148","Mozilla/5.0 (Windows NT 10.0; Win64; x64) AppleWebKit/537.36 (KHTML, like Gecko) Chrome/132.0.0.0 Safari/537.36","WebKit","Chrome","132.0.0.0","Windows","10.0","https://app.prolific.com/","en-US,en;q=0.9","678f1df528b89f7aa06b930e","67949641171f97c04e14fb34","679c23d6ea31c37473567d34","","null","<img id='selected' src='G_6.jpg' height='90'> <img src='G_4.jpg' height='90'> <img src='G_8.jpg' height='90'> <img src='G_7.jpg' height='90'> <img src='G_1.jpg' height='90'> <img src='G_2.jpg' height='90'> <img src='G_5.jpg' height='90'> <img src='G_3.jpg' height='90'>","null","Animation1",""
"","","","","","html-keyboard-response","98","125899","0.0-48.0","56","1","2025-01-31 01:14:23","af8d355d56820e421d246a7037deb6e6","47.230.12.148","Mozilla/5.0 (Windows NT 10.0; Win64; x64) AppleWebKit/537.36 (KHTML, like Gecko) Chrome/132.0.0.0 Safari/537.36","WebKit","Chrome","132.0.0.0","Windows","10.0","https://app.prolific.com/","en-US,en;q=0.9","678f1df528b89f7aa06b930e","67949641171f97c04e14fb34","679c23d6ea31c37473567d34","","null","<img id='selected' src='G_6.jpg' height='90'> <img id='selected' src='G_4.jpg' height='90'> <img src='G_8.jpg' height='90'> <img src='G_7.jpg' height='90'> <img src='G_1.jpg' height='90'> <img src='G_2.jpg' height='90'> <img src='G_5.jpg' height='90'> <img src='G_3.jpg' height='90'>","null","Animation1",""
"","","","","","html-keyboard-response","99","126414","0.0-49.0","56","1","2025-01-31 01:14:23","af8d355d56820e421d246a7037deb6e6","47.230.12.148","Mozilla/5.0 (Windows NT 10.0; Win64; x64) AppleWebKit/537.36 (KHTML, like Gecko) Chrome/132.0.0.0 Safari/537.36","WebKit","Chrome","132.0.0.0","Windows","10.0","https://app.prolific.com/","en-US,en;q=0.9","678f1df528b89f7aa06b930e","67949641171f97c04e14fb34","679c23d6ea31c37473567d34","","null","<img id='selected' src='G_6.jpg' height='90'> <img id='selected' src='G_4.jpg' height='90'> <img src='G_8.jpg' height='90'> <img src='G_7.jpg' height='90'> <img src='G_1.jpg' height='90'> <img src='G_2.jpg' height='90'> <img src='G_5.jpg' height='90'> <img src='G_3.jpg' height='90'>","null","Animation1",""
"","","","","","html-keyboard-response","100","126727","0.0-50.0","56","1","2025-01-31 01:14:23","af8d355d56820e421d246a7037deb6e6","47.230.12.148","Mozilla/5.0 (Windows NT 10.0; Win64; x64) AppleWebKit/537.36 (KHTML, like Gecko) Chrome/132.0.0.0 Safari/537.36","WebKit","Chrome","132.0.0.0","Windows","10.0","https://app.prolific.com/","en-US,en;q=0.9","678f1df528b89f7aa06b930e","67949641171f97c04e14fb34","679c23d6ea31c37473567d34","","null","<img  src='G_6.jpg' height='90'> <img  src='G_4.jpg' height='90'> <img src='G_8.jpg' height='90'> <img src='G_7.jpg' height='90'> <img src='G_1.jpg' height='90'> <img src='G_2.jpg' height='90'> <img src='G_5.jpg' height='90'> <img src='G_3.jpg' height='90'>","null","Animation1",""
"","","","","","html-keyboard-response","101","127243","0.0-51.0","56","1","2025-01-31 01:14:23","af8d355d56820e421d246a7037deb6e6","47.230.12.148","Mozilla/5.0 (Windows NT 10.0; Win64; x64) AppleWebKit/537.36 (KHTML, like Gecko) Chrome/132.0.0.0 Safari/537.36","WebKit","Chrome","132.0.0.0","Windows","10.0","https://app.prolific.com/","en-US,en;q=0.9","678f1df528b89f7aa06b930e","67949641171f97c04e14fb34","679c23d6ea31c37473567d34","","null","<img  src='G_6.jpg' height='90'> <img id='selected'  src='G_4.jpg' height='90'> <img src='G_8.jpg' height='90'> <img src='G_7.jpg' height='90'> <img src='G_1.jpg' height='90'> <img src='G_2.jpg' height='90'> <img src='G_5.jpg' height='90'> <img src='G_3.jpg' height='90'>","null","Animation1",""
"","","","","","html-keyboard-response","102","127755","0.0-52.0","56","1","2025-01-31 01:14:23","af8d355d56820e421d246a7037deb6e6","47.230.12.148","Mozilla/5.0 (Windows NT 10.0; Win64; x64) AppleWebKit/537.36 (KHTML, like Gecko) Chrome/132.0.0.0 Safari/537.36","WebKit","Chrome","132.0.0.0","Windows","10.0","https://app.prolific.com/","en-US,en;q=0.9","678f1df528b89f7aa06b930e","67949641171f97c04e14fb34","679c23d6ea31c37473567d34","","null","<img  src='G_6.jpg' height='90'> <img id='selected'  src='G_4.jpg' height='90'> <img id='selected' src='G_8.jpg' height='90'> <img src='G_7.jpg' height='90'> <img src='G_1.jpg' height='90'> <img src='G_2.jpg' height='90'> <img src='G_5.jpg' height='90'> <img src='G_3.jpg' height='90'>","null","Animation1",""
"","","","","","html-keyboard-response","103","128270","0.0-53.0","56","1","2025-01-31 01:14:23","af8d355d56820e421d246a7037deb6e6","47.230.12.148","Mozilla/5.0 (Windows NT 10.0; Win64; x64) AppleWebKit/537.36 (KHTML, like Gecko) Chrome/132.0.0.0 Safari/537.36","WebKit","Chrome","132.0.0.0","Windows","10.0","https://app.prolific.com/","en-US,en;q=0.9","678f1df528b89f7aa06b930e","67949641171f97c04e14fb34","679c23d6ea31c37473567d34","","null","<img  src='G_6.jpg' height='90'> <img id='swapped' src='G_8.jpg' height='90'> <img id='swapped'  src='G_4.jpg' height='90'> <img src='G_7.jpg' height='90'> <img src='G_1.jpg' height='90'> <img src='G_2.jpg' height='90'> <img src='G_5.jpg' height='90'> <img src='G_3.jpg' height='90'>","null","Animation1",""
"","","","","","html-keyboard-response","104","128582","0.0-54.0","56","1","2025-01-31 01:14:23","af8d355d56820e421d246a7037deb6e6","47.230.12.148","Mozilla/5.0 (Windows NT 10.0; Win64; x64) AppleWebKit/537.36 (KHTML, like Gecko) Chrome/132.0.0.0 Safari/537.36","WebKit","Chrome","132.0.0.0","Windows","10.0","https://app.prolific.com/","en-US,en;q=0.9","678f1df528b89f7aa06b930e","67949641171f97c04e14fb34","679c23d6ea31c37473567d34","","null","<img  src='G_6.jpg' height='90'> <img  src='G_8.jpg' height='90'> <img   src='G_4.jpg' height='90'> <img src='G_7.jpg' height='90'> <img src='G_1.jpg' height='90'> <img src='G_2.jpg' height='90'> <img src='G_5.jpg' height='90'> <img src='G_3.jpg' height='90'>","null","Animation1",""
"","","","","","html-keyboard-response","105","129098","0.0-55.0","56","1","2025-01-31 01:14:23","af8d355d56820e421d246a7037deb6e6","47.230.12.148","Mozilla/5.0 (Windows NT 10.0; Win64; x64) AppleWebKit/537.36 (KHTML, like Gecko) Chrome/132.0.0.0 Safari/537.36","WebKit","Chrome","132.0.0.0","Windows","10.0","https://app.prolific.com/","en-US,en;q=0.9","678f1df528b89f7aa06b930e","67949641171f97c04e14fb34","679c23d6ea31c37473567d34","","null","<img id='selected'  src='G_6.jpg' height='90'> <img  src='G_8.jpg' height='90'> <img   src='G_4.jpg' height='90'> <img src='G_7.jpg' height='90'> <img src='G_1.jpg' height='90'> <img src='G_2.jpg' height='90'> <img src='G_5.jpg' height='90'> <img src='G_3.jpg' height='90'>","null","Animation1",""
"","","","","","html-keyboard-response","106","129610","0.0-56.0","56","1","2025-01-31 01:14:23","af8d355d56820e421d246a7037deb6e6","47.230.12.148","Mozilla/5.0 (Windows NT 10.0; Win64; x64) AppleWebKit/537.36 (KHTML, like Gecko) Chrome/132.0.0.0 Safari/537.36","WebKit","Chrome","132.0.0.0","Windows","10.0","https://app.prolific.com/","en-US,en;q=0.9","678f1df528b89f7aa06b930e","67949641171f97c04e14fb34","679c23d6ea31c37473567d34","","null","<img id='selected'  src='G_6.jpg' height='90'> <img id='selected'  src='G_8.jpg' height='90'> <img   src='G_4.jpg' height='90'> <img src='G_7.jpg' height='90'> <img src='G_1.jpg' height='90'> <img src='G_2.jpg' height='90'> <img src='G_5.jpg' height='90'> <img src='G_3.jpg' height='90'>","null","Animation1",""
"","","","","","html-keyboard-response","107","130123","0.0-57.0","56","1","2025-01-31 01:14:23","af8d355d56820e421d246a7037deb6e6","47.230.12.148","Mozilla/5.0 (Windows NT 10.0; Win64; x64) AppleWebKit/537.36 (KHTML, like Gecko) Chrome/132.0.0.0 Safari/537.36","WebKit","Chrome","132.0.0.0","Windows","10.0","https://app.prolific.com/","en-US,en;q=0.9","678f1df528b89f7aa06b930e","67949641171f97c04e14fb34","679c23d6ea31c37473567d34","","null","<img id='swapped'  src='G_8.jpg' height='90'> <img id='swapped'  src='G_6.jpg' height='90'> <img   src='G_4.jpg' height='90'> <img src='G_7.jpg' height='90'> <img src='G_1.jpg' height='90'> <img src='G_2.jpg' height='90'> <img src='G_5.jpg' height='90'> <img src='G_3.jpg' height='90'>","null","Animation1",""
"","","","","","html-keyboard-response","108","130434","0.0-58.0","56","1","2025-01-31 01:14:23","af8d355d56820e421d246a7037deb6e6","47.230.12.148","Mozilla/5.0 (Windows NT 10.0; Win64; x64) AppleWebKit/537.36 (KHTML, like Gecko) Chrome/132.0.0.0 Safari/537.36","WebKit","Chrome","132.0.0.0","Windows","10.0","https://app.prolific.com/","en-US,en;q=0.9","678f1df528b89f7aa06b930e","67949641171f97c04e14fb34","679c23d6ea31c37473567d34","","null","<img   src='G_8.jpg' height='90'> <img   src='G_6.jpg' height='90'> <img   src='G_4.jpg' height='90'> <img src='G_7.jpg' height='90'> <img src='G_1.jpg' height='90'> <img src='G_2.jpg' height='90'> <img src='G_5.jpg' height='90'> <img src='G_3.jpg' height='90'>","null","Animation1",""
"","","","","","html-keyboard-response","109","130948","0.0-59.0","56","1","2025-01-31 01:14:23","af8d355d56820e421d246a7037deb6e6","47.230.12.148","Mozilla/5.0 (Windows NT 10.0; Win64; x64) AppleWebKit/537.36 (KHTML, like Gecko) Chrome/132.0.0.0 Safari/537.36","WebKit","Chrome","132.0.0.0","Windows","10.0","https://app.prolific.com/","en-US,en;q=0.9","678f1df528b89f7aa06b930e","67949641171f97c04e14fb34","679c23d6ea31c37473567d34","","null","<img   src='G_8.jpg' height='90'> <img   src='G_6.jpg' height='90'> <img id='selected'   src='G_4.jpg' height='90'> <img src='G_7.jpg' height='90'> <img src='G_1.jpg' height='90'> <img src='G_2.jpg' height='90'> <img src='G_5.jpg' height='90'> <img src='G_3.jpg' height='90'>","null","Animation1",""
"","","","","","html-keyboard-response","110","131461","0.0-60.0","56","1","2025-01-31 01:14:23","af8d355d56820e421d246a7037deb6e6","47.230.12.148","Mozilla/5.0 (Windows NT 10.0; Win64; x64) AppleWebKit/537.36 (KHTML, like Gecko) Chrome/132.0.0.0 Safari/537.36","WebKit","Chrome","132.0.0.0","Windows","10.0","https://app.prolific.com/","en-US,en;q=0.9","678f1df528b89f7aa06b930e","67949641171f97c04e14fb34","679c23d6ea31c37473567d34","","null","<img   src='G_8.jpg' height='90'> <img   src='G_6.jpg' height='90'> <img id='selected'   src='G_4.jpg' height='90'> <img id='selected' src='G_7.jpg' height='90'> <img src='G_1.jpg' height='90'> <img src='G_2.jpg' height='90'> <img src='G_5.jpg' height='90'> <img src='G_3.jpg' height='90'>","null","Animation1",""
"","","","","","html-keyboard-response","111","131974","0.0-61.0","56","1","2025-01-31 01:14:23","af8d355d56820e421d246a7037deb6e6","47.230.12.148","Mozilla/5.0 (Windows NT 10.0; Win64; x64) AppleWebKit/537.36 (KHTML, like Gecko) Chrome/132.0.0.0 Safari/537.36","WebKit","Chrome","132.0.0.0","Windows","10.0","https://app.prolific.com/","en-US,en;q=0.9","678f1df528b89f7aa06b930e","67949641171f97c04e14fb34","679c23d6ea31c37473567d34","","null","<img   src='G_8.jpg' height='90'> <img   src='G_6.jpg' height='90'> <img id='swapped' src='G_7.jpg' height='90'> <img id='swapped'   src='G_4.jpg' height='90'> <img src='G_1.jpg' height='90'> <img src='G_2.jpg' height='90'> <img src='G_5.jpg' height='90'> <img src='G_3.jpg' height='90'>","null","Animation1",""
"","","","","","html-keyboard-response","112","132284","0.0-62.0","56","1","2025-01-31 01:14:23","af8d355d56820e421d246a7037deb6e6","47.230.12.148","Mozilla/5.0 (Windows NT 10.0; Win64; x64) AppleWebKit/537.36 (KHTML, like Gecko) Chrome/132.0.0.0 Safari/537.36","WebKit","Chrome","132.0.0.0","Windows","10.0","https://app.prolific.com/","en-US,en;q=0.9","678f1df528b89f7aa06b930e","67949641171f97c04e14fb34","679c23d6ea31c37473567d34","","null","<img   src='G_8.jpg' height='90'> <img   src='G_6.jpg' height='90'> <img  src='G_7.jpg' height='90'> <img    src='G_4.jpg' height='90'> <img src='G_1.jpg' height='90'> <img src='G_2.jpg' height='90'> <img src='G_5.jpg' height='90'> <img src='G_3.jpg' height='90'>","null","Animation1",""
"","","","","","html-keyboard-response","113","132798","0.0-63.0","56","1","2025-01-31 01:14:23","af8d355d56820e421d246a7037deb6e6","47.230.12.148","Mozilla/5.0 (Windows NT 10.0; Win64; x64) AppleWebKit/537.36 (KHTML, like Gecko) Chrome/132.0.0.0 Safari/537.36","WebKit","Chrome","132.0.0.0","Windows","10.0","https://app.prolific.com/","en-US,en;q=0.9","678f1df528b89f7aa06b930e","67949641171f97c04e14fb34","679c23d6ea31c37473567d34","","null","<img   src='G_8.jpg' height='90'> <img id='selected'   src='G_6.jpg' height='90'> <img  src='G_7.jpg' height='90'> <img    src='G_4.jpg' height='90'> <img src='G_1.jpg' height='90'> <img src='G_2.jpg' height='90'> <img src='G_5.jpg' height='90'> <img src='G_3.jpg' height='90'>","null","Animation1",""
"","","","","","html-keyboard-response","114","133312","0.0-64.0","56","1","2025-01-31 01:14:23","af8d355d56820e421d246a7037deb6e6","47.230.12.148","Mozilla/5.0 (Windows NT 10.0; Win64; x64) AppleWebKit/537.36 (KHTML, like Gecko) Chrome/132.0.0.0 Safari/537.36","WebKit","Chrome","132.0.0.0","Windows","10.0","https://app.prolific.com/","en-US,en;q=0.9","678f1df528b89f7aa06b930e","67949641171f97c04e14fb34","679c23d6ea31c37473567d34","","null","<img   src='G_8.jpg' height='90'> <img id='selected'   src='G_6.jpg' height='90'> <img id='selected'  src='G_7.jpg' height='90'> <img    src='G_4.jpg' height='90'> <img src='G_1.jpg' height='90'> <img src='G_2.jpg' height='90'> <img src='G_5.jpg' height='90'> <img src='G_3.jpg' height='90'>","null","Animation1",""
"","","","","","html-keyboard-response","115","133826","0.0-65.0","56","1","2025-01-31 01:14:23","af8d355d56820e421d246a7037deb6e6","47.230.12.148","Mozilla/5.0 (Windows NT 10.0; Win64; x64) AppleWebKit/537.36 (KHTML, like Gecko) Chrome/132.0.0.0 Safari/537.36","WebKit","Chrome","132.0.0.0","Windows","10.0","https://app.prolific.com/","en-US,en;q=0.9","678f1df528b89f7aa06b930e","67949641171f97c04e14fb34","679c23d6ea31c37473567d34","","null","<img   src='G_8.jpg' height='90'> <img id='swapped'  src='G_7.jpg' height='90'> <img id='swapped'   src='G_6.jpg' height='90'> <img    src='G_4.jpg' height='90'> <img src='G_1.jpg' height='90'> <img src='G_2.jpg' height='90'> <img src='G_5.jpg' height='90'> <img src='G_3.jpg' height='90'>","null","Animation1",""
"","","","","","html-keyboard-response","116","134137","0.0-66.0","56","1","2025-01-31 01:14:23","af8d355d56820e421d246a7037deb6e6","47.230.12.148","Mozilla/5.0 (Windows NT 10.0; Win64; x64) AppleWebKit/537.36 (KHTML, like Gecko) Chrome/132.0.0.0 Safari/537.36","WebKit","Chrome","132.0.0.0","Windows","10.0","https://app.prolific.com/","en-US,en;q=0.9","678f1df528b89f7aa06b930e","67949641171f97c04e14fb34","679c23d6ea31c37473567d34","","null","<img   src='G_8.jpg' height='90'> <img   src='G_7.jpg' height='90'> <img    src='G_6.jpg' height='90'> <img    src='G_4.jpg' height='90'> <img src='G_1.jpg' height='90'> <img src='G_2.jpg' height='90'> <img src='G_5.jpg' height='90'> <img src='G_3.jpg' height='90'>","null","Animation1",""
"","","","","","html-keyboard-response","117","134649","0.0-67.0","56","1","2025-01-31 01:14:23","af8d355d56820e421d246a7037deb6e6","47.230.12.148","Mozilla/5.0 (Windows NT 10.0; Win64; x64) AppleWebKit/537.36 (KHTML, like Gecko) Chrome/132.0.0.0 Safari/537.36","WebKit","Chrome","132.0.0.0","Windows","10.0","https://app.prolific.com/","en-US,en;q=0.9","678f1df528b89f7aa06b930e","67949641171f97c04e14fb34","679c23d6ea31c37473567d34","","null","<img id='selected'   src='G_8.jpg' height='90'> <img   src='G_7.jpg' height='90'> <img    src='G_6.jpg' height='90'> <img    src='G_4.jpg' height='90'> <img src='G_1.jpg' height='90'> <img src='G_2.jpg' height='90'> <img src='G_5.jpg' height='90'> <img src='G_3.jpg' height='90'>","null","Animation1",""
"","","","","","html-keyboard-response","118","135161","0.0-68.0","56","1","2025-01-31 01:14:23","af8d355d56820e421d246a7037deb6e6","47.230.12.148","Mozilla/5.0 (Windows NT 10.0; Win64; x64) AppleWebKit/537.36 (KHTML, like Gecko) Chrome/132.0.0.0 Safari/537.36","WebKit","Chrome","132.0.0.0","Windows","10.0","https://app.prolific.com/","en-US,en;q=0.9","678f1df528b89f7aa06b930e","67949641171f97c04e14fb34","679c23d6ea31c37473567d34","","null","<img id='selected'   src='G_8.jpg' height='90'> <img id='selected'   src='G_7.jpg' height='90'> <img    src='G_6.jpg' height='90'> <img    src='G_4.jpg' height='90'> <img src='G_1.jpg' height='90'> <img src='G_2.jpg' height='90'> <img src='G_5.jpg' height='90'> <img src='G_3.jpg' height='90'>","null","Animation1",""
"","","","","","html-keyboard-response","119","135677","0.0-69.0","56","1","2025-01-31 01:14:23","af8d355d56820e421d246a7037deb6e6","47.230.12.148","Mozilla/5.0 (Windows NT 10.0; Win64; x64) AppleWebKit/537.36 (KHTML, like Gecko) Chrome/132.0.0.0 Safari/537.36","WebKit","Chrome","132.0.0.0","Windows","10.0","https://app.prolific.com/","en-US,en;q=0.9","678f1df528b89f7aa06b930e","67949641171f97c04e14fb34","679c23d6ea31c37473567d34","","null","<img id='swapped'   src='G_7.jpg' height='90'> <img id='swapped'   src='G_8.jpg' height='90'> <img    src='G_6.jpg' height='90'> <img    src='G_4.jpg' height='90'> <img src='G_1.jpg' height='90'> <img src='G_2.jpg' height='90'> <img src='G_5.jpg' height='90'> <img src='G_3.jpg' height='90'>","null","Animation1",""
"","","","","","html-keyboard-response","120","135989","0.0-70.0","56","1","2025-01-31 01:14:23","af8d355d56820e421d246a7037deb6e6","47.230.12.148","Mozilla/5.0 (Windows NT 10.0; Win64; x64) AppleWebKit/537.36 (KHTML, like Gecko) Chrome/132.0.0.0 Safari/537.36","WebKit","Chrome","132.0.0.0","Windows","10.0","https://app.prolific.com/","en-US,en;q=0.9","678f1df528b89f7aa06b930e","67949641171f97c04e14fb34","679c23d6ea31c37473567d34","","null","<img    src='G_7.jpg' height='90'> <img    src='G_8.jpg' height='90'> <img    src='G_6.jpg' height='90'> <img    src='G_4.jpg' height='90'> <img src='G_1.jpg' height='90'> <img src='G_2.jpg' height='90'> <img src='G_5.jpg' height='90'> <img src='G_3.jpg' height='90'>","null","Animation1",""
"","","","","","html-keyboard-response","121","136503","0.0-71.0","56","1","2025-01-31 01:14:23","af8d355d56820e421d246a7037deb6e6","47.230.12.148","Mozilla/5.0 (Windows NT 10.0; Win64; x64) AppleWebKit/537.36 (KHTML, like Gecko) Chrome/132.0.0.0 Safari/537.36","WebKit","Chrome","132.0.0.0","Windows","10.0","https://app.prolific.com/","en-US,en;q=0.9","678f1df528b89f7aa06b930e","67949641171f97c04e14fb34","679c23d6ea31c37473567d34","","null","<img    src='G_7.jpg' height='90'> <img    src='G_8.jpg' height='90'> <img    src='G_6.jpg' height='90'> <img id='selected'    src='G_4.jpg' height='90'> <img src='G_1.jpg' height='90'> <img src='G_2.jpg' height='90'> <img src='G_5.jpg' height='90'> <img src='G_3.jpg' height='90'>","null","Animation1",""
"","","","","","html-keyboard-response","122","137014","0.0-72.0","56","1","2025-01-31 01:14:23","af8d355d56820e421d246a7037deb6e6","47.230.12.148","Mozilla/5.0 (Windows NT 10.0; Win64; x64) AppleWebKit/537.36 (KHTML, like Gecko) Chrome/132.0.0.0 Safari/537.36","WebKit","Chrome","132.0.0.0","Windows","10.0","https://app.prolific.com/","en-US,en;q=0.9","678f1df528b89f7aa06b930e","67949641171f97c04e14fb34","679c23d6ea31c37473567d34","","null","<img    src='G_7.jpg' height='90'> <img    src='G_8.jpg' height='90'> <img    src='G_6.jpg' height='90'> <img id='selected'    src='G_4.jpg' height='90'> <img id='selected' src='G_1.jpg' height='90'> <img src='G_2.jpg' height='90'> <img src='G_5.jpg' height='90'> <img src='G_3.jpg' height='90'>","null","Animation1",""
"","","","","","html-keyboard-response","123","137527","0.0-73.0","56","1","2025-01-31 01:14:23","af8d355d56820e421d246a7037deb6e6","47.230.12.148","Mozilla/5.0 (Windows NT 10.0; Win64; x64) AppleWebKit/537.36 (KHTML, like Gecko) Chrome/132.0.0.0 Safari/537.36","WebKit","Chrome","132.0.0.0","Windows","10.0","https://app.prolific.com/","en-US,en;q=0.9","678f1df528b89f7aa06b930e","67949641171f97c04e14fb34","679c23d6ea31c37473567d34","","null","<img    src='G_7.jpg' height='90'> <img    src='G_8.jpg' height='90'> <img    src='G_6.jpg' height='90'> <img id='swapped' src='G_1.jpg' height='90'> <img id='swapped'    src='G_4.jpg' height='90'> <img src='G_2.jpg' height='90'> <img src='G_5.jpg' height='90'> <img src='G_3.jpg' height='90'>","null","Animation1",""
"","","","","","html-keyboard-response","124","137842","0.0-74.0","56","1","2025-01-31 01:14:23","af8d355d56820e421d246a7037deb6e6","47.230.12.148","Mozilla/5.0 (Windows NT 10.0; Win64; x64) AppleWebKit/537.36 (KHTML, like Gecko) Chrome/132.0.0.0 Safari/537.36","WebKit","Chrome","132.0.0.0","Windows","10.0","https://app.prolific.com/","en-US,en;q=0.9","678f1df528b89f7aa06b930e","67949641171f97c04e14fb34","679c23d6ea31c37473567d34","","null","<img    src='G_7.jpg' height='90'> <img    src='G_8.jpg' height='90'> <img    src='G_6.jpg' height='90'> <img  src='G_1.jpg' height='90'> <img     src='G_4.jpg' height='90'> <img src='G_2.jpg' height='90'> <img src='G_5.jpg' height='90'> <img src='G_3.jpg' height='90'>","null","Animation1",""
"","","","","","html-keyboard-response","125","138354","0.0-75.0","56","1","2025-01-31 01:14:23","af8d355d56820e421d246a7037deb6e6","47.230.12.148","Mozilla/5.0 (Windows NT 10.0; Win64; x64) AppleWebKit/537.36 (KHTML, like Gecko) Chrome/132.0.0.0 Safari/537.36","WebKit","Chrome","132.0.0.0","Windows","10.0","https://app.prolific.com/","en-US,en;q=0.9","678f1df528b89f7aa06b930e","67949641171f97c04e14fb34","679c23d6ea31c37473567d34","","null","<img    src='G_7.jpg' height='90'> <img    src='G_8.jpg' height='90'> <img id='selected'    src='G_6.jpg' height='90'> <img  src='G_1.jpg' height='90'> <img     src='G_4.jpg' height='90'> <img src='G_2.jpg' height='90'> <img src='G_5.jpg' height='90'> <img src='G_3.jpg' height='90'>","null","Animation1",""
"","","","","","html-keyboard-response","126","138867","0.0-76.0","56","1","2025-01-31 01:14:23","af8d355d56820e421d246a7037deb6e6","47.230.12.148","Mozilla/5.0 (Windows NT 10.0; Win64; x64) AppleWebKit/537.36 (KHTML, like Gecko) Chrome/132.0.0.0 Safari/537.36","WebKit","Chrome","132.0.0.0","Windows","10.0","https://app.prolific.com/","en-US,en;q=0.9","678f1df528b89f7aa06b930e","67949641171f97c04e14fb34","679c23d6ea31c37473567d34","","null","<img    src='G_7.jpg' height='90'> <img    src='G_8.jpg' height='90'> <img id='selected'    src='G_6.jpg' height='90'> <img id='selected'  src='G_1.jpg' height='90'> <img     src='G_4.jpg' height='90'> <img src='G_2.jpg' height='90'> <img src='G_5.jpg' height='90'> <img src='G_3.jpg' height='90'>","null","Animation1",""
"","","","","","html-keyboard-response","127","139380","0.0-77.0","56","1","2025-01-31 01:14:23","af8d355d56820e421d246a7037deb6e6","47.230.12.148","Mozilla/5.0 (Windows NT 10.0; Win64; x64) AppleWebKit/537.36 (KHTML, like Gecko) Chrome/132.0.0.0 Safari/537.36","WebKit","Chrome","132.0.0.0","Windows","10.0","https://app.prolific.com/","en-US,en;q=0.9","678f1df528b89f7aa06b930e","67949641171f97c04e14fb34","679c23d6ea31c37473567d34","","null","<img    src='G_7.jpg' height='90'> <img    src='G_8.jpg' height='90'> <img id='swapped'  src='G_1.jpg' height='90'> <img id='swapped'    src='G_6.jpg' height='90'> <img     src='G_4.jpg' height='90'> <img src='G_2.jpg' height='90'> <img src='G_5.jpg' height='90'> <img src='G_3.jpg' height='90'>","null","Animation1",""
"","","","","","html-keyboard-response","128","139693","0.0-78.0","56","1","2025-01-31 01:14:23","af8d355d56820e421d246a7037deb6e6","47.230.12.148","Mozilla/5.0 (Windows NT 10.0; Win64; x64) AppleWebKit/537.36 (KHTML, like Gecko) Chrome/132.0.0.0 Safari/537.36","WebKit","Chrome","132.0.0.0","Windows","10.0","https://app.prolific.com/","en-US,en;q=0.9","678f1df528b89f7aa06b930e","67949641171f97c04e14fb34","679c23d6ea31c37473567d34","","null","<img    src='G_7.jpg' height='90'> <img    src='G_8.jpg' height='90'> <img   src='G_1.jpg' height='90'> <img     src='G_6.jpg' height='90'> <img     src='G_4.jpg' height='90'> <img src='G_2.jpg' height='90'> <img src='G_5.jpg' height='90'> <img src='G_3.jpg' height='90'>","null","Animation1",""
"","","","","","html-keyboard-response","129","140206","0.0-79.0","56","1","2025-01-31 01:14:23","af8d355d56820e421d246a7037deb6e6","47.230.12.148","Mozilla/5.0 (Windows NT 10.0; Win64; x64) AppleWebKit/537.36 (KHTML, like Gecko) Chrome/132.0.0.0 Safari/537.36","WebKit","Chrome","132.0.0.0","Windows","10.0","https://app.prolific.com/","en-US,en;q=0.9","678f1df528b89f7aa06b930e","67949641171f97c04e14fb34","679c23d6ea31c37473567d34","","null","<img    src='G_7.jpg' height='90'> <img id='selected'    src='G_8.jpg' height='90'> <img   src='G_1.jpg' height='90'> <img     src='G_6.jpg' height='90'> <img     src='G_4.jpg' height='90'> <img src='G_2.jpg' height='90'> <img src='G_5.jpg' height='90'> <img src='G_3.jpg' height='90'>","null","Animation1",""
"","","","","","html-keyboard-response","130","140718","0.0-80.0","56","1","2025-01-31 01:14:23","af8d355d56820e421d246a7037deb6e6","47.230.12.148","Mozilla/5.0 (Windows NT 10.0; Win64; x64) AppleWebKit/537.36 (KHTML, like Gecko) Chrome/132.0.0.0 Safari/537.36","WebKit","Chrome","132.0.0.0","Windows","10.0","https://app.prolific.com/","en-US,en;q=0.9","678f1df528b89f7aa06b930e","67949641171f97c04e14fb34","679c23d6ea31c37473567d34","","null","<img    src='G_7.jpg' height='90'> <img id='selected'    src='G_8.jpg' height='90'> <img id='selected'   src='G_1.jpg' height='90'> <img     src='G_6.jpg' height='90'> <img     src='G_4.jpg' height='90'> <img src='G_2.jpg' height='90'> <img src='G_5.jpg' height='90'> <img src='G_3.jpg' height='90'>","null","Animation1",""
"","","","","","html-keyboard-response","131","141230","0.0-81.0","56","1","2025-01-31 01:14:23","af8d355d56820e421d246a7037deb6e6","47.230.12.148","Mozilla/5.0 (Windows NT 10.0; Win64; x64) AppleWebKit/537.36 (KHTML, like Gecko) Chrome/132.0.0.0 Safari/537.36","WebKit","Chrome","132.0.0.0","Windows","10.0","https://app.prolific.com/","en-US,en;q=0.9","678f1df528b89f7aa06b930e","67949641171f97c04e14fb34","679c23d6ea31c37473567d34","","null","<img    src='G_7.jpg' height='90'> <img id='swapped'   src='G_1.jpg' height='90'> <img id='swapped'    src='G_8.jpg' height='90'> <img     src='G_6.jpg' height='90'> <img     src='G_4.jpg' height='90'> <img src='G_2.jpg' height='90'> <img src='G_5.jpg' height='90'> <img src='G_3.jpg' height='90'>","null","Animation1",""
"","","","","","html-keyboard-response","132","141542","0.0-82.0","56","1","2025-01-31 01:14:23","af8d355d56820e421d246a7037deb6e6","47.230.12.148","Mozilla/5.0 (Windows NT 10.0; Win64; x64) AppleWebKit/537.36 (KHTML, like Gecko) Chrome/132.0.0.0 Safari/537.36","WebKit","Chrome","132.0.0.0","Windows","10.0","https://app.prolific.com/","en-US,en;q=0.9","678f1df528b89f7aa06b930e","67949641171f97c04e14fb34","679c23d6ea31c37473567d34","","null","<img    src='G_7.jpg' height='90'> <img    src='G_1.jpg' height='90'> <img     src='G_8.jpg' height='90'> <img     src='G_6.jpg' height='90'> <img     src='G_4.jpg' height='90'> <img src='G_2.jpg' height='90'> <img src='G_5.jpg' height='90'> <img src='G_3.jpg' height='90'>","null","Animation1",""
"","","","","","html-keyboard-response","133","142056","0.0-83.0","56","1","2025-01-31 01:14:23","af8d355d56820e421d246a7037deb6e6","47.230.12.148","Mozilla/5.0 (Windows NT 10.0; Win64; x64) AppleWebKit/537.36 (KHTML, like Gecko) Chrome/132.0.0.0 Safari/537.36","WebKit","Chrome","132.0.0.0","Windows","10.0","https://app.prolific.com/","en-US,en;q=0.9","678f1df528b89f7aa06b930e","67949641171f97c04e14fb34","679c23d6ea31c37473567d34","","null","<img id='selected'    src='G_7.jpg' height='90'> <img    src='G_1.jpg' height='90'> <img     src='G_8.jpg' height='90'> <img     src='G_6.jpg' height='90'> <img     src='G_4.jpg' height='90'> <img src='G_2.jpg' height='90'> <img src='G_5.jpg' height='90'> <img src='G_3.jpg' height='90'>","null","Animation1",""
"","","","","","html-keyboard-response","134","142570","0.0-84.0","56","1","2025-01-31 01:14:23","af8d355d56820e421d246a7037deb6e6","47.230.12.148","Mozilla/5.0 (Windows NT 10.0; Win64; x64) AppleWebKit/537.36 (KHTML, like Gecko) Chrome/132.0.0.0 Safari/537.36","WebKit","Chrome","132.0.0.0","Windows","10.0","https://app.prolific.com/","en-US,en;q=0.9","678f1df528b89f7aa06b930e","67949641171f97c04e14fb34","679c23d6ea31c37473567d34","","null","<img id='selected'    src='G_7.jpg' height='90'> <img id='selected'    src='G_1.jpg' height='90'> <img     src='G_8.jpg' height='90'> <img     src='G_6.jpg' height='90'> <img     src='G_4.jpg' height='90'> <img src='G_2.jpg' height='90'> <img src='G_5.jpg' height='90'> <img src='G_3.jpg' height='90'>","null","Animation1",""
"","","","","","html-keyboard-response","135","143082","0.0-85.0","56","1","2025-01-31 01:14:23","af8d355d56820e421d246a7037deb6e6","47.230.12.148","Mozilla/5.0 (Windows NT 10.0; Win64; x64) AppleWebKit/537.36 (KHTML, like Gecko) Chrome/132.0.0.0 Safari/537.36","WebKit","Chrome","132.0.0.0","Windows","10.0","https://app.prolific.com/","en-US,en;q=0.9","678f1df528b89f7aa06b930e","67949641171f97c04e14fb34","679c23d6ea31c37473567d34","","null","<img id='selected'    src='G_7.jpg' height='90'> <img id='selected'    src='G_1.jpg' height='90'> <img     src='G_8.jpg' height='90'> <img     src='G_6.jpg' height='90'> <img     src='G_4.jpg' height='90'> <img src='G_2.jpg' height='90'> <img src='G_5.jpg' height='90'> <img src='G_3.jpg' height='90'>","null","Animation1",""
"","","","","","html-keyboard-response","136","143393","0.0-86.0","56","1","2025-01-31 01:14:23","af8d355d56820e421d246a7037deb6e6","47.230.12.148","Mozilla/5.0 (Windows NT 10.0; Win64; x64) AppleWebKit/537.36 (KHTML, like Gecko) Chrome/132.0.0.0 Safari/537.36","WebKit","Chrome","132.0.0.0","Windows","10.0","https://app.prolific.com/","en-US,en;q=0.9","678f1df528b89f7aa06b930e","67949641171f97c04e14fb34","679c23d6ea31c37473567d34","","null","<img     src='G_7.jpg' height='90'> <img     src='G_1.jpg' height='90'> <img     src='G_8.jpg' height='90'> <img     src='G_6.jpg' height='90'> <img     src='G_4.jpg' height='90'> <img src='G_2.jpg' height='90'> <img src='G_5.jpg' height='90'> <img src='G_3.jpg' height='90'>","null","Animation1",""
"","","","","","html-keyboard-response","137","143902","0.0-87.0","56","1","2025-01-31 01:14:23","af8d355d56820e421d246a7037deb6e6","47.230.12.148","Mozilla/5.0 (Windows NT 10.0; Win64; x64) AppleWebKit/537.36 (KHTML, like Gecko) Chrome/132.0.0.0 Safari/537.36","WebKit","Chrome","132.0.0.0","Windows","10.0","https://app.prolific.com/","en-US,en;q=0.9","678f1df528b89f7aa06b930e","67949641171f97c04e14fb34","679c23d6ea31c37473567d34","","null","<img     src='G_7.jpg' height='90'> <img     src='G_1.jpg' height='90'> <img     src='G_8.jpg' height='90'> <img     src='G_6.jpg' height='90'> <img id='selected'     src='G_4.jpg' height='90'> <img src='G_2.jpg' height='90'> <img src='G_5.jpg' height='90'> <img src='G_3.jpg' height='90'>","null","Animation1",""
"","","","","","html-keyboard-response","138","144418","0.0-88.0","56","1","2025-01-31 01:14:23","af8d355d56820e421d246a7037deb6e6","47.230.12.148","Mozilla/5.0 (Windows NT 10.0; Win64; x64) AppleWebKit/537.36 (KHTML, like Gecko) Chrome/132.0.0.0 Safari/537.36","WebKit","Chrome","132.0.0.0","Windows","10.0","https://app.prolific.com/","en-US,en;q=0.9","678f1df528b89f7aa06b930e","67949641171f97c04e14fb34","679c23d6ea31c37473567d34","","null","<img     src='G_7.jpg' height='90'> <img     src='G_1.jpg' height='90'> <img     src='G_8.jpg' height='90'> <img     src='G_6.jpg' height='90'> <img id='selected'     src='G_4.jpg' height='90'> <img id='selected' src='G_2.jpg' height='90'> <img src='G_5.jpg' height='90'> <img src='G_3.jpg' height='90'>","null","Animation1",""
"","","","","","html-keyboard-response","139","144930","0.0-89.0","56","1","2025-01-31 01:14:23","af8d355d56820e421d246a7037deb6e6","47.230.12.148","Mozilla/5.0 (Windows NT 10.0; Win64; x64) AppleWebKit/537.36 (KHTML, like Gecko) Chrome/132.0.0.0 Safari/537.36","WebKit","Chrome","132.0.0.0","Windows","10.0","https://app.prolific.com/","en-US,en;q=0.9","678f1df528b89f7aa06b930e","67949641171f97c04e14fb34","679c23d6ea31c37473567d34","","null","<img     src='G_7.jpg' height='90'> <img     src='G_1.jpg' height='90'> <img     src='G_8.jpg' height='90'> <img     src='G_6.jpg' height='90'> <img id='swapped' src='G_2.jpg' height='90'> <img id='swapped'     src='G_4.jpg' height='90'> <img src='G_5.jpg' height='90'> <img src='G_3.jpg' height='90'>","null","Animation1",""
"","","","","","html-keyboard-response","140","145241","0.0-90.0","56","1","2025-01-31 01:14:23","af8d355d56820e421d246a7037deb6e6","47.230.12.148","Mozilla/5.0 (Windows NT 10.0; Win64; x64) AppleWebKit/537.36 (KHTML, like Gecko) Chrome/132.0.0.0 Safari/537.36","WebKit","Chrome","132.0.0.0","Windows","10.0","https://app.prolific.com/","en-US,en;q=0.9","678f1df528b89f7aa06b930e","67949641171f97c04e14fb34","679c23d6ea31c37473567d34","","null","<img     src='G_7.jpg' height='90'> <img     src='G_1.jpg' height='90'> <img     src='G_8.jpg' height='90'> <img     src='G_6.jpg' height='90'> <img  src='G_2.jpg' height='90'> <img      src='G_4.jpg' height='90'> <img src='G_5.jpg' height='90'> <img src='G_3.jpg' height='90'>","null","Animation1",""
"","","","","","html-keyboard-response","141","145753","0.0-91.0","56","1","2025-01-31 01:14:23","af8d355d56820e421d246a7037deb6e6","47.230.12.148","Mozilla/5.0 (Windows NT 10.0; Win64; x64) AppleWebKit/537.36 (KHTML, like Gecko) Chrome/132.0.0.0 Safari/537.36","WebKit","Chrome","132.0.0.0","Windows","10.0","https://app.prolific.com/","en-US,en;q=0.9","678f1df528b89f7aa06b930e","67949641171f97c04e14fb34","679c23d6ea31c37473567d34","","null","<img     src='G_7.jpg' height='90'> <img     src='G_1.jpg' height='90'> <img     src='G_8.jpg' height='90'> <img id='selected'     src='G_6.jpg' height='90'> <img  src='G_2.jpg' height='90'> <img      src='G_4.jpg' height='90'> <img src='G_5.jpg' height='90'> <img src='G_3.jpg' height='90'>","null","Animation1",""
"","","","","","html-keyboard-response","142","146268","0.0-92.0","56","1","2025-01-31 01:14:23","af8d355d56820e421d246a7037deb6e6","47.230.12.148","Mozilla/5.0 (Windows NT 10.0; Win64; x64) AppleWebKit/537.36 (KHTML, like Gecko) Chrome/132.0.0.0 Safari/537.36","WebKit","Chrome","132.0.0.0","Windows","10.0","https://app.prolific.com/","en-US,en;q=0.9","678f1df528b89f7aa06b930e","67949641171f97c04e14fb34","679c23d6ea31c37473567d34","","null","<img     src='G_7.jpg' height='90'> <img     src='G_1.jpg' height='90'> <img     src='G_8.jpg' height='90'> <img id='selected'     src='G_6.jpg' height='90'> <img id='selected'  src='G_2.jpg' height='90'> <img      src='G_4.jpg' height='90'> <img src='G_5.jpg' height='90'> <img src='G_3.jpg' height='90'>","null","Animation1",""
"","","","","","html-keyboard-response","143","146780","0.0-93.0","56","1","2025-01-31 01:14:23","af8d355d56820e421d246a7037deb6e6","47.230.12.148","Mozilla/5.0 (Windows NT 10.0; Win64; x64) AppleWebKit/537.36 (KHTML, like Gecko) Chrome/132.0.0.0 Safari/537.36","WebKit","Chrome","132.0.0.0","Windows","10.0","https://app.prolific.com/","en-US,en;q=0.9","678f1df528b89f7aa06b930e","67949641171f97c04e14fb34","679c23d6ea31c37473567d34","","null","<img     src='G_7.jpg' height='90'> <img     src='G_1.jpg' height='90'> <img     src='G_8.jpg' height='90'> <img id='selected'     src='G_6.jpg' height='90'> <img id='selected'  src='G_2.jpg' height='90'> <img      src='G_4.jpg' height='90'> <img src='G_5.jpg' height='90'> <img src='G_3.jpg' height='90'>","null","Animation1",""
"","","","","","html-keyboard-response","144","147089","0.0-94.0","56","1","2025-01-31 01:14:23","af8d355d56820e421d246a7037deb6e6","47.230.12.148","Mozilla/5.0 (Windows NT 10.0; Win64; x64) AppleWebKit/537.36 (KHTML, like Gecko) Chrome/132.0.0.0 Safari/537.36","WebKit","Chrome","132.0.0.0","Windows","10.0","https://app.prolific.com/","en-US,en;q=0.9","678f1df528b89f7aa06b930e","67949641171f97c04e14fb34","679c23d6ea31c37473567d34","","null","<img     src='G_7.jpg' height='90'> <img     src='G_1.jpg' height='90'> <img     src='G_8.jpg' height='90'> <img      src='G_6.jpg' height='90'> <img   src='G_2.jpg' height='90'> <img      src='G_4.jpg' height='90'> <img src='G_5.jpg' height='90'> <img src='G_3.jpg' height='90'>","null","Animation1",""
"","","","","","html-keyboard-response","145","147603","0.0-95.0","56","1","2025-01-31 01:14:23","af8d355d56820e421d246a7037deb6e6","47.230.12.148","Mozilla/5.0 (Windows NT 10.0; Win64; x64) AppleWebKit/537.36 (KHTML, like Gecko) Chrome/132.0.0.0 Safari/537.36","WebKit","Chrome","132.0.0.0","Windows","10.0","https://app.prolific.com/","en-US,en;q=0.9","678f1df528b89f7aa06b930e","67949641171f97c04e14fb34","679c23d6ea31c37473567d34","","null","<img     src='G_7.jpg' height='90'> <img     src='G_1.jpg' height='90'> <img     src='G_8.jpg' height='90'> <img      src='G_6.jpg' height='90'> <img   src='G_2.jpg' height='90'> <img id='selected'      src='G_4.jpg' height='90'> <img src='G_5.jpg' height='90'> <img src='G_3.jpg' height='90'>","null","Animation1",""
"","","","","","html-keyboard-response","146","148118","0.0-96.0","56","1","2025-01-31 01:14:23","af8d355d56820e421d246a7037deb6e6","47.230.12.148","Mozilla/5.0 (Windows NT 10.0; Win64; x64) AppleWebKit/537.36 (KHTML, like Gecko) Chrome/132.0.0.0 Safari/537.36","WebKit","Chrome","132.0.0.0","Windows","10.0","https://app.prolific.com/","en-US,en;q=0.9","678f1df528b89f7aa06b930e","67949641171f97c04e14fb34","679c23d6ea31c37473567d34","","null","<img     src='G_7.jpg' height='90'> <img     src='G_1.jpg' height='90'> <img     src='G_8.jpg' height='90'> <img      src='G_6.jpg' height='90'> <img   src='G_2.jpg' height='90'> <img id='selected'      src='G_4.jpg' height='90'> <img id='selected' src='G_5.jpg' height='90'> <img src='G_3.jpg' height='90'>","null","Animation1",""
"","","","","","html-keyboard-response","147","148629","0.0-97.0","56","1","2025-01-31 01:14:23","af8d355d56820e421d246a7037deb6e6","47.230.12.148","Mozilla/5.0 (Windows NT 10.0; Win64; x64) AppleWebKit/537.36 (KHTML, like Gecko) Chrome/132.0.0.0 Safari/537.36","WebKit","Chrome","132.0.0.0","Windows","10.0","https://app.prolific.com/","en-US,en;q=0.9","678f1df528b89f7aa06b930e","67949641171f97c04e14fb34","679c23d6ea31c37473567d34","","null","<img     src='G_7.jpg' height='90'> <img     src='G_1.jpg' height='90'> <img     src='G_8.jpg' height='90'> <img      src='G_6.jpg' height='90'> <img   src='G_2.jpg' height='90'> <img id='selected'      src='G_4.jpg' height='90'> <img id='selected' src='G_5.jpg' height='90'> <img src='G_3.jpg' height='90'>","null","Animation1",""
"","","","","","html-keyboard-response","148","148943","0.0-98.0","56","1","2025-01-31 01:14:23","af8d355d56820e421d246a7037deb6e6","47.230.12.148","Mozilla/5.0 (Windows NT 10.0; Win64; x64) AppleWebKit/537.36 (KHTML, like Gecko) Chrome/132.0.0.0 Safari/537.36","WebKit","Chrome","132.0.0.0","Windows","10.0","https://app.prolific.com/","en-US,en;q=0.9","678f1df528b89f7aa06b930e","67949641171f97c04e14fb34","679c23d6ea31c37473567d34","","null","<img     src='G_7.jpg' height='90'> <img     src='G_1.jpg' height='90'> <img     src='G_8.jpg' height='90'> <img      src='G_6.jpg' height='90'> <img   src='G_2.jpg' height='90'> <img       src='G_4.jpg' height='90'> <img  src='G_5.jpg' height='90'> <img src='G_3.jpg' height='90'>","null","Animation1",""
"","","","","","html-keyboard-response","149","149445","0.0-99.0","56","1","2025-01-31 01:14:23","af8d355d56820e421d246a7037deb6e6","47.230.12.148","Mozilla/5.0 (Windows NT 10.0; Win64; x64) AppleWebKit/537.36 (KHTML, like Gecko) Chrome/132.0.0.0 Safari/537.36","WebKit","Chrome","132.0.0.0","Windows","10.0","https://app.prolific.com/","en-US,en;q=0.9","678f1df528b89f7aa06b930e","67949641171f97c04e14fb34","679c23d6ea31c37473567d34","","null","<img     src='G_7.jpg' height='90'> <img     src='G_1.jpg' height='90'> <img     src='G_8.jpg' height='90'> <img      src='G_6.jpg' height='90'> <img   src='G_2.jpg' height='90'> <img       src='G_4.jpg' height='90'> <img id='selected'  src='G_5.jpg' height='90'> <img src='G_3.jpg' height='90'>","null","Animation1",""
"","","","","","html-keyboard-response","150","149957","0.0-100.0","56","1","2025-01-31 01:14:23","af8d355d56820e421d246a7037deb6e6","47.230.12.148","Mozilla/5.0 (Windows NT 10.0; Win64; x64) AppleWebKit/537.36 (KHTML, like Gecko) Chrome/132.0.0.0 Safari/537.36","WebKit","Chrome","132.0.0.0","Windows","10.0","https://app.prolific.com/","en-US,en;q=0.9","678f1df528b89f7aa06b930e","67949641171f97c04e14fb34","679c23d6ea31c37473567d34","","null","<img     src='G_7.jpg' height='90'> <img     src='G_1.jpg' height='90'> <img     src='G_8.jpg' height='90'> <img      src='G_6.jpg' height='90'> <img   src='G_2.jpg' height='90'> <img       src='G_4.jpg' height='90'> <img id='selected'  src='G_5.jpg' height='90'> <img id='selected' src='G_3.jpg' height='90'>","null","Animation1",""
"","","","","","html-keyboard-response","151","150460","0.0-101.0","56","1","2025-01-31 01:14:23","af8d355d56820e421d246a7037deb6e6","47.230.12.148","Mozilla/5.0 (Windows NT 10.0; Win64; x64) AppleWebKit/537.36 (KHTML, like Gecko) Chrome/132.0.0.0 Safari/537.36","WebKit","Chrome","132.0.0.0","Windows","10.0","https://app.prolific.com/","en-US,en;q=0.9","678f1df528b89f7aa06b930e","67949641171f97c04e14fb34","679c23d6ea31c37473567d34","","null","<img     src='G_7.jpg' height='90'> <img     src='G_1.jpg' height='90'> <img     src='G_8.jpg' height='90'> <img      src='G_6.jpg' height='90'> <img   src='G_2.jpg' height='90'> <img       src='G_4.jpg' height='90'> <img id='swapped' src='G_3.jpg' height='90'> <img id='swapped'  src='G_5.jpg' height='90'>","null","Animation1",""
"","","","","","html-keyboard-response","152","150773","0.0-102.0","56","1","2025-01-31 01:14:23","af8d355d56820e421d246a7037deb6e6","47.230.12.148","Mozilla/5.0 (Windows NT 10.0; Win64; x64) AppleWebKit/537.36 (KHTML, like Gecko) Chrome/132.0.0.0 Safari/537.36","WebKit","Chrome","132.0.0.0","Windows","10.0","https://app.prolific.com/","en-US,en;q=0.9","678f1df528b89f7aa06b930e","67949641171f97c04e14fb34","679c23d6ea31c37473567d34","","null","<img     src='G_7.jpg' height='90'> <img     src='G_1.jpg' height='90'> <img     src='G_8.jpg' height='90'> <img      src='G_6.jpg' height='90'> <img   src='G_2.jpg' height='90'> <img       src='G_4.jpg' height='90'> <img  src='G_3.jpg' height='90'> <img   src='G_5.jpg' height='90'>","null","Animation1",""
"","","","","","html-keyboard-response","153","151287","0.0-103.0","56","1","2025-01-31 01:14:23","af8d355d56820e421d246a7037deb6e6","47.230.12.148","Mozilla/5.0 (Windows NT 10.0; Win64; x64) AppleWebKit/537.36 (KHTML, like Gecko) Chrome/132.0.0.0 Safari/537.36","WebKit","Chrome","132.0.0.0","Windows","10.0","https://app.prolific.com/","en-US,en;q=0.9","678f1df528b89f7aa06b930e","67949641171f97c04e14fb34","679c23d6ea31c37473567d34","","null","<img     src='G_7.jpg' height='90'> <img     src='G_1.jpg' height='90'> <img     src='G_8.jpg' height='90'> <img      src='G_6.jpg' height='90'> <img   src='G_2.jpg' height='90'> <img id='selected'       src='G_4.jpg' height='90'> <img  src='G_3.jpg' height='90'> <img   src='G_5.jpg' height='90'>","null","Animation1",""
"","","","","","html-keyboard-response","154","151799","0.0-104.0","56","1","2025-01-31 01:14:23","af8d355d56820e421d246a7037deb6e6","47.230.12.148","Mozilla/5.0 (Windows NT 10.0; Win64; x64) AppleWebKit/537.36 (KHTML, like Gecko) Chrome/132.0.0.0 Safari/537.36","WebKit","Chrome","132.0.0.0","Windows","10.0","https://app.prolific.com/","en-US,en;q=0.9","678f1df528b89f7aa06b930e","67949641171f97c04e14fb34","679c23d6ea31c37473567d34","","null","<img     src='G_7.jpg' height='90'> <img     src='G_1.jpg' height='90'> <img     src='G_8.jpg' height='90'> <img      src='G_6.jpg' height='90'> <img   src='G_2.jpg' height='90'> <img id='selected'       src='G_4.jpg' height='90'> <img id='selected'  src='G_3.jpg' height='90'> <img   src='G_5.jpg' height='90'>","null","Animation1",""
"","","","","","html-keyboard-response","155","152315","0.0-105.0","56","1","2025-01-31 01:14:23","af8d355d56820e421d246a7037deb6e6","47.230.12.148","Mozilla/5.0 (Windows NT 10.0; Win64; x64) AppleWebKit/537.36 (KHTML, like Gecko) Chrome/132.0.0.0 Safari/537.36","WebKit","Chrome","132.0.0.0","Windows","10.0","https://app.prolific.com/","en-US,en;q=0.9","678f1df528b89f7aa06b930e","67949641171f97c04e14fb34","679c23d6ea31c37473567d34","","null","<img     src='G_7.jpg' height='90'> <img     src='G_1.jpg' height='90'> <img     src='G_8.jpg' height='90'> <img      src='G_6.jpg' height='90'> <img   src='G_2.jpg' height='90'> <img id='selected'       src='G_4.jpg' height='90'> <img id='selected'  src='G_3.jpg' height='90'> <img   src='G_5.jpg' height='90'>","null","Animation1",""
