"success","timeout","failed_images","failed_audio","failed_video","trial_type","trial_index","time_elapsed","internal_node_id","run_id","condition","recorded_at","source_code_version","ip","user_agent","device","browser","browser_version","platform","platform_version","referer","accept_language","PROLIFIC_PID","STUDY_ID","SESSION_ID","view_history","rt","stimulus","response","phase","question_order"
"true","false","[]","[]","[]","preload","0","5638","0.0-0.0","57","1","2025-01-31 01:16:00","af8d355d56820e421d246a7037deb6e6","74.80.146.36","Mozilla/5.0 (Windows NT 10.0; Win64; x64) AppleWebKit/537.36 (KHTML, like Gecko) Chrome/131.0.0.0 Safari/537.36","WebKit","Chrome","131.0.0.0","Windows","10.0","https://app.prolific.com/","en-US,en;q=0.9","6747cb2578e508f43be65a76","67949641171f97c04e14fb34","679c2440f7b012f9e0675f88","","","","","",""
"","","","","","instructions","1","13422","0.0-1.0","57","1","2025-01-31 01:16:00","af8d355d56820e421d246a7037deb6e6","74.80.146.36","Mozilla/5.0 (Windows NT 10.0; Win64; x64) AppleWebKit/537.36 (KHTML, like Gecko) Chrome/131.0.0.0 Safari/537.36","WebKit","Chrome","131.0.0.0","Windows","10.0","https://app.prolific.com/","en-US,en;q=0.9","6747cb2578e508f43be65a76","67949641171f97c04e14fb34","679c2440f7b012f9e0675f88","[{""page_index"":0,""viewing_time"":7782}]","7782","","","",""
"","","","","","html-keyboard-response","2","13931","0.0-2.0","57","1","2025-01-31 01:16:00","af8d355d56820e421d246a7037deb6e6","74.80.146.36","Mozilla/5.0 (Windows NT 10.0; Win64; x64) AppleWebKit/537.36 (KHTML, like Gecko) Chrome/131.0.0.0 Safari/537.36","WebKit","Chrome","131.0.0.0","Windows","10.0","https://app.prolific.com/","en-US,en;q=0.9","6747cb2578e508f43be65a76","67949641171f97c04e14fb34","679c2440f7b012f9e0675f88","","null","<p> + <p/>","null","",""
"","","","","","instructions","3","110300","0.0-3.0","57","1","2025-01-31 01:16:00","af8d355d56820e421d246a7037deb6e6","74.80.146.36","Mozilla/5.0 (Windows NT 10.0; Win64; x64) AppleWebKit/537.36 (KHTML, like Gecko) Chrome/131.0.0.0 Safari/537.36","WebKit","Chrome","131.0.0.0","Windows","10.0","https://app.prolific.com/","en-US,en;q=0.9","6747cb2578e508f43be65a76","67949641171f97c04e14fb34","679c2440f7b012f9e0675f88","[{""page_index"":0,""viewing_time"":3447},{""page_index"":1,""viewing_time"":17189},{""page_index"":2,""viewing_time"":53407},{""page_index"":3,""viewing_time"":9399},{""page_index"":4,""viewing_time"":12926}]","96368","","","",""
"","","","","","html-button-response","4","146254","0.0-4.0-0.0-0.0","57","1","2025-01-31 01:16:00","af8d355d56820e421d246a7037deb6e6","74.80.146.36","Mozilla/5.0 (Windows NT 10.0; Win64; x64) AppleWebKit/537.36 (KHTML, like Gecko) Chrome/131.0.0.0 Safari/537.36","WebKit","Chrome","131.0.0.0","Windows","10.0","https://app.prolific.com/","en-US,en;q=0.9","6747cb2578e508f43be65a76","67949641171f97c04e14fb34","679c2440f7b012f9e0675f88","","35951","","0","Intro Trial",""
"","","","","","html-button-response","5","147825","0.0-4.1-0.1-0.1","57","1","2025-01-31 01:16:00","af8d355d56820e421d246a7037deb6e6","74.80.146.36","Mozilla/5.0 (Windows NT 10.0; Win64; x64) AppleWebKit/537.36 (KHTML, like Gecko) Chrome/131.0.0.0 Safari/537.36","WebKit","Chrome","131.0.0.0","Windows","10.0","https://app.prolific.com/","en-US,en;q=0.9","6747cb2578e508f43be65a76","67949641171f97c04e14fb34","679c2440f7b012f9e0675f88","","1569","","2","Intro Trial",""
"","","","","","html-button-response","6","152838","0.0-4.2-0.2-0.2","57","1","2025-01-31 01:16:00","af8d355d56820e421d246a7037deb6e6","74.80.146.36","Mozilla/5.0 (Windows NT 10.0; Win64; x64) AppleWebKit/537.36 (KHTML, like Gecko) Chrome/131.0.0.0 Safari/537.36","WebKit","Chrome","131.0.0.0","Windows","10.0","https://app.prolific.com/","en-US,en;q=0.9","6747cb2578e508f43be65a76","67949641171f97c04e14fb34","679c2440f7b012f9e0675f88","","5011","","1","Intro Trial",""
"","","","","","html-button-response","7","154137","0.0-4.3-0.3-0.3","57","1","2025-01-31 01:16:00","af8d355d56820e421d246a7037deb6e6","74.80.146.36","Mozilla/5.0 (Windows NT 10.0; Win64; x64) AppleWebKit/537.36 (KHTML, like Gecko) Chrome/131.0.0.0 Safari/537.36","WebKit","Chrome","131.0.0.0","Windows","10.0","https://app.prolific.com/","en-US,en;q=0.9","6747cb2578e508f43be65a76","67949641171f97c04e14fb34","679c2440f7b012f9e0675f88","","1298","","3","Intro Trial",""
"","","","","","html-button-response","8","158453","0.0-4.4-0.4-0.4","57","1","2025-01-31 01:16:00","af8d355d56820e421d246a7037deb6e6","74.80.146.36","Mozilla/5.0 (Windows NT 10.0; Win64; x64) AppleWebKit/537.36 (KHTML, like Gecko) Chrome/131.0.0.0 Safari/537.36","WebKit","Chrome","131.0.0.0","Windows","10.0","https://app.prolific.com/","en-US,en;q=0.9","6747cb2578e508f43be65a76","67949641171f97c04e14fb34","679c2440f7b012f9e0675f88","","4313","","2","Intro Trial",""
"","","","","","html-button-response","9","160010","0.0-4.5-0.5-0.5","57","1","2025-01-31 01:16:00","af8d355d56820e421d246a7037deb6e6","74.80.146.36","Mozilla/5.0 (Windows NT 10.0; Win64; x64) AppleWebKit/537.36 (KHTML, like Gecko) Chrome/131.0.0.0 Safari/537.36","WebKit","Chrome","131.0.0.0","Windows","10.0","https://app.prolific.com/","en-US,en;q=0.9","6747cb2578e508f43be65a76","67949641171f97c04e14fb34","679c2440f7b012f9e0675f88","","1555","","4","Intro Trial",""
"","","","","","html-button-response","10","163241","0.0-4.6-0.6-0.6","57","1","2025-01-31 01:16:00","af8d355d56820e421d246a7037deb6e6","74.80.146.36","Mozilla/5.0 (Windows NT 10.0; Win64; x64) AppleWebKit/537.36 (KHTML, like Gecko) Chrome/131.0.0.0 Safari/537.36","WebKit","Chrome","131.0.0.0","Windows","10.0","https://app.prolific.com/","en-US,en;q=0.9","6747cb2578e508f43be65a76","67949641171f97c04e14fb34","679c2440f7b012f9e0675f88","","3230","","0","Intro Trial",""
"","","","","","html-button-response","11","164691","0.0-4.7-0.7-0.7","57","1","2025-01-31 01:16:00","af8d355d56820e421d246a7037deb6e6","74.80.146.36","Mozilla/5.0 (Windows NT 10.0; Win64; x64) AppleWebKit/537.36 (KHTML, like Gecko) Chrome/131.0.0.0 Safari/537.36","WebKit","Chrome","131.0.0.0","Windows","10.0","https://app.prolific.com/","en-US,en;q=0.9","6747cb2578e508f43be65a76","67949641171f97c04e14fb34","679c2440f7b012f9e0675f88","","1447","","4","Intro Trial",""
"","","","","","html-button-response","12","166832","0.0-4.8-0.8-0.8","57","1","2025-01-31 01:16:00","af8d355d56820e421d246a7037deb6e6","74.80.146.36","Mozilla/5.0 (Windows NT 10.0; Win64; x64) AppleWebKit/537.36 (KHTML, like Gecko) Chrome/131.0.0.0 Safari/537.36","WebKit","Chrome","131.0.0.0","Windows","10.0","https://app.prolific.com/","en-US,en;q=0.9","6747cb2578e508f43be65a76","67949641171f97c04e14fb34","679c2440f7b012f9e0675f88","","2139","","1","Intro Trial",""
"","","","","","html-button-response","13","168092","0.0-4.9-0.9-0.9","57","1","2025-01-31 01:16:00","af8d355d56820e421d246a7037deb6e6","74.80.146.36","Mozilla/5.0 (Windows NT 10.0; Win64; x64) AppleWebKit/537.36 (KHTML, like Gecko) Chrome/131.0.0.0 Safari/537.36","WebKit","Chrome","131.0.0.0","Windows","10.0","https://app.prolific.com/","en-US,en;q=0.9","6747cb2578e508f43be65a76","67949641171f97c04e14fb34","679c2440f7b012f9e0675f88","","1259","","2","Intro Trial",""
"","","","","","html-button-response","14","170434","0.0-4.10-0.10-0.10","57","1","2025-01-31 01:16:00","af8d355d56820e421d246a7037deb6e6","74.80.146.36","Mozilla/5.0 (Windows NT 10.0; Win64; x64) AppleWebKit/537.36 (KHTML, like Gecko) Chrome/131.0.0.0 Safari/537.36","WebKit","Chrome","131.0.0.0","Windows","10.0","https://app.prolific.com/","en-US,en;q=0.9","6747cb2578e508f43be65a76","67949641171f97c04e14fb34","679c2440f7b012f9e0675f88","","2340","","3","Intro Trial",""
"","","","","","html-button-response","15","171747","0.0-4.11-0.11-0.11","57","1","2025-01-31 01:16:00","af8d355d56820e421d246a7037deb6e6","74.80.146.36","Mozilla/5.0 (Windows NT 10.0; Win64; x64) AppleWebKit/537.36 (KHTML, like Gecko) Chrome/131.0.0.0 Safari/537.36","WebKit","Chrome","131.0.0.0","Windows","10.0","https://app.prolific.com/","en-US,en;q=0.9","6747cb2578e508f43be65a76","67949641171f97c04e14fb34","679c2440f7b012f9e0675f88","","1310","","4","Intro Trial",""
"","","","","","html-button-response","16","173627","0.0-4.12-0.12-0.12","57","1","2025-01-31 01:16:00","af8d355d56820e421d246a7037deb6e6","74.80.146.36","Mozilla/5.0 (Windows NT 10.0; Win64; x64) AppleWebKit/537.36 (KHTML, like Gecko) Chrome/131.0.0.0 Safari/537.36","WebKit","Chrome","131.0.0.0","Windows","10.0","https://app.prolific.com/","en-US,en;q=0.9","6747cb2578e508f43be65a76","67949641171f97c04e14fb34","679c2440f7b012f9e0675f88","","1878","","5","Intro Trial",""
"","","","","","html-keyboard-response","17","187410","0.0-5.0","57","1","2025-01-31 01:16:00","af8d355d56820e421d246a7037deb6e6","74.80.146.36","Mozilla/5.0 (Windows NT 10.0; Win64; x64) AppleWebKit/537.36 (KHTML, like Gecko) Chrome/131.0.0.0 Safari/537.36","WebKit","Chrome","131.0.0.0","Windows","10.0","https://app.prolific.com/","en-US,en;q=0.9","6747cb2578e508f43be65a76","67949641171f97c04e14fb34","679c2440f7b012f9e0675f88","","13781","[""You sorted incorrectly by using the balance 6 times. <br><br> <img src='G_3.jpg' height='90'><img src='G_5.jpg' height='90'><img src='G_2.jpg' height='90'><img src='G_1.jpg' height='90'><img src='G_4.jpg' height='90'><br><br> Your final order is 3,1,2,4,5<br><br><br>Omgne Sort in this game will allow you to sort correctly by using the balance 8 times. Press Enter to learn it!""]","enter","",""
"","","","","","html-keyboard-response","18","195386","0.0-6.0","57","1","2025-01-31 01:16:00","af8d355d56820e421d246a7037deb6e6","74.80.146.36","Mozilla/5.0 (Windows NT 10.0; Win64; x64) AppleWebKit/537.36 (KHTML, like Gecko) Chrome/131.0.0.0 Safari/537.36","WebKit","Chrome","131.0.0.0","Windows","10.0","https://app.prolific.com/","en-US,en;q=0.9","6747cb2578e508f43be65a76","67949641171f97c04e14fb34","679c2440f7b012f9e0675f88","","7975","<p>Welcome to the learning phase! <br><br> You will learn by six examples. The following learning trials will not be used to calculate your performance. <br><br> Press Enter to continue.<p/>","enter","",""
"","","","","","html-keyboard-response","19","202535","0.0-7.0","57","1","2025-01-31 01:16:00","af8d355d56820e421d246a7037deb6e6","74.80.146.36","Mozilla/5.0 (Windows NT 10.0; Win64; x64) AppleWebKit/537.36 (KHTML, like Gecko) Chrome/131.0.0.0 Safari/537.36","WebKit","Chrome","131.0.0.0","Windows","10.0","https://app.prolific.com/","en-US,en;q=0.9","6747cb2578e508f43be65a76","67949641171f97c04e14fb34","679c2440f7b012f9e0675f88","","7149","[""Example 1<br><br>You will watch Omnge Sort in action. Try to identify any patterns in the comparisons made by this method. <br><br>Press Enter to continue.""]","enter","",""
"","","","","","html-keyboard-response","20","203040","0.0-8.0","57","1","2025-01-31 01:16:00","af8d355d56820e421d246a7037deb6e6","74.80.146.36","Mozilla/5.0 (Windows NT 10.0; Win64; x64) AppleWebKit/537.36 (KHTML, like Gecko) Chrome/131.0.0.0 Safari/537.36","WebKit","Chrome","131.0.0.0","Windows","10.0","https://app.prolific.com/","en-US,en;q=0.9","6747cb2578e508f43be65a76","67949641171f97c04e14fb34","679c2440f7b012f9e0675f88","","null","<img id='selected' src='G_3.jpg' height='90'> <img src='G_5.jpg' height='90'> <img src='G_1.jpg' height='90'> <img src='G_7.jpg' height='90'> <img src='G_9.jpg' height='90'>","null","Animation0",""
"","","","","","html-keyboard-response","21","203554","0.0-9.0","57","1","2025-01-31 01:16:00","af8d355d56820e421d246a7037deb6e6","74.80.146.36","Mozilla/5.0 (Windows NT 10.0; Win64; x64) AppleWebKit/537.36 (KHTML, like Gecko) Chrome/131.0.0.0 Safari/537.36","WebKit","Chrome","131.0.0.0","Windows","10.0","https://app.prolific.com/","en-US,en;q=0.9","6747cb2578e508f43be65a76","67949641171f97c04e14fb34","679c2440f7b012f9e0675f88","","null","<img id='selected' src='G_3.jpg' height='90'> <img id='selected' src='G_5.jpg' height='90'> <img src='G_1.jpg' height='90'> <img src='G_7.jpg' height='90'> <img src='G_9.jpg' height='90'>","null","Animation0",""
"","","","","","html-keyboard-response","22","204070","0.0-10.0","57","1","2025-01-31 01:16:00","af8d355d56820e421d246a7037deb6e6","74.80.146.36","Mozilla/5.0 (Windows NT 10.0; Win64; x64) AppleWebKit/537.36 (KHTML, like Gecko) Chrome/131.0.0.0 Safari/537.36","WebKit","Chrome","131.0.0.0","Windows","10.0","https://app.prolific.com/","en-US,en;q=0.9","6747cb2578e508f43be65a76","67949641171f97c04e14fb34","679c2440f7b012f9e0675f88","","null","<img id='swapped' src='G_5.jpg' height='90'> <img id='swapped' src='G_3.jpg' height='90'> <img src='G_1.jpg' height='90'> <img src='G_7.jpg' height='90'> <img src='G_9.jpg' height='90'>","null","Animation0",""
"","","","","","html-keyboard-response","23","204374","0.0-11.0","57","1","2025-01-31 01:16:00","af8d355d56820e421d246a7037deb6e6","74.80.146.36","Mozilla/5.0 (Windows NT 10.0; Win64; x64) AppleWebKit/537.36 (KHTML, like Gecko) Chrome/131.0.0.0 Safari/537.36","WebKit","Chrome","131.0.0.0","Windows","10.0","https://app.prolific.com/","en-US,en;q=0.9","6747cb2578e508f43be65a76","67949641171f97c04e14fb34","679c2440f7b012f9e0675f88","","null","<img  src='G_5.jpg' height='90'> <img  src='G_3.jpg' height='90'> <img src='G_1.jpg' height='90'> <img src='G_7.jpg' height='90'> <img src='G_9.jpg' height='90'>","null","Animation0",""
"","","","","","html-keyboard-response","24","204884","0.0-12.0","57","1","2025-01-31 01:16:00","af8d355d56820e421d246a7037deb6e6","74.80.146.36","Mozilla/5.0 (Windows NT 10.0; Win64; x64) AppleWebKit/537.36 (KHTML, like Gecko) Chrome/131.0.0.0 Safari/537.36","WebKit","Chrome","131.0.0.0","Windows","10.0","https://app.prolific.com/","en-US,en;q=0.9","6747cb2578e508f43be65a76","67949641171f97c04e14fb34","679c2440f7b012f9e0675f88","","null","<img  src='G_5.jpg' height='90'> <img id='selected'  src='G_3.jpg' height='90'> <img src='G_1.jpg' height='90'> <img src='G_7.jpg' height='90'> <img src='G_9.jpg' height='90'>","null","Animation0",""
"","","","","","html-keyboard-response","25","205387","0.0-13.0","57","1","2025-01-31 01:16:00","af8d355d56820e421d246a7037deb6e6","74.80.146.36","Mozilla/5.0 (Windows NT 10.0; Win64; x64) AppleWebKit/537.36 (KHTML, like Gecko) Chrome/131.0.0.0 Safari/537.36","WebKit","Chrome","131.0.0.0","Windows","10.0","https://app.prolific.com/","en-US,en;q=0.9","6747cb2578e508f43be65a76","67949641171f97c04e14fb34","679c2440f7b012f9e0675f88","","null","<img  src='G_5.jpg' height='90'> <img id='selected'  src='G_3.jpg' height='90'> <img id='selected' src='G_1.jpg' height='90'> <img src='G_7.jpg' height='90'> <img src='G_9.jpg' height='90'>","null","Animation0",""
"","","","","","html-keyboard-response","26","205893","0.0-14.0","57","1","2025-01-31 01:16:00","af8d355d56820e421d246a7037deb6e6","74.80.146.36","Mozilla/5.0 (Windows NT 10.0; Win64; x64) AppleWebKit/537.36 (KHTML, like Gecko) Chrome/131.0.0.0 Safari/537.36","WebKit","Chrome","131.0.0.0","Windows","10.0","https://app.prolific.com/","en-US,en;q=0.9","6747cb2578e508f43be65a76","67949641171f97c04e14fb34","679c2440f7b012f9e0675f88","","null","<img  src='G_5.jpg' height='90'> <img id='selected'  src='G_3.jpg' height='90'> <img id='selected' src='G_1.jpg' height='90'> <img src='G_7.jpg' height='90'> <img src='G_9.jpg' height='90'>","null","Animation0",""
"","","","","","html-keyboard-response","27","206200","0.0-15.0","57","1","2025-01-31 01:16:00","af8d355d56820e421d246a7037deb6e6","74.80.146.36","Mozilla/5.0 (Windows NT 10.0; Win64; x64) AppleWebKit/537.36 (KHTML, like Gecko) Chrome/131.0.0.0 Safari/537.36","WebKit","Chrome","131.0.0.0","Windows","10.0","https://app.prolific.com/","en-US,en;q=0.9","6747cb2578e508f43be65a76","67949641171f97c04e14fb34","679c2440f7b012f9e0675f88","","null","<img  src='G_5.jpg' height='90'> <img   src='G_3.jpg' height='90'> <img  src='G_1.jpg' height='90'> <img src='G_7.jpg' height='90'> <img src='G_9.jpg' height='90'>","null","Animation0",""
"","","","","","html-keyboard-response","28","206710","0.0-16.0","57","1","2025-01-31 01:16:00","af8d355d56820e421d246a7037deb6e6","74.80.146.36","Mozilla/5.0 (Windows NT 10.0; Win64; x64) AppleWebKit/537.36 (KHTML, like Gecko) Chrome/131.0.0.0 Safari/537.36","WebKit","Chrome","131.0.0.0","Windows","10.0","https://app.prolific.com/","en-US,en;q=0.9","6747cb2578e508f43be65a76","67949641171f97c04e14fb34","679c2440f7b012f9e0675f88","","null","<img  src='G_5.jpg' height='90'> <img   src='G_3.jpg' height='90'> <img id='selected'  src='G_1.jpg' height='90'> <img src='G_7.jpg' height='90'> <img src='G_9.jpg' height='90'>","null","Animation0",""
"","","","","","html-keyboard-response","29","207219","0.0-17.0","57","1","2025-01-31 01:16:00","af8d355d56820e421d246a7037deb6e6","74.80.146.36","Mozilla/5.0 (Windows NT 10.0; Win64; x64) AppleWebKit/537.36 (KHTML, like Gecko) Chrome/131.0.0.0 Safari/537.36","WebKit","Chrome","131.0.0.0","Windows","10.0","https://app.prolific.com/","en-US,en;q=0.9","6747cb2578e508f43be65a76","67949641171f97c04e14fb34","679c2440f7b012f9e0675f88","","null","<img  src='G_5.jpg' height='90'> <img   src='G_3.jpg' height='90'> <img id='selected'  src='G_1.jpg' height='90'> <img id='selected' src='G_7.jpg' height='90'> <img src='G_9.jpg' height='90'>","null","Animation0",""
"","","","","","html-keyboard-response","30","207730","0.0-18.0","57","1","2025-01-31 01:16:00","af8d355d56820e421d246a7037deb6e6","74.80.146.36","Mozilla/5.0 (Windows NT 10.0; Win64; x64) AppleWebKit/537.36 (KHTML, like Gecko) Chrome/131.0.0.0 Safari/537.36","WebKit","Chrome","131.0.0.0","Windows","10.0","https://app.prolific.com/","en-US,en;q=0.9","6747cb2578e508f43be65a76","67949641171f97c04e14fb34","679c2440f7b012f9e0675f88","","null","<img  src='G_5.jpg' height='90'> <img   src='G_3.jpg' height='90'> <img id='selected'  src='G_1.jpg' height='90'> <img id='selected' src='G_7.jpg' height='90'> <img src='G_9.jpg' height='90'>","null","Animation0",""
"","","","","","html-keyboard-response","31","208040","0.0-19.0","57","1","2025-01-31 01:16:00","af8d355d56820e421d246a7037deb6e6","74.80.146.36","Mozilla/5.0 (Windows NT 10.0; Win64; x64) AppleWebKit/537.36 (KHTML, like Gecko) Chrome/131.0.0.0 Safari/537.36","WebKit","Chrome","131.0.0.0","Windows","10.0","https://app.prolific.com/","en-US,en;q=0.9","6747cb2578e508f43be65a76","67949641171f97c04e14fb34","679c2440f7b012f9e0675f88","","null","<img  src='G_5.jpg' height='90'> <img   src='G_3.jpg' height='90'> <img   src='G_1.jpg' height='90'> <img  src='G_7.jpg' height='90'> <img src='G_9.jpg' height='90'>","null","Animation0",""
"","","","","","html-keyboard-response","32","208550","0.0-20.0","57","1","2025-01-31 01:16:00","af8d355d56820e421d246a7037deb6e6","74.80.146.36","Mozilla/5.0 (Windows NT 10.0; Win64; x64) AppleWebKit/537.36 (KHTML, like Gecko) Chrome/131.0.0.0 Safari/537.36","WebKit","Chrome","131.0.0.0","Windows","10.0","https://app.prolific.com/","en-US,en;q=0.9","6747cb2578e508f43be65a76","67949641171f97c04e14fb34","679c2440f7b012f9e0675f88","","null","<img  src='G_5.jpg' height='90'> <img   src='G_3.jpg' height='90'> <img   src='G_1.jpg' height='90'> <img id='selected'  src='G_7.jpg' height='90'> <img src='G_9.jpg' height='90'>","null","Animation0",""
"","","","","","html-keyboard-response","33","209060","0.0-21.0","57","1","2025-01-31 01:16:00","af8d355d56820e421d246a7037deb6e6","74.80.146.36","Mozilla/5.0 (Windows NT 10.0; Win64; x64) AppleWebKit/537.36 (KHTML, like Gecko) Chrome/131.0.0.0 Safari/537.36","WebKit","Chrome","131.0.0.0","Windows","10.0","https://app.prolific.com/","en-US,en;q=0.9","6747cb2578e508f43be65a76","67949641171f97c04e14fb34","679c2440f7b012f9e0675f88","","null","<img  src='G_5.jpg' height='90'> <img   src='G_3.jpg' height='90'> <img   src='G_1.jpg' height='90'> <img id='selected'  src='G_7.jpg' height='90'> <img id='selected' src='G_9.jpg' height='90'>","null","Animation0",""
"","","","","","html-keyboard-response","34","209571","0.0-22.0","57","1","2025-01-31 01:16:00","af8d355d56820e421d246a7037deb6e6","74.80.146.36","Mozilla/5.0 (Windows NT 10.0; Win64; x64) AppleWebKit/537.36 (KHTML, like Gecko) Chrome/131.0.0.0 Safari/537.36","WebKit","Chrome","131.0.0.0","Windows","10.0","https://app.prolific.com/","en-US,en;q=0.9","6747cb2578e508f43be65a76","67949641171f97c04e14fb34","679c2440f7b012f9e0675f88","","null","<img  src='G_5.jpg' height='90'> <img   src='G_3.jpg' height='90'> <img   src='G_1.jpg' height='90'> <img id='selected'  src='G_7.jpg' height='90'> <img id='selected' src='G_9.jpg' height='90'>","null","Animation0",""
"","","","","","html-keyboard-response","35","209880","0.0-23.0","57","1","2025-01-31 01:16:00","af8d355d56820e421d246a7037deb6e6","74.80.146.36","Mozilla/5.0 (Windows NT 10.0; Win64; x64) AppleWebKit/537.36 (KHTML, like Gecko) Chrome/131.0.0.0 Safari/537.36","WebKit","Chrome","131.0.0.0","Windows","10.0","https://app.prolific.com/","en-US,en;q=0.9","6747cb2578e508f43be65a76","67949641171f97c04e14fb34","679c2440f7b012f9e0675f88","","null","<img  src='G_5.jpg' height='90'> <img   src='G_3.jpg' height='90'> <img   src='G_1.jpg' height='90'> <img   src='G_7.jpg' height='90'> <img  src='G_9.jpg' height='90'>","null","Animation0",""
"","","","","","html-keyboard-response","36","218378","0.0-24.0","57","1","2025-01-31 01:16:00","af8d355d56820e421d246a7037deb6e6","74.80.146.36","Mozilla/5.0 (Windows NT 10.0; Win64; x64) AppleWebKit/537.36 (KHTML, like Gecko) Chrome/131.0.0.0 Safari/537.36","WebKit","Chrome","131.0.0.0","Windows","10.0","https://app.prolific.com/","en-US,en;q=0.9","6747cb2578e508f43be65a76","67949641171f97c04e14fb34","679c2440f7b012f9e0675f88","","8496","[""Did you notice any patterns? <br><br>Press Enter to watch that example again and follow the steps of Omgne Sort.""]","enter","",""
"","","","","","html-button-response","37","218789","0.0-25.0","57","1","2025-01-31 01:16:00","af8d355d56820e421d246a7037deb6e6","74.80.146.36","Mozilla/5.0 (Windows NT 10.0; Win64; x64) AppleWebKit/537.36 (KHTML, like Gecko) Chrome/131.0.0.0 Safari/537.36","WebKit","Chrome","131.0.0.0","Windows","10.0","https://app.prolific.com/","en-US,en;q=0.9","6747cb2578e508f43be65a76","67949641171f97c04e14fb34","679c2440f7b012f9e0675f88","","null","<img id='selected' src='G_3.jpg' height='90'> <img src='G_5.jpg' height='90'> <img src='G_1.jpg' height='90'> <img src='G_7.jpg' height='90'> <img src='G_9.jpg' height='90'>","null","Learning example 0",""
"","","","","","html-button-response","38","219100","0.0-26.0","57","1","2025-01-31 01:16:00","af8d355d56820e421d246a7037deb6e6","74.80.146.36","Mozilla/5.0 (Windows NT 10.0; Win64; x64) AppleWebKit/537.36 (KHTML, like Gecko) Chrome/131.0.0.0 Safari/537.36","WebKit","Chrome","131.0.0.0","Windows","10.0","https://app.prolific.com/","en-US,en;q=0.9","6747cb2578e508f43be65a76","67949641171f97c04e14fb34","679c2440f7b012f9e0675f88","","null","<img id='selected' src='G_3.jpg' height='90'> <img id='selected' src='G_5.jpg' height='90'> <img src='G_1.jpg' height='90'> <img src='G_7.jpg' height='90'> <img src='G_9.jpg' height='90'>","null","Learning example 0",""
"","","","","","html-button-response","39","219410","0.0-27.0","57","1","2025-01-31 01:16:00","af8d355d56820e421d246a7037deb6e6","74.80.146.36","Mozilla/5.0 (Windows NT 10.0; Win64; x64) AppleWebKit/537.36 (KHTML, like Gecko) Chrome/131.0.0.0 Safari/537.36","WebKit","Chrome","131.0.0.0","Windows","10.0","https://app.prolific.com/","en-US,en;q=0.9","6747cb2578e508f43be65a76","67949641171f97c04e14fb34","679c2440f7b012f9e0675f88","","null","<img id='swapped' src='G_5.jpg' height='90'> <img id='swapped' src='G_3.jpg' height='90'> <img src='G_1.jpg' height='90'> <img src='G_7.jpg' height='90'> <img src='G_9.jpg' height='90'>","null","Learning example 0",""
"","","","","","html-button-response","40","280746","0.0-28.0-0.0-0.0","57","1","2025-01-31 01:16:00","af8d355d56820e421d246a7037deb6e6","74.80.146.36","Mozilla/5.0 (Windows NT 10.0; Win64; x64) AppleWebKit/537.36 (KHTML, like Gecko) Chrome/131.0.0.0 Safari/537.36","WebKit","Chrome","131.0.0.0","Windows","10.0","https://app.prolific.com/","en-US,en;q=0.9","6747cb2578e508f43be65a76","67949641171f97c04e14fb34","679c2440f7b012f9e0675f88","","61334","<img id='swapped' src='G_5.jpg' height='90'> <img id='swapped' src='G_3.jpg' height='90'> <img src='G_1.jpg' height='90'> <img src='G_7.jpg' height='90'> <img src='G_9.jpg' height='90'>","1","Learning example 0",""
"","","","","","html-button-response","41","281852","0.0-28.1-0.1-0.1","57","1","2025-01-31 01:16:00","af8d355d56820e421d246a7037deb6e6","74.80.146.36","Mozilla/5.0 (Windows NT 10.0; Win64; x64) AppleWebKit/537.36 (KHTML, like Gecko) Chrome/131.0.0.0 Safari/537.36","WebKit","Chrome","131.0.0.0","Windows","10.0","https://app.prolific.com/","en-US,en;q=0.9","6747cb2578e508f43be65a76","67949641171f97c04e14fb34","679c2440f7b012f9e0675f88","","1103","<img id='swapped' src='G_5.jpg' height='90'> <img id='swapped' src='G_3.jpg' height='90'> <img src='G_1.jpg' height='90'> <img src='G_7.jpg' height='90'> <img src='G_9.jpg' height='90'>","0","Learning example 0",""
"","","","","","html-button-response","42","282061","0.0-29.0","57","1","2025-01-31 01:16:00","af8d355d56820e421d246a7037deb6e6","74.80.146.36","Mozilla/5.0 (Windows NT 10.0; Win64; x64) AppleWebKit/537.36 (KHTML, like Gecko) Chrome/131.0.0.0 Safari/537.36","WebKit","Chrome","131.0.0.0","Windows","10.0","https://app.prolific.com/","en-US,en;q=0.9","6747cb2578e508f43be65a76","67949641171f97c04e14fb34","679c2440f7b012f9e0675f88","","null","<img  src='G_5.jpg' height='90'> <img  src='G_3.jpg' height='90'> <img src='G_1.jpg' height='90'> <img src='G_7.jpg' height='90'> <img src='G_9.jpg' height='90'>","null","Learning example 0",""
"","","","","","html-button-response","43","282467","0.0-30.0","57","1","2025-01-31 01:16:00","af8d355d56820e421d246a7037deb6e6","74.80.146.36","Mozilla/5.0 (Windows NT 10.0; Win64; x64) AppleWebKit/537.36 (KHTML, like Gecko) Chrome/131.0.0.0 Safari/537.36","WebKit","Chrome","131.0.0.0","Windows","10.0","https://app.prolific.com/","en-US,en;q=0.9","6747cb2578e508f43be65a76","67949641171f97c04e14fb34","679c2440f7b012f9e0675f88","","null","<img  src='G_5.jpg' height='90'> <img id='selected'  src='G_3.jpg' height='90'> <img src='G_1.jpg' height='90'> <img src='G_7.jpg' height='90'> <img src='G_9.jpg' height='90'>","null","Learning example 0",""
"","","","","","html-button-response","44","282774","0.0-31.0","57","1","2025-01-31 01:16:00","af8d355d56820e421d246a7037deb6e6","74.80.146.36","Mozilla/5.0 (Windows NT 10.0; Win64; x64) AppleWebKit/537.36 (KHTML, like Gecko) Chrome/131.0.0.0 Safari/537.36","WebKit","Chrome","131.0.0.0","Windows","10.0","https://app.prolific.com/","en-US,en;q=0.9","6747cb2578e508f43be65a76","67949641171f97c04e14fb34","679c2440f7b012f9e0675f88","","null","<img  src='G_5.jpg' height='90'> <img id='selected'  src='G_3.jpg' height='90'> <img id='selected' src='G_1.jpg' height='90'> <img src='G_7.jpg' height='90'> <img src='G_9.jpg' height='90'>","null","Learning example 0",""
"","","","","","html-button-response","45","283080","0.0-32.0","57","1","2025-01-31 01:16:00","af8d355d56820e421d246a7037deb6e6","74.80.146.36","Mozilla/5.0 (Windows NT 10.0; Win64; x64) AppleWebKit/537.36 (KHTML, like Gecko) Chrome/131.0.0.0 Safari/537.36","WebKit","Chrome","131.0.0.0","Windows","10.0","https://app.prolific.com/","en-US,en;q=0.9","6747cb2578e508f43be65a76","67949641171f97c04e14fb34","679c2440f7b012f9e0675f88","","null","<img  src='G_5.jpg' height='90'> <img id='selected'  src='G_3.jpg' height='90'> <img id='selected' src='G_1.jpg' height='90'> <img src='G_7.jpg' height='90'> <img src='G_9.jpg' height='90'>","null","Learning example 0",""
"","","","","","html-button-response","46","293136","0.0-33.0-0.0-0.0","57","1","2025-01-31 01:16:00","af8d355d56820e421d246a7037deb6e6","74.80.146.36","Mozilla/5.0 (Windows NT 10.0; Win64; x64) AppleWebKit/537.36 (KHTML, like Gecko) Chrome/131.0.0.0 Safari/537.36","WebKit","Chrome","131.0.0.0","Windows","10.0","https://app.prolific.com/","en-US,en;q=0.9","6747cb2578e508f43be65a76","67949641171f97c04e14fb34","679c2440f7b012f9e0675f88","","10054","<img  src='G_5.jpg' height='90'> <img id='selected'  src='G_3.jpg' height='90'> <img id='selected' src='G_1.jpg' height='90'> <img src='G_7.jpg' height='90'> <img src='G_9.jpg' height='90'>","1","Learning example 0",""
"","","","","","html-button-response","47","294017","0.0-33.1-0.1-0.1","57","1","2025-01-31 01:16:00","af8d355d56820e421d246a7037deb6e6","74.80.146.36","Mozilla/5.0 (Windows NT 10.0; Win64; x64) AppleWebKit/537.36 (KHTML, like Gecko) Chrome/131.0.0.0 Safari/537.36","WebKit","Chrome","131.0.0.0","Windows","10.0","https://app.prolific.com/","en-US,en;q=0.9","6747cb2578e508f43be65a76","67949641171f97c04e14fb34","679c2440f7b012f9e0675f88","","879","<img  src='G_5.jpg' height='90'> <img id='selected'  src='G_3.jpg' height='90'> <img id='selected' src='G_1.jpg' height='90'> <img src='G_7.jpg' height='90'> <img src='G_9.jpg' height='90'>","2","Learning example 0",""
"","","","","","html-button-response","48","294225","0.0-34.0","57","1","2025-01-31 01:16:00","af8d355d56820e421d246a7037deb6e6","74.80.146.36","Mozilla/5.0 (Windows NT 10.0; Win64; x64) AppleWebKit/537.36 (KHTML, like Gecko) Chrome/131.0.0.0 Safari/537.36","WebKit","Chrome","131.0.0.0","Windows","10.0","https://app.prolific.com/","en-US,en;q=0.9","6747cb2578e508f43be65a76","67949641171f97c04e14fb34","679c2440f7b012f9e0675f88","","null","<img  src='G_5.jpg' height='90'> <img   src='G_3.jpg' height='90'> <img  src='G_1.jpg' height='90'> <img src='G_7.jpg' height='90'> <img src='G_9.jpg' height='90'>","null","Learning example 0",""
"","","","","","html-button-response","49","294636","0.0-35.0","57","1","2025-01-31 01:16:00","af8d355d56820e421d246a7037deb6e6","74.80.146.36","Mozilla/5.0 (Windows NT 10.0; Win64; x64) AppleWebKit/537.36 (KHTML, like Gecko) Chrome/131.0.0.0 Safari/537.36","WebKit","Chrome","131.0.0.0","Windows","10.0","https://app.prolific.com/","en-US,en;q=0.9","6747cb2578e508f43be65a76","67949641171f97c04e14fb34","679c2440f7b012f9e0675f88","","null","<img  src='G_5.jpg' height='90'> <img   src='G_3.jpg' height='90'> <img id='selected'  src='G_1.jpg' height='90'> <img src='G_7.jpg' height='90'> <img src='G_9.jpg' height='90'>","null","Learning example 0",""
"","","","","","html-button-response","50","294941","0.0-36.0","57","1","2025-01-31 01:16:00","af8d355d56820e421d246a7037deb6e6","74.80.146.36","Mozilla/5.0 (Windows NT 10.0; Win64; x64) AppleWebKit/537.36 (KHTML, like Gecko) Chrome/131.0.0.0 Safari/537.36","WebKit","Chrome","131.0.0.0","Windows","10.0","https://app.prolific.com/","en-US,en;q=0.9","6747cb2578e508f43be65a76","67949641171f97c04e14fb34","679c2440f7b012f9e0675f88","","null","<img  src='G_5.jpg' height='90'> <img   src='G_3.jpg' height='90'> <img id='selected'  src='G_1.jpg' height='90'> <img id='selected' src='G_7.jpg' height='90'> <img src='G_9.jpg' height='90'>","null","Learning example 0",""
"","","","","","html-button-response","51","295246","0.0-37.0","57","1","2025-01-31 01:16:00","af8d355d56820e421d246a7037deb6e6","74.80.146.36","Mozilla/5.0 (Windows NT 10.0; Win64; x64) AppleWebKit/537.36 (KHTML, like Gecko) Chrome/131.0.0.0 Safari/537.36","WebKit","Chrome","131.0.0.0","Windows","10.0","https://app.prolific.com/","en-US,en;q=0.9","6747cb2578e508f43be65a76","67949641171f97c04e14fb34","679c2440f7b012f9e0675f88","","null","<img  src='G_5.jpg' height='90'> <img   src='G_3.jpg' height='90'> <img id='selected'  src='G_1.jpg' height='90'> <img id='selected' src='G_7.jpg' height='90'> <img src='G_9.jpg' height='90'>","null","Learning example 0",""
"","","","","","html-button-response","52","306271","0.0-38.0-0.0-0.0","57","1","2025-01-31 01:16:00","af8d355d56820e421d246a7037deb6e6","74.80.146.36","Mozilla/5.0 (Windows NT 10.0; Win64; x64) AppleWebKit/537.36 (KHTML, like Gecko) Chrome/131.0.0.0 Safari/537.36","WebKit","Chrome","131.0.0.0","Windows","10.0","https://app.prolific.com/","en-US,en;q=0.9","6747cb2578e508f43be65a76","67949641171f97c04e14fb34","679c2440f7b012f9e0675f88","","11023","<img  src='G_5.jpg' height='90'> <img   src='G_3.jpg' height='90'> <img id='selected'  src='G_1.jpg' height='90'> <img id='selected' src='G_7.jpg' height='90'> <img src='G_9.jpg' height='90'>","2","Learning example 0",""
"","","","","","html-button-response","53","307331","0.0-38.1-0.1-0.1","57","1","2025-01-31 01:16:00","af8d355d56820e421d246a7037deb6e6","74.80.146.36","Mozilla/5.0 (Windows NT 10.0; Win64; x64) AppleWebKit/537.36 (KHTML, like Gecko) Chrome/131.0.0.0 Safari/537.36","WebKit","Chrome","131.0.0.0","Windows","10.0","https://app.prolific.com/","en-US,en;q=0.9","6747cb2578e508f43be65a76","67949641171f97c04e14fb34","679c2440f7b012f9e0675f88","","1057","<img  src='G_5.jpg' height='90'> <img   src='G_3.jpg' height='90'> <img id='selected'  src='G_1.jpg' height='90'> <img id='selected' src='G_7.jpg' height='90'> <img src='G_9.jpg' height='90'>","3","Learning example 0",""
"","","","","","html-button-response","54","307539","0.0-39.0","57","1","2025-01-31 01:16:00","af8d355d56820e421d246a7037deb6e6","74.80.146.36","Mozilla/5.0 (Windows NT 10.0; Win64; x64) AppleWebKit/537.36 (KHTML, like Gecko) Chrome/131.0.0.0 Safari/537.36","WebKit","Chrome","131.0.0.0","Windows","10.0","https://app.prolific.com/","en-US,en;q=0.9","6747cb2578e508f43be65a76","67949641171f97c04e14fb34","679c2440f7b012f9e0675f88","","null","<img  src='G_5.jpg' height='90'> <img   src='G_3.jpg' height='90'> <img   src='G_1.jpg' height='90'> <img  src='G_7.jpg' height='90'> <img src='G_9.jpg' height='90'>","null","Learning example 0",""
"","","","","","html-button-response","55","307950","0.0-40.0","57","1","2025-01-31 01:16:00","af8d355d56820e421d246a7037deb6e6","74.80.146.36","Mozilla/5.0 (Windows NT 10.0; Win64; x64) AppleWebKit/537.36 (KHTML, like Gecko) Chrome/131.0.0.0 Safari/537.36","WebKit","Chrome","131.0.0.0","Windows","10.0","https://app.prolific.com/","en-US,en;q=0.9","6747cb2578e508f43be65a76","67949641171f97c04e14fb34","679c2440f7b012f9e0675f88","","null","<img  src='G_5.jpg' height='90'> <img   src='G_3.jpg' height='90'> <img   src='G_1.jpg' height='90'> <img id='selected'  src='G_7.jpg' height='90'> <img src='G_9.jpg' height='90'>","null","Learning example 0",""
"","","","","","html-button-response","56","308261","0.0-41.0","57","1","2025-01-31 01:16:00","af8d355d56820e421d246a7037deb6e6","74.80.146.36","Mozilla/5.0 (Windows NT 10.0; Win64; x64) AppleWebKit/537.36 (KHTML, like Gecko) Chrome/131.0.0.0 Safari/537.36","WebKit","Chrome","131.0.0.0","Windows","10.0","https://app.prolific.com/","en-US,en;q=0.9","6747cb2578e508f43be65a76","67949641171f97c04e14fb34","679c2440f7b012f9e0675f88","","null","<img  src='G_5.jpg' height='90'> <img   src='G_3.jpg' height='90'> <img   src='G_1.jpg' height='90'> <img id='selected'  src='G_7.jpg' height='90'> <img id='selected' src='G_9.jpg' height='90'>","null","Learning example 0",""
"","","","","","html-button-response","57","308570","0.0-42.0","57","1","2025-01-31 01:16:00","af8d355d56820e421d246a7037deb6e6","74.80.146.36","Mozilla/5.0 (Windows NT 10.0; Win64; x64) AppleWebKit/537.36 (KHTML, like Gecko) Chrome/131.0.0.0 Safari/537.36","WebKit","Chrome","131.0.0.0","Windows","10.0","https://app.prolific.com/","en-US,en;q=0.9","6747cb2578e508f43be65a76","67949641171f97c04e14fb34","679c2440f7b012f9e0675f88","","null","<img  src='G_5.jpg' height='90'> <img   src='G_3.jpg' height='90'> <img   src='G_1.jpg' height='90'> <img id='selected'  src='G_7.jpg' height='90'> <img id='selected' src='G_9.jpg' height='90'>","null","Learning example 0",""
"","","","","","html-button-response","58","314735","0.0-43.0-0.0-0.0","57","1","2025-01-31 01:16:00","af8d355d56820e421d246a7037deb6e6","74.80.146.36","Mozilla/5.0 (Windows NT 10.0; Win64; x64) AppleWebKit/537.36 (KHTML, like Gecko) Chrome/131.0.0.0 Safari/537.36","WebKit","Chrome","131.0.0.0","Windows","10.0","https://app.prolific.com/","en-US,en;q=0.9","6747cb2578e508f43be65a76","67949641171f97c04e14fb34","679c2440f7b012f9e0675f88","","6164","<img  src='G_5.jpg' height='90'> <img   src='G_3.jpg' height='90'> <img   src='G_1.jpg' height='90'> <img id='selected'  src='G_7.jpg' height='90'> <img id='selected' src='G_9.jpg' height='90'>","3","Learning example 0",""
"","","","","","html-button-response","59","315681","0.0-43.1-0.1-0.1","57","1","2025-01-31 01:16:00","af8d355d56820e421d246a7037deb6e6","74.80.146.36","Mozilla/5.0 (Windows NT 10.0; Win64; x64) AppleWebKit/537.36 (KHTML, like Gecko) Chrome/131.0.0.0 Safari/537.36","WebKit","Chrome","131.0.0.0","Windows","10.0","https://app.prolific.com/","en-US,en;q=0.9","6747cb2578e508f43be65a76","67949641171f97c04e14fb34","679c2440f7b012f9e0675f88","","942","<img  src='G_5.jpg' height='90'> <img   src='G_3.jpg' height='90'> <img   src='G_1.jpg' height='90'> <img id='selected'  src='G_7.jpg' height='90'> <img id='selected' src='G_9.jpg' height='90'>","4","Learning example 0",""
"","","","","","html-button-response","60","315890","0.0-44.0","57","1","2025-01-31 01:16:00","af8d355d56820e421d246a7037deb6e6","74.80.146.36","Mozilla/5.0 (Windows NT 10.0; Win64; x64) AppleWebKit/537.36 (KHTML, like Gecko) Chrome/131.0.0.0 Safari/537.36","WebKit","Chrome","131.0.0.0","Windows","10.0","https://app.prolific.com/","en-US,en;q=0.9","6747cb2578e508f43be65a76","67949641171f97c04e14fb34","679c2440f7b012f9e0675f88","","null","<img  src='G_5.jpg' height='90'> <img   src='G_3.jpg' height='90'> <img   src='G_1.jpg' height='90'> <img   src='G_7.jpg' height='90'> <img  src='G_9.jpg' height='90'>","null","Learning example 0",""
"","","","","","html-keyboard-response","61","335907","0.0-45.0","57","1","2025-01-31 01:16:00","af8d355d56820e421d246a7037deb6e6","74.80.146.36","Mozilla/5.0 (Windows NT 10.0; Win64; x64) AppleWebKit/537.36 (KHTML, like Gecko) Chrome/131.0.0.0 Safari/537.36","WebKit","Chrome","131.0.0.0","Windows","10.0","https://app.prolific.com/","en-US,en;q=0.9","6747cb2578e508f43be65a76","67949641171f97c04e14fb34","679c2440f7b012f9e0675f88","","20016","[""Final order was 1,2,3,4,5. The initial order was 2,1,3,4,5.<br>It took 1 swaps to sort it correctly with Omgne Sort. <br><br>Press Enter to continue.""]","enter","",""
"","","","","","html-keyboard-response","62","341231","0.0-46.0","57","1","2025-01-31 01:16:00","af8d355d56820e421d246a7037deb6e6","74.80.146.36","Mozilla/5.0 (Windows NT 10.0; Win64; x64) AppleWebKit/537.36 (KHTML, like Gecko) Chrome/131.0.0.0 Safari/537.36","WebKit","Chrome","131.0.0.0","Windows","10.0","https://app.prolific.com/","en-US,en;q=0.9","6747cb2578e508f43be65a76","67949641171f97c04e14fb34","679c2440f7b012f9e0675f88","","5322","[""Example 2<br><br>You will watch Omnge Sort in action. Try to identify any patterns in the comparisons made by this method. <br><br>Press Enter to continue.""]","enter","",""
"","","","","","html-keyboard-response","63","341741","0.0-47.0","57","1","2025-01-31 01:16:00","af8d355d56820e421d246a7037deb6e6","74.80.146.36","Mozilla/5.0 (Windows NT 10.0; Win64; x64) AppleWebKit/537.36 (KHTML, like Gecko) Chrome/131.0.0.0 Safari/537.36","WebKit","Chrome","131.0.0.0","Windows","10.0","https://app.prolific.com/","en-US,en;q=0.9","6747cb2578e508f43be65a76","67949641171f97c04e14fb34","679c2440f7b012f9e0675f88","","null","<img id='selected' src='G_4.jpg' height='90'> <img src='G_7.jpg' height='90'> <img src='G_2.jpg' height='90'> <img src='G_8.jpg' height='90'> <img src='G_5.jpg' height='90'> <img src='G_1.jpg' height='90'> <img src='G_3.jpg' height='90'> <img src='G_6.jpg' height='90'>","null","Animation1",""
"","","","","","html-keyboard-response","64","342248","0.0-48.0","57","1","2025-01-31 01:16:00","af8d355d56820e421d246a7037deb6e6","74.80.146.36","Mozilla/5.0 (Windows NT 10.0; Win64; x64) AppleWebKit/537.36 (KHTML, like Gecko) Chrome/131.0.0.0 Safari/537.36","WebKit","Chrome","131.0.0.0","Windows","10.0","https://app.prolific.com/","en-US,en;q=0.9","6747cb2578e508f43be65a76","67949641171f97c04e14fb34","679c2440f7b012f9e0675f88","","null","<img id='selected' src='G_4.jpg' height='90'> <img id='selected' src='G_7.jpg' height='90'> <img src='G_2.jpg' height='90'> <img src='G_8.jpg' height='90'> <img src='G_5.jpg' height='90'> <img src='G_1.jpg' height='90'> <img src='G_3.jpg' height='90'> <img src='G_6.jpg' height='90'>","null","Animation1",""
"","","","","","html-keyboard-response","65","342751","0.0-49.0","57","1","2025-01-31 01:16:00","af8d355d56820e421d246a7037deb6e6","74.80.146.36","Mozilla/5.0 (Windows NT 10.0; Win64; x64) AppleWebKit/537.36 (KHTML, like Gecko) Chrome/131.0.0.0 Safari/537.36","WebKit","Chrome","131.0.0.0","Windows","10.0","https://app.prolific.com/","en-US,en;q=0.9","6747cb2578e508f43be65a76","67949641171f97c04e14fb34","679c2440f7b012f9e0675f88","","null","<img id='selected' src='G_4.jpg' height='90'> <img id='selected' src='G_7.jpg' height='90'> <img src='G_2.jpg' height='90'> <img src='G_8.jpg' height='90'> <img src='G_5.jpg' height='90'> <img src='G_1.jpg' height='90'> <img src='G_3.jpg' height='90'> <img src='G_6.jpg' height='90'>","null","Animation1",""
"","","","","","html-keyboard-response","66","343067","0.0-50.0","57","1","2025-01-31 01:16:00","af8d355d56820e421d246a7037deb6e6","74.80.146.36","Mozilla/5.0 (Windows NT 10.0; Win64; x64) AppleWebKit/537.36 (KHTML, like Gecko) Chrome/131.0.0.0 Safari/537.36","WebKit","Chrome","131.0.0.0","Windows","10.0","https://app.prolific.com/","en-US,en;q=0.9","6747cb2578e508f43be65a76","67949641171f97c04e14fb34","679c2440f7b012f9e0675f88","","null","<img  src='G_4.jpg' height='90'> <img  src='G_7.jpg' height='90'> <img src='G_2.jpg' height='90'> <img src='G_8.jpg' height='90'> <img src='G_5.jpg' height='90'> <img src='G_1.jpg' height='90'> <img src='G_3.jpg' height='90'> <img src='G_6.jpg' height='90'>","null","Animation1",""
"","","","","","html-keyboard-response","67","343574","0.0-51.0","57","1","2025-01-31 01:16:00","af8d355d56820e421d246a7037deb6e6","74.80.146.36","Mozilla/5.0 (Windows NT 10.0; Win64; x64) AppleWebKit/537.36 (KHTML, like Gecko) Chrome/131.0.0.0 Safari/537.36","WebKit","Chrome","131.0.0.0","Windows","10.0","https://app.prolific.com/","en-US,en;q=0.9","6747cb2578e508f43be65a76","67949641171f97c04e14fb34","679c2440f7b012f9e0675f88","","null","<img  src='G_4.jpg' height='90'> <img id='selected'  src='G_7.jpg' height='90'> <img src='G_2.jpg' height='90'> <img src='G_8.jpg' height='90'> <img src='G_5.jpg' height='90'> <img src='G_1.jpg' height='90'> <img src='G_3.jpg' height='90'> <img src='G_6.jpg' height='90'>","null","Animation1",""
"","","","","","html-keyboard-response","68","344084","0.0-52.0","57","1","2025-01-31 01:16:00","af8d355d56820e421d246a7037deb6e6","74.80.146.36","Mozilla/5.0 (Windows NT 10.0; Win64; x64) AppleWebKit/537.36 (KHTML, like Gecko) Chrome/131.0.0.0 Safari/537.36","WebKit","Chrome","131.0.0.0","Windows","10.0","https://app.prolific.com/","en-US,en;q=0.9","6747cb2578e508f43be65a76","67949641171f97c04e14fb34","679c2440f7b012f9e0675f88","","null","<img  src='G_4.jpg' height='90'> <img id='selected'  src='G_7.jpg' height='90'> <img id='selected' src='G_2.jpg' height='90'> <img src='G_8.jpg' height='90'> <img src='G_5.jpg' height='90'> <img src='G_1.jpg' height='90'> <img src='G_3.jpg' height='90'> <img src='G_6.jpg' height='90'>","null","Animation1",""
"","","","","","html-keyboard-response","69","344593","0.0-53.0","57","1","2025-01-31 01:16:00","af8d355d56820e421d246a7037deb6e6","74.80.146.36","Mozilla/5.0 (Windows NT 10.0; Win64; x64) AppleWebKit/537.36 (KHTML, like Gecko) Chrome/131.0.0.0 Safari/537.36","WebKit","Chrome","131.0.0.0","Windows","10.0","https://app.prolific.com/","en-US,en;q=0.9","6747cb2578e508f43be65a76","67949641171f97c04e14fb34","679c2440f7b012f9e0675f88","","null","<img  src='G_4.jpg' height='90'> <img id='swapped' src='G_2.jpg' height='90'> <img id='swapped'  src='G_7.jpg' height='90'> <img src='G_8.jpg' height='90'> <img src='G_5.jpg' height='90'> <img src='G_1.jpg' height='90'> <img src='G_3.jpg' height='90'> <img src='G_6.jpg' height='90'>","null","Animation1",""
"","","","","","html-keyboard-response","70","344898","0.0-54.0","57","1","2025-01-31 01:16:00","af8d355d56820e421d246a7037deb6e6","74.80.146.36","Mozilla/5.0 (Windows NT 10.0; Win64; x64) AppleWebKit/537.36 (KHTML, like Gecko) Chrome/131.0.0.0 Safari/537.36","WebKit","Chrome","131.0.0.0","Windows","10.0","https://app.prolific.com/","en-US,en;q=0.9","6747cb2578e508f43be65a76","67949641171f97c04e14fb34","679c2440f7b012f9e0675f88","","null","<img  src='G_4.jpg' height='90'> <img  src='G_2.jpg' height='90'> <img   src='G_7.jpg' height='90'> <img src='G_8.jpg' height='90'> <img src='G_5.jpg' height='90'> <img src='G_1.jpg' height='90'> <img src='G_3.jpg' height='90'> <img src='G_6.jpg' height='90'>","null","Animation1",""
"","","","","","html-keyboard-response","71","345411","0.0-55.0","57","1","2025-01-31 01:16:00","af8d355d56820e421d246a7037deb6e6","74.80.146.36","Mozilla/5.0 (Windows NT 10.0; Win64; x64) AppleWebKit/537.36 (KHTML, like Gecko) Chrome/131.0.0.0 Safari/537.36","WebKit","Chrome","131.0.0.0","Windows","10.0","https://app.prolific.com/","en-US,en;q=0.9","6747cb2578e508f43be65a76","67949641171f97c04e14fb34","679c2440f7b012f9e0675f88","","null","<img id='selected'  src='G_4.jpg' height='90'> <img  src='G_2.jpg' height='90'> <img   src='G_7.jpg' height='90'> <img src='G_8.jpg' height='90'> <img src='G_5.jpg' height='90'> <img src='G_1.jpg' height='90'> <img src='G_3.jpg' height='90'> <img src='G_6.jpg' height='90'>","null","Animation1",""
"","","","","","html-keyboard-response","72","345928","0.0-56.0","57","1","2025-01-31 01:16:00","af8d355d56820e421d246a7037deb6e6","74.80.146.36","Mozilla/5.0 (Windows NT 10.0; Win64; x64) AppleWebKit/537.36 (KHTML, like Gecko) Chrome/131.0.0.0 Safari/537.36","WebKit","Chrome","131.0.0.0","Windows","10.0","https://app.prolific.com/","en-US,en;q=0.9","6747cb2578e508f43be65a76","67949641171f97c04e14fb34","679c2440f7b012f9e0675f88","","null","<img id='selected'  src='G_4.jpg' height='90'> <img id='selected'  src='G_2.jpg' height='90'> <img   src='G_7.jpg' height='90'> <img src='G_8.jpg' height='90'> <img src='G_5.jpg' height='90'> <img src='G_1.jpg' height='90'> <img src='G_3.jpg' height='90'> <img src='G_6.jpg' height='90'>","null","Animation1",""
"","","","","","html-keyboard-response","73","346434","0.0-57.0","57","1","2025-01-31 01:16:00","af8d355d56820e421d246a7037deb6e6","74.80.146.36","Mozilla/5.0 (Windows NT 10.0; Win64; x64) AppleWebKit/537.36 (KHTML, like Gecko) Chrome/131.0.0.0 Safari/537.36","WebKit","Chrome","131.0.0.0","Windows","10.0","https://app.prolific.com/","en-US,en;q=0.9","6747cb2578e508f43be65a76","67949641171f97c04e14fb34","679c2440f7b012f9e0675f88","","null","<img id='swapped'  src='G_2.jpg' height='90'> <img id='swapped'  src='G_4.jpg' height='90'> <img   src='G_7.jpg' height='90'> <img src='G_8.jpg' height='90'> <img src='G_5.jpg' height='90'> <img src='G_1.jpg' height='90'> <img src='G_3.jpg' height='90'> <img src='G_6.jpg' height='90'>","null","Animation1",""
"","","","","","html-keyboard-response","74","346745","0.0-58.0","57","1","2025-01-31 01:16:00","af8d355d56820e421d246a7037deb6e6","74.80.146.36","Mozilla/5.0 (Windows NT 10.0; Win64; x64) AppleWebKit/537.36 (KHTML, like Gecko) Chrome/131.0.0.0 Safari/537.36","WebKit","Chrome","131.0.0.0","Windows","10.0","https://app.prolific.com/","en-US,en;q=0.9","6747cb2578e508f43be65a76","67949641171f97c04e14fb34","679c2440f7b012f9e0675f88","","null","<img   src='G_2.jpg' height='90'> <img   src='G_4.jpg' height='90'> <img   src='G_7.jpg' height='90'> <img src='G_8.jpg' height='90'> <img src='G_5.jpg' height='90'> <img src='G_1.jpg' height='90'> <img src='G_3.jpg' height='90'> <img src='G_6.jpg' height='90'>","null","Animation1",""
"","","","","","html-keyboard-response","75","347257","0.0-59.0","57","1","2025-01-31 01:16:00","af8d355d56820e421d246a7037deb6e6","74.80.146.36","Mozilla/5.0 (Windows NT 10.0; Win64; x64) AppleWebKit/537.36 (KHTML, like Gecko) Chrome/131.0.0.0 Safari/537.36","WebKit","Chrome","131.0.0.0","Windows","10.0","https://app.prolific.com/","en-US,en;q=0.9","6747cb2578e508f43be65a76","67949641171f97c04e14fb34","679c2440f7b012f9e0675f88","","null","<img   src='G_2.jpg' height='90'> <img   src='G_4.jpg' height='90'> <img id='selected'   src='G_7.jpg' height='90'> <img src='G_8.jpg' height='90'> <img src='G_5.jpg' height='90'> <img src='G_1.jpg' height='90'> <img src='G_3.jpg' height='90'> <img src='G_6.jpg' height='90'>","null","Animation1",""
"","","","","","html-keyboard-response","76","347769","0.0-60.0","57","1","2025-01-31 01:16:00","af8d355d56820e421d246a7037deb6e6","74.80.146.36","Mozilla/5.0 (Windows NT 10.0; Win64; x64) AppleWebKit/537.36 (KHTML, like Gecko) Chrome/131.0.0.0 Safari/537.36","WebKit","Chrome","131.0.0.0","Windows","10.0","https://app.prolific.com/","en-US,en;q=0.9","6747cb2578e508f43be65a76","67949641171f97c04e14fb34","679c2440f7b012f9e0675f88","","null","<img   src='G_2.jpg' height='90'> <img   src='G_4.jpg' height='90'> <img id='selected'   src='G_7.jpg' height='90'> <img id='selected' src='G_8.jpg' height='90'> <img src='G_5.jpg' height='90'> <img src='G_1.jpg' height='90'> <img src='G_3.jpg' height='90'> <img src='G_6.jpg' height='90'>","null","Animation1",""
"","","","","","html-keyboard-response","77","348279","0.0-61.0","57","1","2025-01-31 01:16:00","af8d355d56820e421d246a7037deb6e6","74.80.146.36","Mozilla/5.0 (Windows NT 10.0; Win64; x64) AppleWebKit/537.36 (KHTML, like Gecko) Chrome/131.0.0.0 Safari/537.36","WebKit","Chrome","131.0.0.0","Windows","10.0","https://app.prolific.com/","en-US,en;q=0.9","6747cb2578e508f43be65a76","67949641171f97c04e14fb34","679c2440f7b012f9e0675f88","","null","<img   src='G_2.jpg' height='90'> <img   src='G_4.jpg' height='90'> <img id='swapped' src='G_8.jpg' height='90'> <img id='swapped'   src='G_7.jpg' height='90'> <img src='G_5.jpg' height='90'> <img src='G_1.jpg' height='90'> <img src='G_3.jpg' height='90'> <img src='G_6.jpg' height='90'>","null","Animation1",""
"","","","","","html-keyboard-response","78","348591","0.0-62.0","57","1","2025-01-31 01:16:00","af8d355d56820e421d246a7037deb6e6","74.80.146.36","Mozilla/5.0 (Windows NT 10.0; Win64; x64) AppleWebKit/537.36 (KHTML, like Gecko) Chrome/131.0.0.0 Safari/537.36","WebKit","Chrome","131.0.0.0","Windows","10.0","https://app.prolific.com/","en-US,en;q=0.9","6747cb2578e508f43be65a76","67949641171f97c04e14fb34","679c2440f7b012f9e0675f88","","null","<img   src='G_2.jpg' height='90'> <img   src='G_4.jpg' height='90'> <img  src='G_8.jpg' height='90'> <img    src='G_7.jpg' height='90'> <img src='G_5.jpg' height='90'> <img src='G_1.jpg' height='90'> <img src='G_3.jpg' height='90'> <img src='G_6.jpg' height='90'>","null","Animation1",""
"","","","","","html-keyboard-response","79","349109","0.0-63.0","57","1","2025-01-31 01:16:00","af8d355d56820e421d246a7037deb6e6","74.80.146.36","Mozilla/5.0 (Windows NT 10.0; Win64; x64) AppleWebKit/537.36 (KHTML, like Gecko) Chrome/131.0.0.0 Safari/537.36","WebKit","Chrome","131.0.0.0","Windows","10.0","https://app.prolific.com/","en-US,en;q=0.9","6747cb2578e508f43be65a76","67949641171f97c04e14fb34","679c2440f7b012f9e0675f88","","null","<img   src='G_2.jpg' height='90'> <img id='selected'   src='G_4.jpg' height='90'> <img  src='G_8.jpg' height='90'> <img    src='G_7.jpg' height='90'> <img src='G_5.jpg' height='90'> <img src='G_1.jpg' height='90'> <img src='G_3.jpg' height='90'> <img src='G_6.jpg' height='90'>","null","Animation1",""
"","","","","","html-keyboard-response","80","349617","0.0-64.0","57","1","2025-01-31 01:16:00","af8d355d56820e421d246a7037deb6e6","74.80.146.36","Mozilla/5.0 (Windows NT 10.0; Win64; x64) AppleWebKit/537.36 (KHTML, like Gecko) Chrome/131.0.0.0 Safari/537.36","WebKit","Chrome","131.0.0.0","Windows","10.0","https://app.prolific.com/","en-US,en;q=0.9","6747cb2578e508f43be65a76","67949641171f97c04e14fb34","679c2440f7b012f9e0675f88","","null","<img   src='G_2.jpg' height='90'> <img id='selected'   src='G_4.jpg' height='90'> <img id='selected'  src='G_8.jpg' height='90'> <img    src='G_7.jpg' height='90'> <img src='G_5.jpg' height='90'> <img src='G_1.jpg' height='90'> <img src='G_3.jpg' height='90'> <img src='G_6.jpg' height='90'>","null","Animation1",""
"","","","","","html-keyboard-response","81","350130","0.0-65.0","57","1","2025-01-31 01:16:00","af8d355d56820e421d246a7037deb6e6","74.80.146.36","Mozilla/5.0 (Windows NT 10.0; Win64; x64) AppleWebKit/537.36 (KHTML, like Gecko) Chrome/131.0.0.0 Safari/537.36","WebKit","Chrome","131.0.0.0","Windows","10.0","https://app.prolific.com/","en-US,en;q=0.9","6747cb2578e508f43be65a76","67949641171f97c04e14fb34","679c2440f7b012f9e0675f88","","null","<img   src='G_2.jpg' height='90'> <img id='swapped'  src='G_8.jpg' height='90'> <img id='swapped'   src='G_4.jpg' height='90'> <img    src='G_7.jpg' height='90'> <img src='G_5.jpg' height='90'> <img src='G_1.jpg' height='90'> <img src='G_3.jpg' height='90'> <img src='G_6.jpg' height='90'>","null","Animation1",""
"","","","","","html-keyboard-response","82","350434","0.0-66.0","57","1","2025-01-31 01:16:00","af8d355d56820e421d246a7037deb6e6","74.80.146.36","Mozilla/5.0 (Windows NT 10.0; Win64; x64) AppleWebKit/537.36 (KHTML, like Gecko) Chrome/131.0.0.0 Safari/537.36","WebKit","Chrome","131.0.0.0","Windows","10.0","https://app.prolific.com/","en-US,en;q=0.9","6747cb2578e508f43be65a76","67949641171f97c04e14fb34","679c2440f7b012f9e0675f88","","null","<img   src='G_2.jpg' height='90'> <img   src='G_8.jpg' height='90'> <img    src='G_4.jpg' height='90'> <img    src='G_7.jpg' height='90'> <img src='G_5.jpg' height='90'> <img src='G_1.jpg' height='90'> <img src='G_3.jpg' height='90'> <img src='G_6.jpg' height='90'>","null","Animation1",""
"","","","","","html-keyboard-response","83","350937","0.0-67.0","57","1","2025-01-31 01:16:00","af8d355d56820e421d246a7037deb6e6","74.80.146.36","Mozilla/5.0 (Windows NT 10.0; Win64; x64) AppleWebKit/537.36 (KHTML, like Gecko) Chrome/131.0.0.0 Safari/537.36","WebKit","Chrome","131.0.0.0","Windows","10.0","https://app.prolific.com/","en-US,en;q=0.9","6747cb2578e508f43be65a76","67949641171f97c04e14fb34","679c2440f7b012f9e0675f88","","null","<img id='selected'   src='G_2.jpg' height='90'> <img   src='G_8.jpg' height='90'> <img    src='G_4.jpg' height='90'> <img    src='G_7.jpg' height='90'> <img src='G_5.jpg' height='90'> <img src='G_1.jpg' height='90'> <img src='G_3.jpg' height='90'> <img src='G_6.jpg' height='90'>","null","Animation1",""
"","","","","","html-keyboard-response","84","351450","0.0-68.0","57","1","2025-01-31 01:16:00","af8d355d56820e421d246a7037deb6e6","74.80.146.36","Mozilla/5.0 (Windows NT 10.0; Win64; x64) AppleWebKit/537.36 (KHTML, like Gecko) Chrome/131.0.0.0 Safari/537.36","WebKit","Chrome","131.0.0.0","Windows","10.0","https://app.prolific.com/","en-US,en;q=0.9","6747cb2578e508f43be65a76","67949641171f97c04e14fb34","679c2440f7b012f9e0675f88","","null","<img id='selected'   src='G_2.jpg' height='90'> <img id='selected'   src='G_8.jpg' height='90'> <img    src='G_4.jpg' height='90'> <img    src='G_7.jpg' height='90'> <img src='G_5.jpg' height='90'> <img src='G_1.jpg' height='90'> <img src='G_3.jpg' height='90'> <img src='G_6.jpg' height='90'>","null","Animation1",""
"","","","","","html-keyboard-response","85","351968","0.0-69.0","57","1","2025-01-31 01:16:00","af8d355d56820e421d246a7037deb6e6","74.80.146.36","Mozilla/5.0 (Windows NT 10.0; Win64; x64) AppleWebKit/537.36 (KHTML, like Gecko) Chrome/131.0.0.0 Safari/537.36","WebKit","Chrome","131.0.0.0","Windows","10.0","https://app.prolific.com/","en-US,en;q=0.9","6747cb2578e508f43be65a76","67949641171f97c04e14fb34","679c2440f7b012f9e0675f88","","null","<img id='swapped'   src='G_8.jpg' height='90'> <img id='swapped'   src='G_2.jpg' height='90'> <img    src='G_4.jpg' height='90'> <img    src='G_7.jpg' height='90'> <img src='G_5.jpg' height='90'> <img src='G_1.jpg' height='90'> <img src='G_3.jpg' height='90'> <img src='G_6.jpg' height='90'>","null","Animation1",""
"","","","","","html-keyboard-response","86","352277","0.0-70.0","57","1","2025-01-31 01:16:00","af8d355d56820e421d246a7037deb6e6","74.80.146.36","Mozilla/5.0 (Windows NT 10.0; Win64; x64) AppleWebKit/537.36 (KHTML, like Gecko) Chrome/131.0.0.0 Safari/537.36","WebKit","Chrome","131.0.0.0","Windows","10.0","https://app.prolific.com/","en-US,en;q=0.9","6747cb2578e508f43be65a76","67949641171f97c04e14fb34","679c2440f7b012f9e0675f88","","null","<img    src='G_8.jpg' height='90'> <img    src='G_2.jpg' height='90'> <img    src='G_4.jpg' height='90'> <img    src='G_7.jpg' height='90'> <img src='G_5.jpg' height='90'> <img src='G_1.jpg' height='90'> <img src='G_3.jpg' height='90'> <img src='G_6.jpg' height='90'>","null","Animation1",""
"","","","","","html-keyboard-response","87","352782","0.0-71.0","57","1","2025-01-31 01:16:00","af8d355d56820e421d246a7037deb6e6","74.80.146.36","Mozilla/5.0 (Windows NT 10.0; Win64; x64) AppleWebKit/537.36 (KHTML, like Gecko) Chrome/131.0.0.0 Safari/537.36","WebKit","Chrome","131.0.0.0","Windows","10.0","https://app.prolific.com/","en-US,en;q=0.9","6747cb2578e508f43be65a76","67949641171f97c04e14fb34","679c2440f7b012f9e0675f88","","null","<img    src='G_8.jpg' height='90'> <img    src='G_2.jpg' height='90'> <img    src='G_4.jpg' height='90'> <img id='selected'    src='G_7.jpg' height='90'> <img src='G_5.jpg' height='90'> <img src='G_1.jpg' height='90'> <img src='G_3.jpg' height='90'> <img src='G_6.jpg' height='90'>","null","Animation1",""
"","","","","","html-keyboard-response","88","353290","0.0-72.0","57","1","2025-01-31 01:16:00","af8d355d56820e421d246a7037deb6e6","74.80.146.36","Mozilla/5.0 (Windows NT 10.0; Win64; x64) AppleWebKit/537.36 (KHTML, like Gecko) Chrome/131.0.0.0 Safari/537.36","WebKit","Chrome","131.0.0.0","Windows","10.0","https://app.prolific.com/","en-US,en;q=0.9","6747cb2578e508f43be65a76","67949641171f97c04e14fb34","679c2440f7b012f9e0675f88","","null","<img    src='G_8.jpg' height='90'> <img    src='G_2.jpg' height='90'> <img    src='G_4.jpg' height='90'> <img id='selected'    src='G_7.jpg' height='90'> <img id='selected' src='G_5.jpg' height='90'> <img src='G_1.jpg' height='90'> <img src='G_3.jpg' height='90'> <img src='G_6.jpg' height='90'>","null","Animation1",""
"","","","","","html-keyboard-response","89","353794","0.0-73.0","57","1","2025-01-31 01:16:00","af8d355d56820e421d246a7037deb6e6","74.80.146.36","Mozilla/5.0 (Windows NT 10.0; Win64; x64) AppleWebKit/537.36 (KHTML, like Gecko) Chrome/131.0.0.0 Safari/537.36","WebKit","Chrome","131.0.0.0","Windows","10.0","https://app.prolific.com/","en-US,en;q=0.9","6747cb2578e508f43be65a76","67949641171f97c04e14fb34","679c2440f7b012f9e0675f88","","null","<img    src='G_8.jpg' height='90'> <img    src='G_2.jpg' height='90'> <img    src='G_4.jpg' height='90'> <img id='swapped' src='G_5.jpg' height='90'> <img id='swapped'    src='G_7.jpg' height='90'> <img src='G_1.jpg' height='90'> <img src='G_3.jpg' height='90'> <img src='G_6.jpg' height='90'>","null","Animation1",""
"","","","","","html-keyboard-response","90","354104","0.0-74.0","57","1","2025-01-31 01:16:00","af8d355d56820e421d246a7037deb6e6","74.80.146.36","Mozilla/5.0 (Windows NT 10.0; Win64; x64) AppleWebKit/537.36 (KHTML, like Gecko) Chrome/131.0.0.0 Safari/537.36","WebKit","Chrome","131.0.0.0","Windows","10.0","https://app.prolific.com/","en-US,en;q=0.9","6747cb2578e508f43be65a76","67949641171f97c04e14fb34","679c2440f7b012f9e0675f88","","null","<img    src='G_8.jpg' height='90'> <img    src='G_2.jpg' height='90'> <img    src='G_4.jpg' height='90'> <img  src='G_5.jpg' height='90'> <img     src='G_7.jpg' height='90'> <img src='G_1.jpg' height='90'> <img src='G_3.jpg' height='90'> <img src='G_6.jpg' height='90'>","null","Animation1",""
"","","","","","html-keyboard-response","91","354617","0.0-75.0","57","1","2025-01-31 01:16:00","af8d355d56820e421d246a7037deb6e6","74.80.146.36","Mozilla/5.0 (Windows NT 10.0; Win64; x64) AppleWebKit/537.36 (KHTML, like Gecko) Chrome/131.0.0.0 Safari/537.36","WebKit","Chrome","131.0.0.0","Windows","10.0","https://app.prolific.com/","en-US,en;q=0.9","6747cb2578e508f43be65a76","67949641171f97c04e14fb34","679c2440f7b012f9e0675f88","","null","<img    src='G_8.jpg' height='90'> <img    src='G_2.jpg' height='90'> <img id='selected'    src='G_4.jpg' height='90'> <img  src='G_5.jpg' height='90'> <img     src='G_7.jpg' height='90'> <img src='G_1.jpg' height='90'> <img src='G_3.jpg' height='90'> <img src='G_6.jpg' height='90'>","null","Animation1",""
"","","","","","html-keyboard-response","92","355127","0.0-76.0","57","1","2025-01-31 01:16:00","af8d355d56820e421d246a7037deb6e6","74.80.146.36","Mozilla/5.0 (Windows NT 10.0; Win64; x64) AppleWebKit/537.36 (KHTML, like Gecko) Chrome/131.0.0.0 Safari/537.36","WebKit","Chrome","131.0.0.0","Windows","10.0","https://app.prolific.com/","en-US,en;q=0.9","6747cb2578e508f43be65a76","67949641171f97c04e14fb34","679c2440f7b012f9e0675f88","","null","<img    src='G_8.jpg' height='90'> <img    src='G_2.jpg' height='90'> <img id='selected'    src='G_4.jpg' height='90'> <img id='selected'  src='G_5.jpg' height='90'> <img     src='G_7.jpg' height='90'> <img src='G_1.jpg' height='90'> <img src='G_3.jpg' height='90'> <img src='G_6.jpg' height='90'>","null","Animation1",""
"","","","","","html-keyboard-response","93","355630","0.0-77.0","57","1","2025-01-31 01:16:00","af8d355d56820e421d246a7037deb6e6","74.80.146.36","Mozilla/5.0 (Windows NT 10.0; Win64; x64) AppleWebKit/537.36 (KHTML, like Gecko) Chrome/131.0.0.0 Safari/537.36","WebKit","Chrome","131.0.0.0","Windows","10.0","https://app.prolific.com/","en-US,en;q=0.9","6747cb2578e508f43be65a76","67949641171f97c04e14fb34","679c2440f7b012f9e0675f88","","null","<img    src='G_8.jpg' height='90'> <img    src='G_2.jpg' height='90'> <img id='swapped'  src='G_5.jpg' height='90'> <img id='swapped'    src='G_4.jpg' height='90'> <img     src='G_7.jpg' height='90'> <img src='G_1.jpg' height='90'> <img src='G_3.jpg' height='90'> <img src='G_6.jpg' height='90'>","null","Animation1",""
"","","","","","html-keyboard-response","94","355937","0.0-78.0","57","1","2025-01-31 01:16:00","af8d355d56820e421d246a7037deb6e6","74.80.146.36","Mozilla/5.0 (Windows NT 10.0; Win64; x64) AppleWebKit/537.36 (KHTML, like Gecko) Chrome/131.0.0.0 Safari/537.36","WebKit","Chrome","131.0.0.0","Windows","10.0","https://app.prolific.com/","en-US,en;q=0.9","6747cb2578e508f43be65a76","67949641171f97c04e14fb34","679c2440f7b012f9e0675f88","","null","<img    src='G_8.jpg' height='90'> <img    src='G_2.jpg' height='90'> <img   src='G_5.jpg' height='90'> <img     src='G_4.jpg' height='90'> <img     src='G_7.jpg' height='90'> <img src='G_1.jpg' height='90'> <img src='G_3.jpg' height='90'> <img src='G_6.jpg' height='90'>","null","Animation1",""
"","","","","","html-keyboard-response","95","356444","0.0-79.0","57","1","2025-01-31 01:16:00","af8d355d56820e421d246a7037deb6e6","74.80.146.36","Mozilla/5.0 (Windows NT 10.0; Win64; x64) AppleWebKit/537.36 (KHTML, like Gecko) Chrome/131.0.0.0 Safari/537.36","WebKit","Chrome","131.0.0.0","Windows","10.0","https://app.prolific.com/","en-US,en;q=0.9","6747cb2578e508f43be65a76","67949641171f97c04e14fb34","679c2440f7b012f9e0675f88","","null","<img    src='G_8.jpg' height='90'> <img id='selected'    src='G_2.jpg' height='90'> <img   src='G_5.jpg' height='90'> <img     src='G_4.jpg' height='90'> <img     src='G_7.jpg' height='90'> <img src='G_1.jpg' height='90'> <img src='G_3.jpg' height='90'> <img src='G_6.jpg' height='90'>","null","Animation1",""
"","","","","","html-keyboard-response","96","356950","0.0-80.0","57","1","2025-01-31 01:16:00","af8d355d56820e421d246a7037deb6e6","74.80.146.36","Mozilla/5.0 (Windows NT 10.0; Win64; x64) AppleWebKit/537.36 (KHTML, like Gecko) Chrome/131.0.0.0 Safari/537.36","WebKit","Chrome","131.0.0.0","Windows","10.0","https://app.prolific.com/","en-US,en;q=0.9","6747cb2578e508f43be65a76","67949641171f97c04e14fb34","679c2440f7b012f9e0675f88","","null","<img    src='G_8.jpg' height='90'> <img id='selected'    src='G_2.jpg' height='90'> <img id='selected'   src='G_5.jpg' height='90'> <img     src='G_4.jpg' height='90'> <img     src='G_7.jpg' height='90'> <img src='G_1.jpg' height='90'> <img src='G_3.jpg' height='90'> <img src='G_6.jpg' height='90'>","null","Animation1",""
"","","","","","html-keyboard-response","97","357460","0.0-81.0","57","1","2025-01-31 01:16:00","af8d355d56820e421d246a7037deb6e6","74.80.146.36","Mozilla/5.0 (Windows NT 10.0; Win64; x64) AppleWebKit/537.36 (KHTML, like Gecko) Chrome/131.0.0.0 Safari/537.36","WebKit","Chrome","131.0.0.0","Windows","10.0","https://app.prolific.com/","en-US,en;q=0.9","6747cb2578e508f43be65a76","67949641171f97c04e14fb34","679c2440f7b012f9e0675f88","","null","<img    src='G_8.jpg' height='90'> <img id='swapped'   src='G_5.jpg' height='90'> <img id='swapped'    src='G_2.jpg' height='90'> <img     src='G_4.jpg' height='90'> <img     src='G_7.jpg' height='90'> <img src='G_1.jpg' height='90'> <img src='G_3.jpg' height='90'> <img src='G_6.jpg' height='90'>","null","Animation1",""
"","","","","","html-keyboard-response","98","357771","0.0-82.0","57","1","2025-01-31 01:16:00","af8d355d56820e421d246a7037deb6e6","74.80.146.36","Mozilla/5.0 (Windows NT 10.0; Win64; x64) AppleWebKit/537.36 (KHTML, like Gecko) Chrome/131.0.0.0 Safari/537.36","WebKit","Chrome","131.0.0.0","Windows","10.0","https://app.prolific.com/","en-US,en;q=0.9","6747cb2578e508f43be65a76","67949641171f97c04e14fb34","679c2440f7b012f9e0675f88","","null","<img    src='G_8.jpg' height='90'> <img    src='G_5.jpg' height='90'> <img     src='G_2.jpg' height='90'> <img     src='G_4.jpg' height='90'> <img     src='G_7.jpg' height='90'> <img src='G_1.jpg' height='90'> <img src='G_3.jpg' height='90'> <img src='G_6.jpg' height='90'>","null","Animation1",""
"","","","","","html-keyboard-response","99","358286","0.0-83.0","57","1","2025-01-31 01:16:00","af8d355d56820e421d246a7037deb6e6","74.80.146.36","Mozilla/5.0 (Windows NT 10.0; Win64; x64) AppleWebKit/537.36 (KHTML, like Gecko) Chrome/131.0.0.0 Safari/537.36","WebKit","Chrome","131.0.0.0","Windows","10.0","https://app.prolific.com/","en-US,en;q=0.9","6747cb2578e508f43be65a76","67949641171f97c04e14fb34","679c2440f7b012f9e0675f88","","null","<img id='selected'    src='G_8.jpg' height='90'> <img    src='G_5.jpg' height='90'> <img     src='G_2.jpg' height='90'> <img     src='G_4.jpg' height='90'> <img     src='G_7.jpg' height='90'> <img src='G_1.jpg' height='90'> <img src='G_3.jpg' height='90'> <img src='G_6.jpg' height='90'>","null","Animation1",""
"","","","","","html-keyboard-response","100","358796","0.0-84.0","57","1","2025-01-31 01:16:00","af8d355d56820e421d246a7037deb6e6","74.80.146.36","Mozilla/5.0 (Windows NT 10.0; Win64; x64) AppleWebKit/537.36 (KHTML, like Gecko) Chrome/131.0.0.0 Safari/537.36","WebKit","Chrome","131.0.0.0","Windows","10.0","https://app.prolific.com/","en-US,en;q=0.9","6747cb2578e508f43be65a76","67949641171f97c04e14fb34","679c2440f7b012f9e0675f88","","null","<img id='selected'    src='G_8.jpg' height='90'> <img id='selected'    src='G_5.jpg' height='90'> <img     src='G_2.jpg' height='90'> <img     src='G_4.jpg' height='90'> <img     src='G_7.jpg' height='90'> <img src='G_1.jpg' height='90'> <img src='G_3.jpg' height='90'> <img src='G_6.jpg' height='90'>","null","Animation1",""
"","","","","","html-keyboard-response","101","359301","0.0-85.0","57","1","2025-01-31 01:16:00","af8d355d56820e421d246a7037deb6e6","74.80.146.36","Mozilla/5.0 (Windows NT 10.0; Win64; x64) AppleWebKit/537.36 (KHTML, like Gecko) Chrome/131.0.0.0 Safari/537.36","WebKit","Chrome","131.0.0.0","Windows","10.0","https://app.prolific.com/","en-US,en;q=0.9","6747cb2578e508f43be65a76","67949641171f97c04e14fb34","679c2440f7b012f9e0675f88","","null","<img id='selected'    src='G_8.jpg' height='90'> <img id='selected'    src='G_5.jpg' height='90'> <img     src='G_2.jpg' height='90'> <img     src='G_4.jpg' height='90'> <img     src='G_7.jpg' height='90'> <img src='G_1.jpg' height='90'> <img src='G_3.jpg' height='90'> <img src='G_6.jpg' height='90'>","null","Animation1",""
"","","","","","html-keyboard-response","102","359612","0.0-86.0","57","1","2025-01-31 01:16:00","af8d355d56820e421d246a7037deb6e6","74.80.146.36","Mozilla/5.0 (Windows NT 10.0; Win64; x64) AppleWebKit/537.36 (KHTML, like Gecko) Chrome/131.0.0.0 Safari/537.36","WebKit","Chrome","131.0.0.0","Windows","10.0","https://app.prolific.com/","en-US,en;q=0.9","6747cb2578e508f43be65a76","67949641171f97c04e14fb34","679c2440f7b012f9e0675f88","","null","<img     src='G_8.jpg' height='90'> <img     src='G_5.jpg' height='90'> <img     src='G_2.jpg' height='90'> <img     src='G_4.jpg' height='90'> <img     src='G_7.jpg' height='90'> <img src='G_1.jpg' height='90'> <img src='G_3.jpg' height='90'> <img src='G_6.jpg' height='90'>","null","Animation1",""
"","","","","","html-keyboard-response","103","360121","0.0-87.0","57","1","2025-01-31 01:16:00","af8d355d56820e421d246a7037deb6e6","74.80.146.36","Mozilla/5.0 (Windows NT 10.0; Win64; x64) AppleWebKit/537.36 (KHTML, like Gecko) Chrome/131.0.0.0 Safari/537.36","WebKit","Chrome","131.0.0.0","Windows","10.0","https://app.prolific.com/","en-US,en;q=0.9","6747cb2578e508f43be65a76","67949641171f97c04e14fb34","679c2440f7b012f9e0675f88","","null","<img     src='G_8.jpg' height='90'> <img     src='G_5.jpg' height='90'> <img     src='G_2.jpg' height='90'> <img     src='G_4.jpg' height='90'> <img id='selected'     src='G_7.jpg' height='90'> <img src='G_1.jpg' height='90'> <img src='G_3.jpg' height='90'> <img src='G_6.jpg' height='90'>","null","Animation1",""
"","","","","","html-keyboard-response","104","360627","0.0-88.0","57","1","2025-01-31 01:16:00","af8d355d56820e421d246a7037deb6e6","74.80.146.36","Mozilla/5.0 (Windows NT 10.0; Win64; x64) AppleWebKit/537.36 (KHTML, like Gecko) Chrome/131.0.0.0 Safari/537.36","WebKit","Chrome","131.0.0.0","Windows","10.0","https://app.prolific.com/","en-US,en;q=0.9","6747cb2578e508f43be65a76","67949641171f97c04e14fb34","679c2440f7b012f9e0675f88","","null","<img     src='G_8.jpg' height='90'> <img     src='G_5.jpg' height='90'> <img     src='G_2.jpg' height='90'> <img     src='G_4.jpg' height='90'> <img id='selected'     src='G_7.jpg' height='90'> <img id='selected' src='G_1.jpg' height='90'> <img src='G_3.jpg' height='90'> <img src='G_6.jpg' height='90'>","null","Animation1",""
"","","","","","html-keyboard-response","105","361143","0.0-89.0","57","1","2025-01-31 01:16:00","af8d355d56820e421d246a7037deb6e6","74.80.146.36","Mozilla/5.0 (Windows NT 10.0; Win64; x64) AppleWebKit/537.36 (KHTML, like Gecko) Chrome/131.0.0.0 Safari/537.36","WebKit","Chrome","131.0.0.0","Windows","10.0","https://app.prolific.com/","en-US,en;q=0.9","6747cb2578e508f43be65a76","67949641171f97c04e14fb34","679c2440f7b012f9e0675f88","","null","<img     src='G_8.jpg' height='90'> <img     src='G_5.jpg' height='90'> <img     src='G_2.jpg' height='90'> <img     src='G_4.jpg' height='90'> <img id='swapped' src='G_1.jpg' height='90'> <img id='swapped'     src='G_7.jpg' height='90'> <img src='G_3.jpg' height='90'> <img src='G_6.jpg' height='90'>","null","Animation1",""
"","","","","","html-keyboard-response","106","361450","0.0-90.0","57","1","2025-01-31 01:16:00","af8d355d56820e421d246a7037deb6e6","74.80.146.36","Mozilla/5.0 (Windows NT 10.0; Win64; x64) AppleWebKit/537.36 (KHTML, like Gecko) Chrome/131.0.0.0 Safari/537.36","WebKit","Chrome","131.0.0.0","Windows","10.0","https://app.prolific.com/","en-US,en;q=0.9","6747cb2578e508f43be65a76","67949641171f97c04e14fb34","679c2440f7b012f9e0675f88","","null","<img     src='G_8.jpg' height='90'> <img     src='G_5.jpg' height='90'> <img     src='G_2.jpg' height='90'> <img     src='G_4.jpg' height='90'> <img  src='G_1.jpg' height='90'> <img      src='G_7.jpg' height='90'> <img src='G_3.jpg' height='90'> <img src='G_6.jpg' height='90'>","null","Animation1",""
"","","","","","html-keyboard-response","107","361959","0.0-91.0","57","1","2025-01-31 01:16:00","af8d355d56820e421d246a7037deb6e6","74.80.146.36","Mozilla/5.0 (Windows NT 10.0; Win64; x64) AppleWebKit/537.36 (KHTML, like Gecko) Chrome/131.0.0.0 Safari/537.36","WebKit","Chrome","131.0.0.0","Windows","10.0","https://app.prolific.com/","en-US,en;q=0.9","6747cb2578e508f43be65a76","67949641171f97c04e14fb34","679c2440f7b012f9e0675f88","","null","<img     src='G_8.jpg' height='90'> <img     src='G_5.jpg' height='90'> <img     src='G_2.jpg' height='90'> <img id='selected'     src='G_4.jpg' height='90'> <img  src='G_1.jpg' height='90'> <img      src='G_7.jpg' height='90'> <img src='G_3.jpg' height='90'> <img src='G_6.jpg' height='90'>","null","Animation1",""
"","","","","","html-keyboard-response","108","362471","0.0-92.0","57","1","2025-01-31 01:16:00","af8d355d56820e421d246a7037deb6e6","74.80.146.36","Mozilla/5.0 (Windows NT 10.0; Win64; x64) AppleWebKit/537.36 (KHTML, like Gecko) Chrome/131.0.0.0 Safari/537.36","WebKit","Chrome","131.0.0.0","Windows","10.0","https://app.prolific.com/","en-US,en;q=0.9","6747cb2578e508f43be65a76","67949641171f97c04e14fb34","679c2440f7b012f9e0675f88","","null","<img     src='G_8.jpg' height='90'> <img     src='G_5.jpg' height='90'> <img     src='G_2.jpg' height='90'> <img id='selected'     src='G_4.jpg' height='90'> <img id='selected'  src='G_1.jpg' height='90'> <img      src='G_7.jpg' height='90'> <img src='G_3.jpg' height='90'> <img src='G_6.jpg' height='90'>","null","Animation1",""
"","","","","","html-keyboard-response","109","362980","0.0-93.0","57","1","2025-01-31 01:16:00","af8d355d56820e421d246a7037deb6e6","74.80.146.36","Mozilla/5.0 (Windows NT 10.0; Win64; x64) AppleWebKit/537.36 (KHTML, like Gecko) Chrome/131.0.0.0 Safari/537.36","WebKit","Chrome","131.0.0.0","Windows","10.0","https://app.prolific.com/","en-US,en;q=0.9","6747cb2578e508f43be65a76","67949641171f97c04e14fb34","679c2440f7b012f9e0675f88","","null","<img     src='G_8.jpg' height='90'> <img     src='G_5.jpg' height='90'> <img     src='G_2.jpg' height='90'> <img id='selected'     src='G_4.jpg' height='90'> <img id='selected'  src='G_1.jpg' height='90'> <img      src='G_7.jpg' height='90'> <img src='G_3.jpg' height='90'> <img src='G_6.jpg' height='90'>","null","Animation1",""
"","","","","","html-keyboard-response","110","363297","0.0-94.0","57","1","2025-01-31 01:16:00","af8d355d56820e421d246a7037deb6e6","74.80.146.36","Mozilla/5.0 (Windows NT 10.0; Win64; x64) AppleWebKit/537.36 (KHTML, like Gecko) Chrome/131.0.0.0 Safari/537.36","WebKit","Chrome","131.0.0.0","Windows","10.0","https://app.prolific.com/","en-US,en;q=0.9","6747cb2578e508f43be65a76","67949641171f97c04e14fb34","679c2440f7b012f9e0675f88","","null","<img     src='G_8.jpg' height='90'> <img     src='G_5.jpg' height='90'> <img     src='G_2.jpg' height='90'> <img      src='G_4.jpg' height='90'> <img   src='G_1.jpg' height='90'> <img      src='G_7.jpg' height='90'> <img src='G_3.jpg' height='90'> <img src='G_6.jpg' height='90'>","null","Animation1",""
"","","","","","html-keyboard-response","111","363814","0.0-95.0","57","1","2025-01-31 01:16:00","af8d355d56820e421d246a7037deb6e6","74.80.146.36","Mozilla/5.0 (Windows NT 10.0; Win64; x64) AppleWebKit/537.36 (KHTML, like Gecko) Chrome/131.0.0.0 Safari/537.36","WebKit","Chrome","131.0.0.0","Windows","10.0","https://app.prolific.com/","en-US,en;q=0.9","6747cb2578e508f43be65a76","67949641171f97c04e14fb34","679c2440f7b012f9e0675f88","","null","<img     src='G_8.jpg' height='90'> <img     src='G_5.jpg' height='90'> <img     src='G_2.jpg' height='90'> <img      src='G_4.jpg' height='90'> <img   src='G_1.jpg' height='90'> <img id='selected'      src='G_7.jpg' height='90'> <img src='G_3.jpg' height='90'> <img src='G_6.jpg' height='90'>","null","Animation1",""
"","","","","","html-keyboard-response","112","364320","0.0-96.0","57","1","2025-01-31 01:16:00","af8d355d56820e421d246a7037deb6e6","74.80.146.36","Mozilla/5.0 (Windows NT 10.0; Win64; x64) AppleWebKit/537.36 (KHTML, like Gecko) Chrome/131.0.0.0 Safari/537.36","WebKit","Chrome","131.0.0.0","Windows","10.0","https://app.prolific.com/","en-US,en;q=0.9","6747cb2578e508f43be65a76","67949641171f97c04e14fb34","679c2440f7b012f9e0675f88","","null","<img     src='G_8.jpg' height='90'> <img     src='G_5.jpg' height='90'> <img     src='G_2.jpg' height='90'> <img      src='G_4.jpg' height='90'> <img   src='G_1.jpg' height='90'> <img id='selected'      src='G_7.jpg' height='90'> <img id='selected' src='G_3.jpg' height='90'> <img src='G_6.jpg' height='90'>","null","Animation1",""
"","","","","","html-keyboard-response","113","364830","0.0-97.0","57","1","2025-01-31 01:16:00","af8d355d56820e421d246a7037deb6e6","74.80.146.36","Mozilla/5.0 (Windows NT 10.0; Win64; x64) AppleWebKit/537.36 (KHTML, like Gecko) Chrome/131.0.0.0 Safari/537.36","WebKit","Chrome","131.0.0.0","Windows","10.0","https://app.prolific.com/","en-US,en;q=0.9","6747cb2578e508f43be65a76","67949641171f97c04e14fb34","679c2440f7b012f9e0675f88","","null","<img     src='G_8.jpg' height='90'> <img     src='G_5.jpg' height='90'> <img     src='G_2.jpg' height='90'> <img      src='G_4.jpg' height='90'> <img   src='G_1.jpg' height='90'> <img id='selected'      src='G_7.jpg' height='90'> <img id='selected' src='G_3.jpg' height='90'> <img src='G_6.jpg' height='90'>","null","Animation1",""
"","","","","","html-keyboard-response","114","365143","0.0-98.0","57","1","2025-01-31 01:16:00","af8d355d56820e421d246a7037deb6e6","74.80.146.36","Mozilla/5.0 (Windows NT 10.0; Win64; x64) AppleWebKit/537.36 (KHTML, like Gecko) Chrome/131.0.0.0 Safari/537.36","WebKit","Chrome","131.0.0.0","Windows","10.0","https://app.prolific.com/","en-US,en;q=0.9","6747cb2578e508f43be65a76","67949641171f97c04e14fb34","679c2440f7b012f9e0675f88","","null","<img     src='G_8.jpg' height='90'> <img     src='G_5.jpg' height='90'> <img     src='G_2.jpg' height='90'> <img      src='G_4.jpg' height='90'> <img   src='G_1.jpg' height='90'> <img       src='G_7.jpg' height='90'> <img  src='G_3.jpg' height='90'> <img src='G_6.jpg' height='90'>","null","Animation1",""
"","","","","","html-keyboard-response","115","365653","0.0-99.0","57","1","2025-01-31 01:16:00","af8d355d56820e421d246a7037deb6e6","74.80.146.36","Mozilla/5.0 (Windows NT 10.0; Win64; x64) AppleWebKit/537.36 (KHTML, like Gecko) Chrome/131.0.0.0 Safari/537.36","WebKit","Chrome","131.0.0.0","Windows","10.0","https://app.prolific.com/","en-US,en;q=0.9","6747cb2578e508f43be65a76","67949641171f97c04e14fb34","679c2440f7b012f9e0675f88","","null","<img     src='G_8.jpg' height='90'> <img     src='G_5.jpg' height='90'> <img     src='G_2.jpg' height='90'> <img      src='G_4.jpg' height='90'> <img   src='G_1.jpg' height='90'> <img       src='G_7.jpg' height='90'> <img id='selected'  src='G_3.jpg' height='90'> <img src='G_6.jpg' height='90'>","null","Animation1",""
"","","","","","html-keyboard-response","116","366165","0.0-100.0","57","1","2025-01-31 01:16:00","af8d355d56820e421d246a7037deb6e6","74.80.146.36","Mozilla/5.0 (Windows NT 10.0; Win64; x64) AppleWebKit/537.36 (KHTML, like Gecko) Chrome/131.0.0.0 Safari/537.36","WebKit","Chrome","131.0.0.0","Windows","10.0","https://app.prolific.com/","en-US,en;q=0.9","6747cb2578e508f43be65a76","67949641171f97c04e14fb34","679c2440f7b012f9e0675f88","","null","<img     src='G_8.jpg' height='90'> <img     src='G_5.jpg' height='90'> <img     src='G_2.jpg' height='90'> <img      src='G_4.jpg' height='90'> <img   src='G_1.jpg' height='90'> <img       src='G_7.jpg' height='90'> <img id='selected'  src='G_3.jpg' height='90'> <img id='selected' src='G_6.jpg' height='90'>","null","Animation1",""
"","","","","","html-keyboard-response","117","366677","0.0-101.0","57","1","2025-01-31 01:16:00","af8d355d56820e421d246a7037deb6e6","74.80.146.36","Mozilla/5.0 (Windows NT 10.0; Win64; x64) AppleWebKit/537.36 (KHTML, like Gecko) Chrome/131.0.0.0 Safari/537.36","WebKit","Chrome","131.0.0.0","Windows","10.0","https://app.prolific.com/","en-US,en;q=0.9","6747cb2578e508f43be65a76","67949641171f97c04e14fb34","679c2440f7b012f9e0675f88","","null","<img     src='G_8.jpg' height='90'> <img     src='G_5.jpg' height='90'> <img     src='G_2.jpg' height='90'> <img      src='G_4.jpg' height='90'> <img   src='G_1.jpg' height='90'> <img       src='G_7.jpg' height='90'> <img id='swapped' src='G_6.jpg' height='90'> <img id='swapped'  src='G_3.jpg' height='90'>","null","Animation1",""
"","","","","","html-keyboard-response","118","366983","0.0-102.0","57","1","2025-01-31 01:16:00","af8d355d56820e421d246a7037deb6e6","74.80.146.36","Mozilla/5.0 (Windows NT 10.0; Win64; x64) AppleWebKit/537.36 (KHTML, like Gecko) Chrome/131.0.0.0 Safari/537.36","WebKit","Chrome","131.0.0.0","Windows","10.0","https://app.prolific.com/","en-US,en;q=0.9","6747cb2578e508f43be65a76","67949641171f97c04e14fb34","679c2440f7b012f9e0675f88","","null","<img     src='G_8.jpg' height='90'> <img     src='G_5.jpg' height='90'> <img     src='G_2.jpg' height='90'> <img      src='G_4.jpg' height='90'> <img   src='G_1.jpg' height='90'> <img       src='G_7.jpg' height='90'> <img  src='G_6.jpg' height='90'> <img   src='G_3.jpg' height='90'>","null","Animation1",""
"","","","","","html-keyboard-response","119","367493","0.0-103.0","57","1","2025-01-31 01:16:00","af8d355d56820e421d246a7037deb6e6","74.80.146.36","Mozilla/5.0 (Windows NT 10.0; Win64; x64) AppleWebKit/537.36 (KHTML, like Gecko) Chrome/131.0.0.0 Safari/537.36","WebKit","Chrome","131.0.0.0","Windows","10.0","https://app.prolific.com/","en-US,en;q=0.9","6747cb2578e508f43be65a76","67949641171f97c04e14fb34","679c2440f7b012f9e0675f88","","null","<img     src='G_8.jpg' height='90'> <img     src='G_5.jpg' height='90'> <img     src='G_2.jpg' height='90'> <img      src='G_4.jpg' height='90'> <img   src='G_1.jpg' height='90'> <img id='selected'       src='G_7.jpg' height='90'> <img  src='G_6.jpg' height='90'> <img   src='G_3.jpg' height='90'>","null","Animation1",""
"","","","","","html-keyboard-response","120","368004","0.0-104.0","57","1","2025-01-31 01:16:00","af8d355d56820e421d246a7037deb6e6","74.80.146.36","Mozilla/5.0 (Windows NT 10.0; Win64; x64) AppleWebKit/537.36 (KHTML, like Gecko) Chrome/131.0.0.0 Safari/537.36","WebKit","Chrome","131.0.0.0","Windows","10.0","https://app.prolific.com/","en-US,en;q=0.9","6747cb2578e508f43be65a76","67949641171f97c04e14fb34","679c2440f7b012f9e0675f88","","null","<img     src='G_8.jpg' height='90'> <img     src='G_5.jpg' height='90'> <img     src='G_2.jpg' height='90'> <img      src='G_4.jpg' height='90'> <img   src='G_1.jpg' height='90'> <img id='selected'       src='G_7.jpg' height='90'> <img id='selected'  src='G_6.jpg' height='90'> <img   src='G_3.jpg' height='90'>","null","Animation1",""
"","","","","","html-keyboard-response","121","368510","0.0-105.0","57","1","2025-01-31 01:16:00","af8d355d56820e421d246a7037deb6e6","74.80.146.36","Mozilla/5.0 (Windows NT 10.0; Win64; x64) AppleWebKit/537.36 (KHTML, like Gecko) Chrome/131.0.0.0 Safari/537.36","WebKit","Chrome","131.0.0.0","Windows","10.0","https://app.prolific.com/","en-US,en;q=0.9","6747cb2578e508f43be65a76","67949641171f97c04e14fb34","679c2440f7b012f9e0675f88","","null","<img     src='G_8.jpg' height='90'> <img     src='G_5.jpg' height='90'> <img     src='G_2.jpg' height='90'> <img      src='G_4.jpg' height='90'> <img   src='G_1.jpg' height='90'> <img id='selected'       src='G_7.jpg' height='90'> <img id='selected'  src='G_6.jpg' height='90'> <img   src='G_3.jpg' height='90'>","null","Animation1",""
"","","","","","html-keyboard-response","122","368816","0.0-106.0","57","1","2025-01-31 01:16:00","af8d355d56820e421d246a7037deb6e6","74.80.146.36","Mozilla/5.0 (Windows NT 10.0; Win64; x64) AppleWebKit/537.36 (KHTML, like Gecko) Chrome/131.0.0.0 Safari/537.36","WebKit","Chrome","131.0.0.0","Windows","10.0","https://app.prolific.com/","en-US,en;q=0.9","6747cb2578e508f43be65a76","67949641171f97c04e14fb34","679c2440f7b012f9e0675f88","","null","<img     src='G_8.jpg' height='90'> <img     src='G_5.jpg' height='90'> <img     src='G_2.jpg' height='90'> <img      src='G_4.jpg' height='90'> <img   src='G_1.jpg' height='90'> <img        src='G_7.jpg' height='90'> <img   src='G_6.jpg' height='90'> <img   src='G_3.jpg' height='90'>","null","Animation1",""
"","","","","","html-keyboard-response","123","371678","0.0-107.0","57","1","2025-01-31 01:16:00","af8d355d56820e421d246a7037deb6e6","74.80.146.36","Mozilla/5.0 (Windows NT 10.0; Win64; x64) AppleWebKit/537.36 (KHTML, like Gecko) Chrome/131.0.0.0 Safari/537.36","WebKit","Chrome","131.0.0.0","Windows","10.0","https://app.prolific.com/","en-US,en;q=0.9","6747cb2578e508f43be65a76","67949641171f97c04e14fb34","679c2440f7b012f9e0675f88","","2859","[""Did you notice any patterns? <br><br>Press Enter to watch that example again and follow the steps of Omgne Sort.""]","enter","",""
"","","","","","html-button-response","124","372093","0.0-108.0","57","1","2025-01-31 01:16:00","af8d355d56820e421d246a7037deb6e6","74.80.146.36","Mozilla/5.0 (Windows NT 10.0; Win64; x64) AppleWebKit/537.36 (KHTML, like Gecko) Chrome/131.0.0.0 Safari/537.36","WebKit","Chrome","131.0.0.0","Windows","10.0","https://app.prolific.com/","en-US,en;q=0.9","6747cb2578e508f43be65a76","67949641171f97c04e14fb34","679c2440f7b012f9e0675f88","","null","<img id='selected' src='G_4.jpg' height='90'> <img src='G_7.jpg' height='90'> <img src='G_2.jpg' height='90'> <img src='G_8.jpg' height='90'> <img src='G_5.jpg' height='90'> <img src='G_1.jpg' height='90'> <img src='G_3.jpg' height='90'> <img src='G_6.jpg' height='90'>","null","Learning example 1",""
"","","","","","html-button-response","125","372403","0.0-109.0","57","1","2025-01-31 01:16:00","af8d355d56820e421d246a7037deb6e6","74.80.146.36","Mozilla/5.0 (Windows NT 10.0; Win64; x64) AppleWebKit/537.36 (KHTML, like Gecko) Chrome/131.0.0.0 Safari/537.36","WebKit","Chrome","131.0.0.0","Windows","10.0","https://app.prolific.com/","en-US,en;q=0.9","6747cb2578e508f43be65a76","67949641171f97c04e14fb34","679c2440f7b012f9e0675f88","","null","<img id='selected' src='G_4.jpg' height='90'> <img id='selected' src='G_7.jpg' height='90'> <img src='G_2.jpg' height='90'> <img src='G_8.jpg' height='90'> <img src='G_5.jpg' height='90'> <img src='G_1.jpg' height='90'> <img src='G_3.jpg' height='90'> <img src='G_6.jpg' height='90'>","null","Learning example 1",""
"","","","","","html-button-response","126","372710","0.0-110.0","57","1","2025-01-31 01:16:00","af8d355d56820e421d246a7037deb6e6","74.80.146.36","Mozilla/5.0 (Windows NT 10.0; Win64; x64) AppleWebKit/537.36 (KHTML, like Gecko) Chrome/131.0.0.0 Safari/537.36","WebKit","Chrome","131.0.0.0","Windows","10.0","https://app.prolific.com/","en-US,en;q=0.9","6747cb2578e508f43be65a76","67949641171f97c04e14fb34","679c2440f7b012f9e0675f88","","null","<img id='selected' src='G_4.jpg' height='90'> <img id='selected' src='G_7.jpg' height='90'> <img src='G_2.jpg' height='90'> <img src='G_8.jpg' height='90'> <img src='G_5.jpg' height='90'> <img src='G_1.jpg' height='90'> <img src='G_3.jpg' height='90'> <img src='G_6.jpg' height='90'>","null","Learning example 1",""
"","","","","","html-button-response","127","387041","0.0-111.0-0.0-0.0","57","1","2025-01-31 01:16:00","af8d355d56820e421d246a7037deb6e6","74.80.146.36","Mozilla/5.0 (Windows NT 10.0; Win64; x64) AppleWebKit/537.36 (KHTML, like Gecko) Chrome/131.0.0.0 Safari/537.36","WebKit","Chrome","131.0.0.0","Windows","10.0","https://app.prolific.com/","en-US,en;q=0.9","6747cb2578e508f43be65a76","67949641171f97c04e14fb34","679c2440f7b012f9e0675f88","","14327","<img id='selected' src='G_4.jpg' height='90'> <img id='selected' src='G_7.jpg' height='90'> <img src='G_2.jpg' height='90'> <img src='G_8.jpg' height='90'> <img src='G_5.jpg' height='90'> <img src='G_1.jpg' height='90'> <img src='G_3.jpg' height='90'> <img src='G_6.jpg' height='90'>","0","Learning example 1",""
"","","","","","html-button-response","128","388104","0.0-111.1-0.1-0.1","57","1","2025-01-31 01:16:00","af8d355d56820e421d246a7037deb6e6","74.80.146.36","Mozilla/5.0 (Windows NT 10.0; Win64; x64) AppleWebKit/537.36 (KHTML, like Gecko) Chrome/131.0.0.0 Safari/537.36","WebKit","Chrome","131.0.0.0","Windows","10.0","https://app.prolific.com/","en-US,en;q=0.9","6747cb2578e508f43be65a76","67949641171f97c04e14fb34","679c2440f7b012f9e0675f88","","1059","<img id='selected' src='G_4.jpg' height='90'> <img id='selected' src='G_7.jpg' height='90'> <img src='G_2.jpg' height='90'> <img src='G_8.jpg' height='90'> <img src='G_5.jpg' height='90'> <img src='G_1.jpg' height='90'> <img src='G_3.jpg' height='90'> <img src='G_6.jpg' height='90'>","1","Learning example 1",""
"","","","","","html-button-response","129","388309","0.0-112.0","57","1","2025-01-31 01:16:00","af8d355d56820e421d246a7037deb6e6","74.80.146.36","Mozilla/5.0 (Windows NT 10.0; Win64; x64) AppleWebKit/537.36 (KHTML, like Gecko) Chrome/131.0.0.0 Safari/537.36","WebKit","Chrome","131.0.0.0","Windows","10.0","https://app.prolific.com/","en-US,en;q=0.9","6747cb2578e508f43be65a76","67949641171f97c04e14fb34","679c2440f7b012f9e0675f88","","null","<img  src='G_4.jpg' height='90'> <img  src='G_7.jpg' height='90'> <img src='G_2.jpg' height='90'> <img src='G_8.jpg' height='90'> <img src='G_5.jpg' height='90'> <img src='G_1.jpg' height='90'> <img src='G_3.jpg' height='90'> <img src='G_6.jpg' height='90'>","null","Learning example 1",""
"","","","","","html-button-response","130","388722","0.0-113.0","57","1","2025-01-31 01:16:00","af8d355d56820e421d246a7037deb6e6","74.80.146.36","Mozilla/5.0 (Windows NT 10.0; Win64; x64) AppleWebKit/537.36 (KHTML, like Gecko) Chrome/131.0.0.0 Safari/537.36","WebKit","Chrome","131.0.0.0","Windows","10.0","https://app.prolific.com/","en-US,en;q=0.9","6747cb2578e508f43be65a76","67949641171f97c04e14fb34","679c2440f7b012f9e0675f88","","null","<img  src='G_4.jpg' height='90'> <img id='selected'  src='G_7.jpg' height='90'> <img src='G_2.jpg' height='90'> <img src='G_8.jpg' height='90'> <img src='G_5.jpg' height='90'> <img src='G_1.jpg' height='90'> <img src='G_3.jpg' height='90'> <img src='G_6.jpg' height='90'>","null","Learning example 1",""
"","","","","","html-button-response","131","389033","0.0-114.0","57","1","2025-01-31 01:16:00","af8d355d56820e421d246a7037deb6e6","74.80.146.36","Mozilla/5.0 (Windows NT 10.0; Win64; x64) AppleWebKit/537.36 (KHTML, like Gecko) Chrome/131.0.0.0 Safari/537.36","WebKit","Chrome","131.0.0.0","Windows","10.0","https://app.prolific.com/","en-US,en;q=0.9","6747cb2578e508f43be65a76","67949641171f97c04e14fb34","679c2440f7b012f9e0675f88","","null","<img  src='G_4.jpg' height='90'> <img id='selected'  src='G_7.jpg' height='90'> <img id='selected' src='G_2.jpg' height='90'> <img src='G_8.jpg' height='90'> <img src='G_5.jpg' height='90'> <img src='G_1.jpg' height='90'> <img src='G_3.jpg' height='90'> <img src='G_6.jpg' height='90'>","null","Learning example 1",""
"","","","","","html-button-response","132","389343","0.0-115.0","57","1","2025-01-31 01:16:00","af8d355d56820e421d246a7037deb6e6","74.80.146.36","Mozilla/5.0 (Windows NT 10.0; Win64; x64) AppleWebKit/537.36 (KHTML, like Gecko) Chrome/131.0.0.0 Safari/537.36","WebKit","Chrome","131.0.0.0","Windows","10.0","https://app.prolific.com/","en-US,en;q=0.9","6747cb2578e508f43be65a76","67949641171f97c04e14fb34","679c2440f7b012f9e0675f88","","null","<img  src='G_4.jpg' height='90'> <img id='swapped' src='G_2.jpg' height='90'> <img id='swapped'  src='G_7.jpg' height='90'> <img src='G_8.jpg' height='90'> <img src='G_5.jpg' height='90'> <img src='G_1.jpg' height='90'> <img src='G_3.jpg' height='90'> <img src='G_6.jpg' height='90'>","null","Learning example 1",""
"","","","","","html-button-response","133","399052","0.0-116.0-0.0-0.0","57","1","2025-01-31 01:16:00","af8d355d56820e421d246a7037deb6e6","74.80.146.36","Mozilla/5.0 (Windows NT 10.0; Win64; x64) AppleWebKit/537.36 (KHTML, like Gecko) Chrome/131.0.0.0 Safari/537.36","WebKit","Chrome","131.0.0.0","Windows","10.0","https://app.prolific.com/","en-US,en;q=0.9","6747cb2578e508f43be65a76","67949641171f97c04e14fb34","679c2440f7b012f9e0675f88","","9705","<img  src='G_4.jpg' height='90'> <img id='swapped' src='G_2.jpg' height='90'> <img id='swapped'  src='G_7.jpg' height='90'> <img src='G_8.jpg' height='90'> <img src='G_5.jpg' height='90'> <img src='G_1.jpg' height='90'> <img src='G_3.jpg' height='90'> <img src='G_6.jpg' height='90'>","1","Learning example 1",""
"","","","","","html-button-response","134","400622","0.0-116.1-0.1-0.1","57","1","2025-01-31 01:16:00","af8d355d56820e421d246a7037deb6e6","74.80.146.36","Mozilla/5.0 (Windows NT 10.0; Win64; x64) AppleWebKit/537.36 (KHTML, like Gecko) Chrome/131.0.0.0 Safari/537.36","WebKit","Chrome","131.0.0.0","Windows","10.0","https://app.prolific.com/","en-US,en;q=0.9","6747cb2578e508f43be65a76","67949641171f97c04e14fb34","679c2440f7b012f9e0675f88","","1566","<img  src='G_4.jpg' height='90'> <img id='swapped' src='G_2.jpg' height='90'> <img id='swapped'  src='G_7.jpg' height='90'> <img src='G_8.jpg' height='90'> <img src='G_5.jpg' height='90'> <img src='G_1.jpg' height='90'> <img src='G_3.jpg' height='90'> <img src='G_6.jpg' height='90'>","2","Learning example 1",""
"","","","","","html-button-response","135","400825","0.0-117.0","57","1","2025-01-31 01:16:00","af8d355d56820e421d246a7037deb6e6","74.80.146.36","Mozilla/5.0 (Windows NT 10.0; Win64; x64) AppleWebKit/537.36 (KHTML, like Gecko) Chrome/131.0.0.0 Safari/537.36","WebKit","Chrome","131.0.0.0","Windows","10.0","https://app.prolific.com/","en-US,en;q=0.9","6747cb2578e508f43be65a76","67949641171f97c04e14fb34","679c2440f7b012f9e0675f88","","null","<img  src='G_4.jpg' height='90'> <img  src='G_2.jpg' height='90'> <img   src='G_7.jpg' height='90'> <img src='G_8.jpg' height='90'> <img src='G_5.jpg' height='90'> <img src='G_1.jpg' height='90'> <img src='G_3.jpg' height='90'> <img src='G_6.jpg' height='90'>","null","Learning example 1",""
"","","","","","html-button-response","136","401229","0.0-118.0","57","1","2025-01-31 01:16:00","af8d355d56820e421d246a7037deb6e6","74.80.146.36","Mozilla/5.0 (Windows NT 10.0; Win64; x64) AppleWebKit/537.36 (KHTML, like Gecko) Chrome/131.0.0.0 Safari/537.36","WebKit","Chrome","131.0.0.0","Windows","10.0","https://app.prolific.com/","en-US,en;q=0.9","6747cb2578e508f43be65a76","67949641171f97c04e14fb34","679c2440f7b012f9e0675f88","","null","<img id='selected'  src='G_4.jpg' height='90'> <img  src='G_2.jpg' height='90'> <img   src='G_7.jpg' height='90'> <img src='G_8.jpg' height='90'> <img src='G_5.jpg' height='90'> <img src='G_1.jpg' height='90'> <img src='G_3.jpg' height='90'> <img src='G_6.jpg' height='90'>","null","Learning example 1",""
"","","","","","html-button-response","137","401538","0.0-119.0","57","1","2025-01-31 01:16:00","af8d355d56820e421d246a7037deb6e6","74.80.146.36","Mozilla/5.0 (Windows NT 10.0; Win64; x64) AppleWebKit/537.36 (KHTML, like Gecko) Chrome/131.0.0.0 Safari/537.36","WebKit","Chrome","131.0.0.0","Windows","10.0","https://app.prolific.com/","en-US,en;q=0.9","6747cb2578e508f43be65a76","67949641171f97c04e14fb34","679c2440f7b012f9e0675f88","","null","<img id='selected'  src='G_4.jpg' height='90'> <img id='selected'  src='G_2.jpg' height='90'> <img   src='G_7.jpg' height='90'> <img src='G_8.jpg' height='90'> <img src='G_5.jpg' height='90'> <img src='G_1.jpg' height='90'> <img src='G_3.jpg' height='90'> <img src='G_6.jpg' height='90'>","null","Learning example 1",""
"","","","","","html-button-response","138","401843","0.0-120.0","57","1","2025-01-31 01:16:00","af8d355d56820e421d246a7037deb6e6","74.80.146.36","Mozilla/5.0 (Windows NT 10.0; Win64; x64) AppleWebKit/537.36 (KHTML, like Gecko) Chrome/131.0.0.0 Safari/537.36","WebKit","Chrome","131.0.0.0","Windows","10.0","https://app.prolific.com/","en-US,en;q=0.9","6747cb2578e508f43be65a76","67949641171f97c04e14fb34","679c2440f7b012f9e0675f88","","null","<img id='swapped'  src='G_2.jpg' height='90'> <img id='swapped'  src='G_4.jpg' height='90'> <img   src='G_7.jpg' height='90'> <img src='G_8.jpg' height='90'> <img src='G_5.jpg' height='90'> <img src='G_1.jpg' height='90'> <img src='G_3.jpg' height='90'> <img src='G_6.jpg' height='90'>","null","Learning example 1",""
"","","","","","html-button-response","139","412204","0.0-121.0-0.0-0.0","57","1","2025-01-31 01:16:00","af8d355d56820e421d246a7037deb6e6","74.80.146.36","Mozilla/5.0 (Windows NT 10.0; Win64; x64) AppleWebKit/537.36 (KHTML, like Gecko) Chrome/131.0.0.0 Safari/537.36","WebKit","Chrome","131.0.0.0","Windows","10.0","https://app.prolific.com/","en-US,en;q=0.9","6747cb2578e508f43be65a76","67949641171f97c04e14fb34","679c2440f7b012f9e0675f88","","10357","<img id='swapped'  src='G_2.jpg' height='90'> <img id='swapped'  src='G_4.jpg' height='90'> <img   src='G_7.jpg' height='90'> <img src='G_8.jpg' height='90'> <img src='G_5.jpg' height='90'> <img src='G_1.jpg' height='90'> <img src='G_3.jpg' height='90'> <img src='G_6.jpg' height='90'>","1","Learning example 1",""
"","","","","","html-button-response","140","413097","0.0-121.1-0.1-0.1","57","1","2025-01-31 01:16:00","af8d355d56820e421d246a7037deb6e6","74.80.146.36","Mozilla/5.0 (Windows NT 10.0; Win64; x64) AppleWebKit/537.36 (KHTML, like Gecko) Chrome/131.0.0.0 Safari/537.36","WebKit","Chrome","131.0.0.0","Windows","10.0","https://app.prolific.com/","en-US,en;q=0.9","6747cb2578e508f43be65a76","67949641171f97c04e14fb34","679c2440f7b012f9e0675f88","","890","<img id='swapped'  src='G_2.jpg' height='90'> <img id='swapped'  src='G_4.jpg' height='90'> <img   src='G_7.jpg' height='90'> <img src='G_8.jpg' height='90'> <img src='G_5.jpg' height='90'> <img src='G_1.jpg' height='90'> <img src='G_3.jpg' height='90'> <img src='G_6.jpg' height='90'>","0","Learning example 1",""
"","","","","","html-button-response","141","413306","0.0-122.0","57","1","2025-01-31 01:16:00","af8d355d56820e421d246a7037deb6e6","74.80.146.36","Mozilla/5.0 (Windows NT 10.0; Win64; x64) AppleWebKit/537.36 (KHTML, like Gecko) Chrome/131.0.0.0 Safari/537.36","WebKit","Chrome","131.0.0.0","Windows","10.0","https://app.prolific.com/","en-US,en;q=0.9","6747cb2578e508f43be65a76","67949641171f97c04e14fb34","679c2440f7b012f9e0675f88","","null","<img   src='G_2.jpg' height='90'> <img   src='G_4.jpg' height='90'> <img   src='G_7.jpg' height='90'> <img src='G_8.jpg' height='90'> <img src='G_5.jpg' height='90'> <img src='G_1.jpg' height='90'> <img src='G_3.jpg' height='90'> <img src='G_6.jpg' height='90'>","null","Learning example 1",""
"","","","","","html-button-response","142","413717","0.0-123.0","57","1","2025-01-31 01:16:00","af8d355d56820e421d246a7037deb6e6","74.80.146.36","Mozilla/5.0 (Windows NT 10.0; Win64; x64) AppleWebKit/537.36 (KHTML, like Gecko) Chrome/131.0.0.0 Safari/537.36","WebKit","Chrome","131.0.0.0","Windows","10.0","https://app.prolific.com/","en-US,en;q=0.9","6747cb2578e508f43be65a76","67949641171f97c04e14fb34","679c2440f7b012f9e0675f88","","null","<img   src='G_2.jpg' height='90'> <img   src='G_4.jpg' height='90'> <img id='selected'   src='G_7.jpg' height='90'> <img src='G_8.jpg' height='90'> <img src='G_5.jpg' height='90'> <img src='G_1.jpg' height='90'> <img src='G_3.jpg' height='90'> <img src='G_6.jpg' height='90'>","null","Learning example 1",""
"","","","","","html-button-response","143","414030","0.0-124.0","57","1","2025-01-31 01:16:00","af8d355d56820e421d246a7037deb6e6","74.80.146.36","Mozilla/5.0 (Windows NT 10.0; Win64; x64) AppleWebKit/537.36 (KHTML, like Gecko) Chrome/131.0.0.0 Safari/537.36","WebKit","Chrome","131.0.0.0","Windows","10.0","https://app.prolific.com/","en-US,en;q=0.9","6747cb2578e508f43be65a76","67949641171f97c04e14fb34","679c2440f7b012f9e0675f88","","null","<img   src='G_2.jpg' height='90'> <img   src='G_4.jpg' height='90'> <img id='selected'   src='G_7.jpg' height='90'> <img id='selected' src='G_8.jpg' height='90'> <img src='G_5.jpg' height='90'> <img src='G_1.jpg' height='90'> <img src='G_3.jpg' height='90'> <img src='G_6.jpg' height='90'>","null","Learning example 1",""
