"success","timeout","failed_images","failed_audio","failed_video","trial_type","trial_index","time_elapsed","internal_node_id","run_id","condition","recorded_at","source_code_version","ip","user_agent","device","browser","browser_version","platform","platform_version","referer","accept_language","PROLIFIC_PID","STUDY_ID","SESSION_ID","view_history","rt","stimulus","response","phase","question_order"
"true","false","[]","[]","[]","preload","0","206","0.0-0.0","59","1","2025-01-31 01:17:24","af8d355d56820e421d246a7037deb6e6","4.31.181.234","Mozilla/5.0 (Windows NT 10.0; Win64; x64) AppleWebKit/537.36 (KHTML, like Gecko) Chrome/132.0.0.0 Safari/537.36 Edg/132.0.0.0","WebKit","Edge","132.0.0.0","Windows","10.0","https://app.prolific.com/","en-US,en;q=0.9","655e3d32d5562c5520717cfc","67949641171f97c04e14fb34","679c2436e969c54bb7ecc907","","","","","",""
"","","","","","instructions","1","21324","0.0-1.0","59","1","2025-01-31 01:17:24","af8d355d56820e421d246a7037deb6e6","4.31.181.234","Mozilla/5.0 (Windows NT 10.0; Win64; x64) AppleWebKit/537.36 (KHTML, like Gecko) Chrome/132.0.0.0 Safari/537.36 Edg/132.0.0.0","WebKit","Edge","132.0.0.0","Windows","10.0","https://app.prolific.com/","en-US,en;q=0.9","655e3d32d5562c5520717cfc","67949641171f97c04e14fb34","679c2436e969c54bb7ecc907","[{""page_index"":0,""viewing_time"":21115}]","21115","","","",""
"","","","","","html-keyboard-response","2","21827","0.0-2.0","59","1","2025-01-31 01:17:24","af8d355d56820e421d246a7037deb6e6","4.31.181.234","Mozilla/5.0 (Windows NT 10.0; Win64; x64) AppleWebKit/537.36 (KHTML, like Gecko) Chrome/132.0.0.0 Safari/537.36 Edg/132.0.0.0","WebKit","Edge","132.0.0.0","Windows","10.0","https://app.prolific.com/","en-US,en;q=0.9","655e3d32d5562c5520717cfc","67949641171f97c04e14fb34","679c2436e969c54bb7ecc907","","null","<p> + <p/>","null","",""
"","","","","","instructions","3","107189","0.0-3.0","59","1","2025-01-31 01:17:24","af8d355d56820e421d246a7037deb6e6","4.31.181.234","Mozilla/5.0 (Windows NT 10.0; Win64; x64) AppleWebKit/537.36 (KHTML, like Gecko) Chrome/132.0.0.0 Safari/537.36 Edg/132.0.0.0","WebKit","Edge","132.0.0.0","Windows","10.0","https://app.prolific.com/","en-US,en;q=0.9","655e3d32d5562c5520717cfc","67949641171f97c04e14fb34","679c2436e969c54bb7ecc907","[{""page_index"":0,""viewing_time"":6096},{""page_index"":1,""viewing_time"":31261},{""page_index"":2,""viewing_time"":14779},{""page_index"":3,""viewing_time"":10299},{""page_index"":4,""viewing_time"":22927}]","85361","","","",""
"","","","","","html-button-response","4","125612","0.0-4.0-0.0-0.0","59","1","2025-01-31 01:17:24","af8d355d56820e421d246a7037deb6e6","4.31.181.234","Mozilla/5.0 (Windows NT 10.0; Win64; x64) AppleWebKit/537.36 (KHTML, like Gecko) Chrome/132.0.0.0 Safari/537.36 Edg/132.0.0.0","WebKit","Edge","132.0.0.0","Windows","10.0","https://app.prolific.com/","en-US,en;q=0.9","655e3d32d5562c5520717cfc","67949641171f97c04e14fb34","679c2436e969c54bb7ecc907","","18420","","3","Intro Trial",""
"","","","","","html-button-response","5","127139","0.0-4.1-0.1-0.1","59","1","2025-01-31 01:17:24","af8d355d56820e421d246a7037deb6e6","4.31.181.234","Mozilla/5.0 (Windows NT 10.0; Win64; x64) AppleWebKit/537.36 (KHTML, like Gecko) Chrome/132.0.0.0 Safari/537.36 Edg/132.0.0.0","WebKit","Edge","132.0.0.0","Windows","10.0","https://app.prolific.com/","en-US,en;q=0.9","655e3d32d5562c5520717cfc","67949641171f97c04e14fb34","679c2436e969c54bb7ecc907","","1526","","0","Intro Trial",""
"","","","","","html-button-response","6","131299","0.0-4.2-0.2-0.2","59","1","2025-01-31 01:17:24","af8d355d56820e421d246a7037deb6e6","4.31.181.234","Mozilla/5.0 (Windows NT 10.0; Win64; x64) AppleWebKit/537.36 (KHTML, like Gecko) Chrome/132.0.0.0 Safari/537.36 Edg/132.0.0.0","WebKit","Edge","132.0.0.0","Windows","10.0","https://app.prolific.com/","en-US,en;q=0.9","655e3d32d5562c5520717cfc","67949641171f97c04e14fb34","679c2436e969c54bb7ecc907","","4159","","3","Intro Trial",""
"","","","","","html-button-response","7","132259","0.0-4.3-0.3-0.3","59","1","2025-01-31 01:17:24","af8d355d56820e421d246a7037deb6e6","4.31.181.234","Mozilla/5.0 (Windows NT 10.0; Win64; x64) AppleWebKit/537.36 (KHTML, like Gecko) Chrome/132.0.0.0 Safari/537.36 Edg/132.0.0.0","WebKit","Edge","132.0.0.0","Windows","10.0","https://app.prolific.com/","en-US,en;q=0.9","655e3d32d5562c5520717cfc","67949641171f97c04e14fb34","679c2436e969c54bb7ecc907","","959","","2","Intro Trial",""
"","","","","","html-button-response","8","133499","0.0-4.4-0.4-0.4","59","1","2025-01-31 01:17:24","af8d355d56820e421d246a7037deb6e6","4.31.181.234","Mozilla/5.0 (Windows NT 10.0; Win64; x64) AppleWebKit/537.36 (KHTML, like Gecko) Chrome/132.0.0.0 Safari/537.36 Edg/132.0.0.0","WebKit","Edge","132.0.0.0","Windows","10.0","https://app.prolific.com/","en-US,en;q=0.9","655e3d32d5562c5520717cfc","67949641171f97c04e14fb34","679c2436e969c54bb7ecc907","","1239","","2","Intro Trial",""
"","","","","","html-button-response","9","133683","0.0-4.5-0.5-0.5","59","1","2025-01-31 01:17:24","af8d355d56820e421d246a7037deb6e6","4.31.181.234","Mozilla/5.0 (Windows NT 10.0; Win64; x64) AppleWebKit/537.36 (KHTML, like Gecko) Chrome/132.0.0.0 Safari/537.36 Edg/132.0.0.0","WebKit","Edge","132.0.0.0","Windows","10.0","https://app.prolific.com/","en-US,en;q=0.9","655e3d32d5562c5520717cfc","67949641171f97c04e14fb34","679c2436e969c54bb7ecc907","","183","","2","Intro Trial",""
"","","","","","html-button-response","10","134387","0.0-4.6-0.6-0.6","59","1","2025-01-31 01:17:24","af8d355d56820e421d246a7037deb6e6","4.31.181.234","Mozilla/5.0 (Windows NT 10.0; Win64; x64) AppleWebKit/537.36 (KHTML, like Gecko) Chrome/132.0.0.0 Safari/537.36 Edg/132.0.0.0","WebKit","Edge","132.0.0.0","Windows","10.0","https://app.prolific.com/","en-US,en;q=0.9","655e3d32d5562c5520717cfc","67949641171f97c04e14fb34","679c2436e969c54bb7ecc907","","703","","3","Intro Trial",""
"","","","","","html-button-response","11","136499","0.0-4.7-0.7-0.7","59","1","2025-01-31 01:17:24","af8d355d56820e421d246a7037deb6e6","4.31.181.234","Mozilla/5.0 (Windows NT 10.0; Win64; x64) AppleWebKit/537.36 (KHTML, like Gecko) Chrome/132.0.0.0 Safari/537.36 Edg/132.0.0.0","WebKit","Edge","132.0.0.0","Windows","10.0","https://app.prolific.com/","en-US,en;q=0.9","655e3d32d5562c5520717cfc","67949641171f97c04e14fb34","679c2436e969c54bb7ecc907","","2111","","0","Intro Trial",""
"","","","","","html-button-response","12","138107","0.0-4.8-0.8-0.8","59","1","2025-01-31 01:17:24","af8d355d56820e421d246a7037deb6e6","4.31.181.234","Mozilla/5.0 (Windows NT 10.0; Win64; x64) AppleWebKit/537.36 (KHTML, like Gecko) Chrome/132.0.0.0 Safari/537.36 Edg/132.0.0.0","WebKit","Edge","132.0.0.0","Windows","10.0","https://app.prolific.com/","en-US,en;q=0.9","655e3d32d5562c5520717cfc","67949641171f97c04e14fb34","679c2436e969c54bb7ecc907","","1607","","3","Intro Trial",""
"","","","","","html-button-response","13","139675","0.0-4.9-0.9-0.9","59","1","2025-01-31 01:17:24","af8d355d56820e421d246a7037deb6e6","4.31.181.234","Mozilla/5.0 (Windows NT 10.0; Win64; x64) AppleWebKit/537.36 (KHTML, like Gecko) Chrome/132.0.0.0 Safari/537.36 Edg/132.0.0.0","WebKit","Edge","132.0.0.0","Windows","10.0","https://app.prolific.com/","en-US,en;q=0.9","655e3d32d5562c5520717cfc","67949641171f97c04e14fb34","679c2436e969c54bb7ecc907","","1567","","0","Intro Trial",""
"","","","","","html-button-response","14","141139","0.0-4.10-0.10-0.10","59","1","2025-01-31 01:17:24","af8d355d56820e421d246a7037deb6e6","4.31.181.234","Mozilla/5.0 (Windows NT 10.0; Win64; x64) AppleWebKit/537.36 (KHTML, like Gecko) Chrome/132.0.0.0 Safari/537.36 Edg/132.0.0.0","WebKit","Edge","132.0.0.0","Windows","10.0","https://app.prolific.com/","en-US,en;q=0.9","655e3d32d5562c5520717cfc","67949641171f97c04e14fb34","679c2436e969c54bb7ecc907","","1463","","5","Intro Trial",""
"","","","","","html-keyboard-response","15","162462","0.0-5.0","59","1","2025-01-31 01:17:24","af8d355d56820e421d246a7037deb6e6","4.31.181.234","Mozilla/5.0 (Windows NT 10.0; Win64; x64) AppleWebKit/537.36 (KHTML, like Gecko) Chrome/132.0.0.0 Safari/537.36 Edg/132.0.0.0","WebKit","Edge","132.0.0.0","Windows","10.0","https://app.prolific.com/","en-US,en;q=0.9","655e3d32d5562c5520717cfc","67949641171f97c04e14fb34","679c2436e969c54bb7ecc907","","21321","[""You sorted incorrectly by using the balance 4 times. <br><br> <img src='G_1.jpg' height='90'><img src='G_2.jpg' height='90'><img src='G_3.jpg' height='90'><img src='G_4.jpg' height='90'><img src='G_5.jpg' height='90'><br><br> Your final order is 4,2,3,5,1<br><br><br>Omgne Sort in this game will allow you to sort correctly by using the balance 8 times. Press Enter to learn it!""]","enter","",""
"","","","","","html-keyboard-response","16","225704","0.0-6.0","59","1","2025-01-31 01:17:24","af8d355d56820e421d246a7037deb6e6","4.31.181.234","Mozilla/5.0 (Windows NT 10.0; Win64; x64) AppleWebKit/537.36 (KHTML, like Gecko) Chrome/132.0.0.0 Safari/537.36 Edg/132.0.0.0","WebKit","Edge","132.0.0.0","Windows","10.0","https://app.prolific.com/","en-US,en;q=0.9","655e3d32d5562c5520717cfc","67949641171f97c04e14fb34","679c2436e969c54bb7ecc907","","63242","<p>Welcome to the learning phase! <br><br> You will learn by six examples. The following learning trials will not be used to calculate your performance. <br><br> Press Enter to continue.<p/>","enter","",""
"","","","","","html-keyboard-response","17","234404","0.0-7.0","59","1","2025-01-31 01:17:24","af8d355d56820e421d246a7037deb6e6","4.31.181.234","Mozilla/5.0 (Windows NT 10.0; Win64; x64) AppleWebKit/537.36 (KHTML, like Gecko) Chrome/132.0.0.0 Safari/537.36 Edg/132.0.0.0","WebKit","Edge","132.0.0.0","Windows","10.0","https://app.prolific.com/","en-US,en;q=0.9","655e3d32d5562c5520717cfc","67949641171f97c04e14fb34","679c2436e969c54bb7ecc907","","8699","[""Example 1<br><br>You will watch Omnge Sort in action. Try to identify any patterns in the comparisons made by this method. <br><br>Press Enter to continue.""]","enter","",""
"","","","","","html-keyboard-response","18","234910","0.0-8.0","59","1","2025-01-31 01:17:24","af8d355d56820e421d246a7037deb6e6","4.31.181.234","Mozilla/5.0 (Windows NT 10.0; Win64; x64) AppleWebKit/537.36 (KHTML, like Gecko) Chrome/132.0.0.0 Safari/537.36 Edg/132.0.0.0","WebKit","Edge","132.0.0.0","Windows","10.0","https://app.prolific.com/","en-US,en;q=0.9","655e3d32d5562c5520717cfc","67949641171f97c04e14fb34","679c2436e969c54bb7ecc907","","null","<img id='selected' src='G_3.jpg' height='90'> <img src='G_7.jpg' height='90'> <img src='G_9.jpg' height='90'> <img src='G_1.jpg' height='90'> <img src='G_5.jpg' height='90'>","null","Animation0",""
"","","","","","html-keyboard-response","19","235418","0.0-9.0","59","1","2025-01-31 01:17:24","af8d355d56820e421d246a7037deb6e6","4.31.181.234","Mozilla/5.0 (Windows NT 10.0; Win64; x64) AppleWebKit/537.36 (KHTML, like Gecko) Chrome/132.0.0.0 Safari/537.36 Edg/132.0.0.0","WebKit","Edge","132.0.0.0","Windows","10.0","https://app.prolific.com/","en-US,en;q=0.9","655e3d32d5562c5520717cfc","67949641171f97c04e14fb34","679c2436e969c54bb7ecc907","","null","<img id='selected' src='G_3.jpg' height='90'> <img id='selected' src='G_7.jpg' height='90'> <img src='G_9.jpg' height='90'> <img src='G_1.jpg' height='90'> <img src='G_5.jpg' height='90'>","null","Animation0",""
"","","","","","html-keyboard-response","20","235924","0.0-10.0","59","1","2025-01-31 01:17:24","af8d355d56820e421d246a7037deb6e6","4.31.181.234","Mozilla/5.0 (Windows NT 10.0; Win64; x64) AppleWebKit/537.36 (KHTML, like Gecko) Chrome/132.0.0.0 Safari/537.36 Edg/132.0.0.0","WebKit","Edge","132.0.0.0","Windows","10.0","https://app.prolific.com/","en-US,en;q=0.9","655e3d32d5562c5520717cfc","67949641171f97c04e14fb34","679c2436e969c54bb7ecc907","","null","<img id='swapped' src='G_7.jpg' height='90'> <img id='swapped' src='G_3.jpg' height='90'> <img src='G_9.jpg' height='90'> <img src='G_1.jpg' height='90'> <img src='G_5.jpg' height='90'>","null","Animation0",""
"","","","","","html-keyboard-response","21","236237","0.0-11.0","59","1","2025-01-31 01:17:24","af8d355d56820e421d246a7037deb6e6","4.31.181.234","Mozilla/5.0 (Windows NT 10.0; Win64; x64) AppleWebKit/537.36 (KHTML, like Gecko) Chrome/132.0.0.0 Safari/537.36 Edg/132.0.0.0","WebKit","Edge","132.0.0.0","Windows","10.0","https://app.prolific.com/","en-US,en;q=0.9","655e3d32d5562c5520717cfc","67949641171f97c04e14fb34","679c2436e969c54bb7ecc907","","null","<img  src='G_7.jpg' height='90'> <img  src='G_3.jpg' height='90'> <img src='G_9.jpg' height='90'> <img src='G_1.jpg' height='90'> <img src='G_5.jpg' height='90'>","null","Animation0",""
"","","","","","html-keyboard-response","22","236749","0.0-12.0","59","1","2025-01-31 01:17:24","af8d355d56820e421d246a7037deb6e6","4.31.181.234","Mozilla/5.0 (Windows NT 10.0; Win64; x64) AppleWebKit/537.36 (KHTML, like Gecko) Chrome/132.0.0.0 Safari/537.36 Edg/132.0.0.0","WebKit","Edge","132.0.0.0","Windows","10.0","https://app.prolific.com/","en-US,en;q=0.9","655e3d32d5562c5520717cfc","67949641171f97c04e14fb34","679c2436e969c54bb7ecc907","","null","<img  src='G_7.jpg' height='90'> <img id='selected'  src='G_3.jpg' height='90'> <img src='G_9.jpg' height='90'> <img src='G_1.jpg' height='90'> <img src='G_5.jpg' height='90'>","null","Animation0",""
"","","","","","html-keyboard-response","23","237266","0.0-13.0","59","1","2025-01-31 01:17:24","af8d355d56820e421d246a7037deb6e6","4.31.181.234","Mozilla/5.0 (Windows NT 10.0; Win64; x64) AppleWebKit/537.36 (KHTML, like Gecko) Chrome/132.0.0.0 Safari/537.36 Edg/132.0.0.0","WebKit","Edge","132.0.0.0","Windows","10.0","https://app.prolific.com/","en-US,en;q=0.9","655e3d32d5562c5520717cfc","67949641171f97c04e14fb34","679c2436e969c54bb7ecc907","","null","<img  src='G_7.jpg' height='90'> <img id='selected'  src='G_3.jpg' height='90'> <img id='selected' src='G_9.jpg' height='90'> <img src='G_1.jpg' height='90'> <img src='G_5.jpg' height='90'>","null","Animation0",""
"","","","","","html-keyboard-response","24","237768","0.0-14.0","59","1","2025-01-31 01:17:24","af8d355d56820e421d246a7037deb6e6","4.31.181.234","Mozilla/5.0 (Windows NT 10.0; Win64; x64) AppleWebKit/537.36 (KHTML, like Gecko) Chrome/132.0.0.0 Safari/537.36 Edg/132.0.0.0","WebKit","Edge","132.0.0.0","Windows","10.0","https://app.prolific.com/","en-US,en;q=0.9","655e3d32d5562c5520717cfc","67949641171f97c04e14fb34","679c2436e969c54bb7ecc907","","null","<img  src='G_7.jpg' height='90'> <img id='selected'  src='G_3.jpg' height='90'> <img id='selected' src='G_9.jpg' height='90'> <img src='G_1.jpg' height='90'> <img src='G_5.jpg' height='90'>","null","Animation0",""
"","","","","","html-keyboard-response","25","238081","0.0-15.0","59","1","2025-01-31 01:17:24","af8d355d56820e421d246a7037deb6e6","4.31.181.234","Mozilla/5.0 (Windows NT 10.0; Win64; x64) AppleWebKit/537.36 (KHTML, like Gecko) Chrome/132.0.0.0 Safari/537.36 Edg/132.0.0.0","WebKit","Edge","132.0.0.0","Windows","10.0","https://app.prolific.com/","en-US,en;q=0.9","655e3d32d5562c5520717cfc","67949641171f97c04e14fb34","679c2436e969c54bb7ecc907","","null","<img  src='G_7.jpg' height='90'> <img   src='G_3.jpg' height='90'> <img  src='G_9.jpg' height='90'> <img src='G_1.jpg' height='90'> <img src='G_5.jpg' height='90'>","null","Animation0",""
"","","","","","html-keyboard-response","26","238586","0.0-16.0","59","1","2025-01-31 01:17:24","af8d355d56820e421d246a7037deb6e6","4.31.181.234","Mozilla/5.0 (Windows NT 10.0; Win64; x64) AppleWebKit/537.36 (KHTML, like Gecko) Chrome/132.0.0.0 Safari/537.36 Edg/132.0.0.0","WebKit","Edge","132.0.0.0","Windows","10.0","https://app.prolific.com/","en-US,en;q=0.9","655e3d32d5562c5520717cfc","67949641171f97c04e14fb34","679c2436e969c54bb7ecc907","","null","<img  src='G_7.jpg' height='90'> <img   src='G_3.jpg' height='90'> <img id='selected'  src='G_9.jpg' height='90'> <img src='G_1.jpg' height='90'> <img src='G_5.jpg' height='90'>","null","Animation0",""
"","","","","","html-keyboard-response","27","239101","0.0-17.0","59","1","2025-01-31 01:17:24","af8d355d56820e421d246a7037deb6e6","4.31.181.234","Mozilla/5.0 (Windows NT 10.0; Win64; x64) AppleWebKit/537.36 (KHTML, like Gecko) Chrome/132.0.0.0 Safari/537.36 Edg/132.0.0.0","WebKit","Edge","132.0.0.0","Windows","10.0","https://app.prolific.com/","en-US,en;q=0.9","655e3d32d5562c5520717cfc","67949641171f97c04e14fb34","679c2436e969c54bb7ecc907","","null","<img  src='G_7.jpg' height='90'> <img   src='G_3.jpg' height='90'> <img id='selected'  src='G_9.jpg' height='90'> <img id='selected' src='G_1.jpg' height='90'> <img src='G_5.jpg' height='90'>","null","Animation0",""
"","","","","","html-keyboard-response","28","239617","0.0-18.0","59","1","2025-01-31 01:17:24","af8d355d56820e421d246a7037deb6e6","4.31.181.234","Mozilla/5.0 (Windows NT 10.0; Win64; x64) AppleWebKit/537.36 (KHTML, like Gecko) Chrome/132.0.0.0 Safari/537.36 Edg/132.0.0.0","WebKit","Edge","132.0.0.0","Windows","10.0","https://app.prolific.com/","en-US,en;q=0.9","655e3d32d5562c5520717cfc","67949641171f97c04e14fb34","679c2436e969c54bb7ecc907","","null","<img  src='G_7.jpg' height='90'> <img   src='G_3.jpg' height='90'> <img id='selected'  src='G_9.jpg' height='90'> <img id='selected' src='G_1.jpg' height='90'> <img src='G_5.jpg' height='90'>","null","Animation0",""
"","","","","","html-keyboard-response","29","239931","0.0-19.0","59","1","2025-01-31 01:17:24","af8d355d56820e421d246a7037deb6e6","4.31.181.234","Mozilla/5.0 (Windows NT 10.0; Win64; x64) AppleWebKit/537.36 (KHTML, like Gecko) Chrome/132.0.0.0 Safari/537.36 Edg/132.0.0.0","WebKit","Edge","132.0.0.0","Windows","10.0","https://app.prolific.com/","en-US,en;q=0.9","655e3d32d5562c5520717cfc","67949641171f97c04e14fb34","679c2436e969c54bb7ecc907","","null","<img  src='G_7.jpg' height='90'> <img   src='G_3.jpg' height='90'> <img   src='G_9.jpg' height='90'> <img  src='G_1.jpg' height='90'> <img src='G_5.jpg' height='90'>","null","Animation0",""
"","","","","","html-keyboard-response","30","240435","0.0-20.0","59","1","2025-01-31 01:17:24","af8d355d56820e421d246a7037deb6e6","4.31.181.234","Mozilla/5.0 (Windows NT 10.0; Win64; x64) AppleWebKit/537.36 (KHTML, like Gecko) Chrome/132.0.0.0 Safari/537.36 Edg/132.0.0.0","WebKit","Edge","132.0.0.0","Windows","10.0","https://app.prolific.com/","en-US,en;q=0.9","655e3d32d5562c5520717cfc","67949641171f97c04e14fb34","679c2436e969c54bb7ecc907","","null","<img  src='G_7.jpg' height='90'> <img   src='G_3.jpg' height='90'> <img   src='G_9.jpg' height='90'> <img id='selected'  src='G_1.jpg' height='90'> <img src='G_5.jpg' height='90'>","null","Animation0",""
"","","","","","html-keyboard-response","31","240950","0.0-21.0","59","1","2025-01-31 01:17:24","af8d355d56820e421d246a7037deb6e6","4.31.181.234","Mozilla/5.0 (Windows NT 10.0; Win64; x64) AppleWebKit/537.36 (KHTML, like Gecko) Chrome/132.0.0.0 Safari/537.36 Edg/132.0.0.0","WebKit","Edge","132.0.0.0","Windows","10.0","https://app.prolific.com/","en-US,en;q=0.9","655e3d32d5562c5520717cfc","67949641171f97c04e14fb34","679c2436e969c54bb7ecc907","","null","<img  src='G_7.jpg' height='90'> <img   src='G_3.jpg' height='90'> <img   src='G_9.jpg' height='90'> <img id='selected'  src='G_1.jpg' height='90'> <img id='selected' src='G_5.jpg' height='90'>","null","Animation0",""
"","","","","","html-keyboard-response","32","241467","0.0-22.0","59","1","2025-01-31 01:17:24","af8d355d56820e421d246a7037deb6e6","4.31.181.234","Mozilla/5.0 (Windows NT 10.0; Win64; x64) AppleWebKit/537.36 (KHTML, like Gecko) Chrome/132.0.0.0 Safari/537.36 Edg/132.0.0.0","WebKit","Edge","132.0.0.0","Windows","10.0","https://app.prolific.com/","en-US,en;q=0.9","655e3d32d5562c5520717cfc","67949641171f97c04e14fb34","679c2436e969c54bb7ecc907","","null","<img  src='G_7.jpg' height='90'> <img   src='G_3.jpg' height='90'> <img   src='G_9.jpg' height='90'> <img id='selected'  src='G_1.jpg' height='90'> <img id='selected' src='G_5.jpg' height='90'>","null","Animation0",""
"","","","","","html-keyboard-response","33","241781","0.0-23.0","59","1","2025-01-31 01:17:24","af8d355d56820e421d246a7037deb6e6","4.31.181.234","Mozilla/5.0 (Windows NT 10.0; Win64; x64) AppleWebKit/537.36 (KHTML, like Gecko) Chrome/132.0.0.0 Safari/537.36 Edg/132.0.0.0","WebKit","Edge","132.0.0.0","Windows","10.0","https://app.prolific.com/","en-US,en;q=0.9","655e3d32d5562c5520717cfc","67949641171f97c04e14fb34","679c2436e969c54bb7ecc907","","null","<img  src='G_7.jpg' height='90'> <img   src='G_3.jpg' height='90'> <img   src='G_9.jpg' height='90'> <img   src='G_1.jpg' height='90'> <img  src='G_5.jpg' height='90'>","null","Animation0",""
"","","","","","html-keyboard-response","34","246465","0.0-24.0","59","1","2025-01-31 01:17:24","af8d355d56820e421d246a7037deb6e6","4.31.181.234","Mozilla/5.0 (Windows NT 10.0; Win64; x64) AppleWebKit/537.36 (KHTML, like Gecko) Chrome/132.0.0.0 Safari/537.36 Edg/132.0.0.0","WebKit","Edge","132.0.0.0","Windows","10.0","https://app.prolific.com/","en-US,en;q=0.9","655e3d32d5562c5520717cfc","67949641171f97c04e14fb34","679c2436e969c54bb7ecc907","","4682","[""Did you notice any patterns? <br><br>Press Enter to watch that example again and follow the steps of Omgne Sort.""]","enter","",""
"","","","","","html-button-response","35","246877","0.0-25.0","59","1","2025-01-31 01:17:24","af8d355d56820e421d246a7037deb6e6","4.31.181.234","Mozilla/5.0 (Windows NT 10.0; Win64; x64) AppleWebKit/537.36 (KHTML, like Gecko) Chrome/132.0.0.0 Safari/537.36 Edg/132.0.0.0","WebKit","Edge","132.0.0.0","Windows","10.0","https://app.prolific.com/","en-US,en;q=0.9","655e3d32d5562c5520717cfc","67949641171f97c04e14fb34","679c2436e969c54bb7ecc907","","null","<img id='selected' src='G_3.jpg' height='90'> <img src='G_7.jpg' height='90'> <img src='G_9.jpg' height='90'> <img src='G_1.jpg' height='90'> <img src='G_5.jpg' height='90'>","null","Learning example 0",""
"","","","","","html-button-response","36","247180","0.0-26.0","59","1","2025-01-31 01:17:24","af8d355d56820e421d246a7037deb6e6","4.31.181.234","Mozilla/5.0 (Windows NT 10.0; Win64; x64) AppleWebKit/537.36 (KHTML, like Gecko) Chrome/132.0.0.0 Safari/537.36 Edg/132.0.0.0","WebKit","Edge","132.0.0.0","Windows","10.0","https://app.prolific.com/","en-US,en;q=0.9","655e3d32d5562c5520717cfc","67949641171f97c04e14fb34","679c2436e969c54bb7ecc907","","null","<img id='selected' src='G_3.jpg' height='90'> <img id='selected' src='G_7.jpg' height='90'> <img src='G_9.jpg' height='90'> <img src='G_1.jpg' height='90'> <img src='G_5.jpg' height='90'>","null","Learning example 0",""
"","","","","","html-button-response","37","247485","0.0-27.0","59","1","2025-01-31 01:17:24","af8d355d56820e421d246a7037deb6e6","4.31.181.234","Mozilla/5.0 (Windows NT 10.0; Win64; x64) AppleWebKit/537.36 (KHTML, like Gecko) Chrome/132.0.0.0 Safari/537.36 Edg/132.0.0.0","WebKit","Edge","132.0.0.0","Windows","10.0","https://app.prolific.com/","en-US,en;q=0.9","655e3d32d5562c5520717cfc","67949641171f97c04e14fb34","679c2436e969c54bb7ecc907","","null","<img id='swapped' src='G_7.jpg' height='90'> <img id='swapped' src='G_3.jpg' height='90'> <img src='G_9.jpg' height='90'> <img src='G_1.jpg' height='90'> <img src='G_5.jpg' height='90'>","null","Learning example 0",""
"","","","","","html-button-response","38","281283","0.0-28.0-0.0-0.0","59","1","2025-01-31 01:17:24","af8d355d56820e421d246a7037deb6e6","4.31.181.234","Mozilla/5.0 (Windows NT 10.0; Win64; x64) AppleWebKit/537.36 (KHTML, like Gecko) Chrome/132.0.0.0 Safari/537.36 Edg/132.0.0.0","WebKit","Edge","132.0.0.0","Windows","10.0","https://app.prolific.com/","en-US,en;q=0.9","655e3d32d5562c5520717cfc","67949641171f97c04e14fb34","679c2436e969c54bb7ecc907","","33797","<img id='swapped' src='G_7.jpg' height='90'> <img id='swapped' src='G_3.jpg' height='90'> <img src='G_9.jpg' height='90'> <img src='G_1.jpg' height='90'> <img src='G_5.jpg' height='90'>","0","Learning example 0",""
"","","","","","html-button-response","39","281811","0.0-28.1-0.1-0.1","59","1","2025-01-31 01:17:24","af8d355d56820e421d246a7037deb6e6","4.31.181.234","Mozilla/5.0 (Windows NT 10.0; Win64; x64) AppleWebKit/537.36 (KHTML, like Gecko) Chrome/132.0.0.0 Safari/537.36 Edg/132.0.0.0","WebKit","Edge","132.0.0.0","Windows","10.0","https://app.prolific.com/","en-US,en;q=0.9","655e3d32d5562c5520717cfc","67949641171f97c04e14fb34","679c2436e969c54bb7ecc907","","526","<img id='swapped' src='G_7.jpg' height='90'> <img id='swapped' src='G_3.jpg' height='90'> <img src='G_9.jpg' height='90'> <img src='G_1.jpg' height='90'> <img src='G_5.jpg' height='90'>","1","Learning example 0",""
"","","","","","html-button-response","40","282024","0.0-29.0","59","1","2025-01-31 01:17:24","af8d355d56820e421d246a7037deb6e6","4.31.181.234","Mozilla/5.0 (Windows NT 10.0; Win64; x64) AppleWebKit/537.36 (KHTML, like Gecko) Chrome/132.0.0.0 Safari/537.36 Edg/132.0.0.0","WebKit","Edge","132.0.0.0","Windows","10.0","https://app.prolific.com/","en-US,en;q=0.9","655e3d32d5562c5520717cfc","67949641171f97c04e14fb34","679c2436e969c54bb7ecc907","","null","<img  src='G_7.jpg' height='90'> <img  src='G_3.jpg' height='90'> <img src='G_9.jpg' height='90'> <img src='G_1.jpg' height='90'> <img src='G_5.jpg' height='90'>","null","Learning example 0",""
"","","","","","html-button-response","41","282443","0.0-30.0","59","1","2025-01-31 01:17:24","af8d355d56820e421d246a7037deb6e6","4.31.181.234","Mozilla/5.0 (Windows NT 10.0; Win64; x64) AppleWebKit/537.36 (KHTML, like Gecko) Chrome/132.0.0.0 Safari/537.36 Edg/132.0.0.0","WebKit","Edge","132.0.0.0","Windows","10.0","https://app.prolific.com/","en-US,en;q=0.9","655e3d32d5562c5520717cfc","67949641171f97c04e14fb34","679c2436e969c54bb7ecc907","","null","<img  src='G_7.jpg' height='90'> <img id='selected'  src='G_3.jpg' height='90'> <img src='G_9.jpg' height='90'> <img src='G_1.jpg' height='90'> <img src='G_5.jpg' height='90'>","null","Learning example 0",""
"","","","","","html-button-response","42","282751","0.0-31.0","59","1","2025-01-31 01:17:24","af8d355d56820e421d246a7037deb6e6","4.31.181.234","Mozilla/5.0 (Windows NT 10.0; Win64; x64) AppleWebKit/537.36 (KHTML, like Gecko) Chrome/132.0.0.0 Safari/537.36 Edg/132.0.0.0","WebKit","Edge","132.0.0.0","Windows","10.0","https://app.prolific.com/","en-US,en;q=0.9","655e3d32d5562c5520717cfc","67949641171f97c04e14fb34","679c2436e969c54bb7ecc907","","null","<img  src='G_7.jpg' height='90'> <img id='selected'  src='G_3.jpg' height='90'> <img id='selected' src='G_9.jpg' height='90'> <img src='G_1.jpg' height='90'> <img src='G_5.jpg' height='90'>","null","Learning example 0",""
"","","","","","html-button-response","43","283066","0.0-32.0","59","1","2025-01-31 01:17:24","af8d355d56820e421d246a7037deb6e6","4.31.181.234","Mozilla/5.0 (Windows NT 10.0; Win64; x64) AppleWebKit/537.36 (KHTML, like Gecko) Chrome/132.0.0.0 Safari/537.36 Edg/132.0.0.0","WebKit","Edge","132.0.0.0","Windows","10.0","https://app.prolific.com/","en-US,en;q=0.9","655e3d32d5562c5520717cfc","67949641171f97c04e14fb34","679c2436e969c54bb7ecc907","","null","<img  src='G_7.jpg' height='90'> <img id='selected'  src='G_3.jpg' height='90'> <img id='selected' src='G_9.jpg' height='90'> <img src='G_1.jpg' height='90'> <img src='G_5.jpg' height='90'>","null","Learning example 0",""
"","","","","","html-button-response","44","288891","0.0-33.0-0.0-0.0","59","1","2025-01-31 01:17:24","af8d355d56820e421d246a7037deb6e6","4.31.181.234","Mozilla/5.0 (Windows NT 10.0; Win64; x64) AppleWebKit/537.36 (KHTML, like Gecko) Chrome/132.0.0.0 Safari/537.36 Edg/132.0.0.0","WebKit","Edge","132.0.0.0","Windows","10.0","https://app.prolific.com/","en-US,en;q=0.9","655e3d32d5562c5520717cfc","67949641171f97c04e14fb34","679c2436e969c54bb7ecc907","","5820","<img  src='G_7.jpg' height='90'> <img id='selected'  src='G_3.jpg' height='90'> <img id='selected' src='G_9.jpg' height='90'> <img src='G_1.jpg' height='90'> <img src='G_5.jpg' height='90'>","2","Learning example 0",""
"","","","","","html-button-response","45","290203","0.0-33.1-0.1-0.1","59","1","2025-01-31 01:17:24","af8d355d56820e421d246a7037deb6e6","4.31.181.234","Mozilla/5.0 (Windows NT 10.0; Win64; x64) AppleWebKit/537.36 (KHTML, like Gecko) Chrome/132.0.0.0 Safari/537.36 Edg/132.0.0.0","WebKit","Edge","132.0.0.0","Windows","10.0","https://app.prolific.com/","en-US,en;q=0.9","655e3d32d5562c5520717cfc","67949641171f97c04e14fb34","679c2436e969c54bb7ecc907","","1310","<img  src='G_7.jpg' height='90'> <img id='selected'  src='G_3.jpg' height='90'> <img id='selected' src='G_9.jpg' height='90'> <img src='G_1.jpg' height='90'> <img src='G_5.jpg' height='90'>","3","Learning example 0",""
"","","","","","html-button-response","46","291995","0.0-33.2-0.2-0.2","59","1","2025-01-31 01:17:24","af8d355d56820e421d246a7037deb6e6","4.31.181.234","Mozilla/5.0 (Windows NT 10.0; Win64; x64) AppleWebKit/537.36 (KHTML, like Gecko) Chrome/132.0.0.0 Safari/537.36 Edg/132.0.0.0","WebKit","Edge","132.0.0.0","Windows","10.0","https://app.prolific.com/","en-US,en;q=0.9","655e3d32d5562c5520717cfc","67949641171f97c04e14fb34","679c2436e969c54bb7ecc907","","1790","<img  src='G_7.jpg' height='90'> <img id='selected'  src='G_3.jpg' height='90'> <img id='selected' src='G_9.jpg' height='90'> <img src='G_1.jpg' height='90'> <img src='G_5.jpg' height='90'>","2","Learning example 0",""
"","","","","","html-button-response","47","295859","0.0-33.3-0.3-0.3","59","1","2025-01-31 01:17:24","af8d355d56820e421d246a7037deb6e6","4.31.181.234","Mozilla/5.0 (Windows NT 10.0; Win64; x64) AppleWebKit/537.36 (KHTML, like Gecko) Chrome/132.0.0.0 Safari/537.36 Edg/132.0.0.0","WebKit","Edge","132.0.0.0","Windows","10.0","https://app.prolific.com/","en-US,en;q=0.9","655e3d32d5562c5520717cfc","67949641171f97c04e14fb34","679c2436e969c54bb7ecc907","","3862","<img  src='G_7.jpg' height='90'> <img id='selected'  src='G_3.jpg' height='90'> <img id='selected' src='G_9.jpg' height='90'> <img src='G_1.jpg' height='90'> <img src='G_5.jpg' height='90'>","3","Learning example 0",""
"","","","","","html-button-response","48","296835","0.0-33.4-0.4-0.4","59","1","2025-01-31 01:17:24","af8d355d56820e421d246a7037deb6e6","4.31.181.234","Mozilla/5.0 (Windows NT 10.0; Win64; x64) AppleWebKit/537.36 (KHTML, like Gecko) Chrome/132.0.0.0 Safari/537.36 Edg/132.0.0.0","WebKit","Edge","132.0.0.0","Windows","10.0","https://app.prolific.com/","en-US,en;q=0.9","655e3d32d5562c5520717cfc","67949641171f97c04e14fb34","679c2436e969c54bb7ecc907","","974","<img  src='G_7.jpg' height='90'> <img id='selected'  src='G_3.jpg' height='90'> <img id='selected' src='G_9.jpg' height='90'> <img src='G_1.jpg' height='90'> <img src='G_5.jpg' height='90'>","3","Learning example 0",""
"","","","","","html-button-response","49","298451","0.0-33.5-0.5-0.5","59","1","2025-01-31 01:17:24","af8d355d56820e421d246a7037deb6e6","4.31.181.234","Mozilla/5.0 (Windows NT 10.0; Win64; x64) AppleWebKit/537.36 (KHTML, like Gecko) Chrome/132.0.0.0 Safari/537.36 Edg/132.0.0.0","WebKit","Edge","132.0.0.0","Windows","10.0","https://app.prolific.com/","en-US,en;q=0.9","655e3d32d5562c5520717cfc","67949641171f97c04e14fb34","679c2436e969c54bb7ecc907","","1614","<img  src='G_7.jpg' height='90'> <img id='selected'  src='G_3.jpg' height='90'> <img id='selected' src='G_9.jpg' height='90'> <img src='G_1.jpg' height='90'> <img src='G_5.jpg' height='90'>","4","Learning example 0",""
"","","","","","html-button-response","50","300675","0.0-33.6-0.6-0.6","59","1","2025-01-31 01:17:24","af8d355d56820e421d246a7037deb6e6","4.31.181.234","Mozilla/5.0 (Windows NT 10.0; Win64; x64) AppleWebKit/537.36 (KHTML, like Gecko) Chrome/132.0.0.0 Safari/537.36 Edg/132.0.0.0","WebKit","Edge","132.0.0.0","Windows","10.0","https://app.prolific.com/","en-US,en;q=0.9","655e3d32d5562c5520717cfc","67949641171f97c04e14fb34","679c2436e969c54bb7ecc907","","2222","<img  src='G_7.jpg' height='90'> <img id='selected'  src='G_3.jpg' height='90'> <img id='selected' src='G_9.jpg' height='90'> <img src='G_1.jpg' height='90'> <img src='G_5.jpg' height='90'>","4","Learning example 0",""
"","","","","","html-button-response","51","301651","0.0-33.7-0.7-0.7","59","1","2025-01-31 01:17:24","af8d355d56820e421d246a7037deb6e6","4.31.181.234","Mozilla/5.0 (Windows NT 10.0; Win64; x64) AppleWebKit/537.36 (KHTML, like Gecko) Chrome/132.0.0.0 Safari/537.36 Edg/132.0.0.0","WebKit","Edge","132.0.0.0","Windows","10.0","https://app.prolific.com/","en-US,en;q=0.9","655e3d32d5562c5520717cfc","67949641171f97c04e14fb34","679c2436e969c54bb7ecc907","","974","<img  src='G_7.jpg' height='90'> <img id='selected'  src='G_3.jpg' height='90'> <img id='selected' src='G_9.jpg' height='90'> <img src='G_1.jpg' height='90'> <img src='G_5.jpg' height='90'>","1","Learning example 0",""
"","","","","","html-button-response","52","303843","0.0-33.8-0.8-0.8","59","1","2025-01-31 01:17:24","af8d355d56820e421d246a7037deb6e6","4.31.181.234","Mozilla/5.0 (Windows NT 10.0; Win64; x64) AppleWebKit/537.36 (KHTML, like Gecko) Chrome/132.0.0.0 Safari/537.36 Edg/132.0.0.0","WebKit","Edge","132.0.0.0","Windows","10.0","https://app.prolific.com/","en-US,en;q=0.9","655e3d32d5562c5520717cfc","67949641171f97c04e14fb34","679c2436e969c54bb7ecc907","","2190","<img  src='G_7.jpg' height='90'> <img id='selected'  src='G_3.jpg' height='90'> <img id='selected' src='G_9.jpg' height='90'> <img src='G_1.jpg' height='90'> <img src='G_5.jpg' height='90'>","3","Learning example 0",""
"","","","","","html-button-response","53","304403","0.0-33.9-0.9-0.9","59","1","2025-01-31 01:17:24","af8d355d56820e421d246a7037deb6e6","4.31.181.234","Mozilla/5.0 (Windows NT 10.0; Win64; x64) AppleWebKit/537.36 (KHTML, like Gecko) Chrome/132.0.0.0 Safari/537.36 Edg/132.0.0.0","WebKit","Edge","132.0.0.0","Windows","10.0","https://app.prolific.com/","en-US,en;q=0.9","655e3d32d5562c5520717cfc","67949641171f97c04e14fb34","679c2436e969c54bb7ecc907","","558","<img  src='G_7.jpg' height='90'> <img id='selected'  src='G_3.jpg' height='90'> <img id='selected' src='G_9.jpg' height='90'> <img src='G_1.jpg' height='90'> <img src='G_5.jpg' height='90'>","0","Learning example 0",""
"","","","","","html-button-response","54","306611","0.0-33.10-0.10-0.10","59","1","2025-01-31 01:17:24","af8d355d56820e421d246a7037deb6e6","4.31.181.234","Mozilla/5.0 (Windows NT 10.0; Win64; x64) AppleWebKit/537.36 (KHTML, like Gecko) Chrome/132.0.0.0 Safari/537.36 Edg/132.0.0.0","WebKit","Edge","132.0.0.0","Windows","10.0","https://app.prolific.com/","en-US,en;q=0.9","655e3d32d5562c5520717cfc","67949641171f97c04e14fb34","679c2436e969c54bb7ecc907","","2206","<img  src='G_7.jpg' height='90'> <img id='selected'  src='G_3.jpg' height='90'> <img id='selected' src='G_9.jpg' height='90'> <img src='G_1.jpg' height='90'> <img src='G_5.jpg' height='90'>","3","Learning example 0",""
"","","","","","html-button-response","55","307395","0.0-33.11-0.11-0.11","59","1","2025-01-31 01:17:24","af8d355d56820e421d246a7037deb6e6","4.31.181.234","Mozilla/5.0 (Windows NT 10.0; Win64; x64) AppleWebKit/537.36 (KHTML, like Gecko) Chrome/132.0.0.0 Safari/537.36 Edg/132.0.0.0","WebKit","Edge","132.0.0.0","Windows","10.0","https://app.prolific.com/","en-US,en;q=0.9","655e3d32d5562c5520717cfc","67949641171f97c04e14fb34","679c2436e969c54bb7ecc907","","782","<img  src='G_7.jpg' height='90'> <img id='selected'  src='G_3.jpg' height='90'> <img id='selected' src='G_9.jpg' height='90'> <img src='G_1.jpg' height='90'> <img src='G_5.jpg' height='90'>","0","Learning example 0",""
"","","","","","html-button-response","56","308339","0.0-33.12-0.12-0.12","59","1","2025-01-31 01:17:24","af8d355d56820e421d246a7037deb6e6","4.31.181.234","Mozilla/5.0 (Windows NT 10.0; Win64; x64) AppleWebKit/537.36 (KHTML, like Gecko) Chrome/132.0.0.0 Safari/537.36 Edg/132.0.0.0","WebKit","Edge","132.0.0.0","Windows","10.0","https://app.prolific.com/","en-US,en;q=0.9","655e3d32d5562c5520717cfc","67949641171f97c04e14fb34","679c2436e969c54bb7ecc907","","942","<img  src='G_7.jpg' height='90'> <img id='selected'  src='G_3.jpg' height='90'> <img id='selected' src='G_9.jpg' height='90'> <img src='G_1.jpg' height='90'> <img src='G_5.jpg' height='90'>","4","Learning example 0",""
"","","","","","html-button-response","57","309843","0.0-33.13-0.13-0.13","59","1","2025-01-31 01:17:24","af8d355d56820e421d246a7037deb6e6","4.31.181.234","Mozilla/5.0 (Windows NT 10.0; Win64; x64) AppleWebKit/537.36 (KHTML, like Gecko) Chrome/132.0.0.0 Safari/537.36 Edg/132.0.0.0","WebKit","Edge","132.0.0.0","Windows","10.0","https://app.prolific.com/","en-US,en;q=0.9","655e3d32d5562c5520717cfc","67949641171f97c04e14fb34","679c2436e969c54bb7ecc907","","1502","<img  src='G_7.jpg' height='90'> <img id='selected'  src='G_3.jpg' height='90'> <img id='selected' src='G_9.jpg' height='90'> <img src='G_1.jpg' height='90'> <img src='G_5.jpg' height='90'>","3","Learning example 0",""
"","","","","","html-button-response","58","310483","0.0-33.14-0.14-0.14","59","1","2025-01-31 01:17:24","af8d355d56820e421d246a7037deb6e6","4.31.181.234","Mozilla/5.0 (Windows NT 10.0; Win64; x64) AppleWebKit/537.36 (KHTML, like Gecko) Chrome/132.0.0.0 Safari/537.36 Edg/132.0.0.0","WebKit","Edge","132.0.0.0","Windows","10.0","https://app.prolific.com/","en-US,en;q=0.9","655e3d32d5562c5520717cfc","67949641171f97c04e14fb34","679c2436e969c54bb7ecc907","","637","<img  src='G_7.jpg' height='90'> <img id='selected'  src='G_3.jpg' height='90'> <img id='selected' src='G_9.jpg' height='90'> <img src='G_1.jpg' height='90'> <img src='G_5.jpg' height='90'>","4","Learning example 0",""
"","","","","","html-button-response","59","311803","0.0-33.15-0.15-0.15","59","1","2025-01-31 01:17:24","af8d355d56820e421d246a7037deb6e6","4.31.181.234","Mozilla/5.0 (Windows NT 10.0; Win64; x64) AppleWebKit/537.36 (KHTML, like Gecko) Chrome/132.0.0.0 Safari/537.36 Edg/132.0.0.0","WebKit","Edge","132.0.0.0","Windows","10.0","https://app.prolific.com/","en-US,en;q=0.9","655e3d32d5562c5520717cfc","67949641171f97c04e14fb34","679c2436e969c54bb7ecc907","","1318","<img  src='G_7.jpg' height='90'> <img id='selected'  src='G_3.jpg' height='90'> <img id='selected' src='G_9.jpg' height='90'> <img src='G_1.jpg' height='90'> <img src='G_5.jpg' height='90'>","0","Learning example 0",""
"","","","","","html-button-response","60","312763","0.0-33.16-0.16-0.16","59","1","2025-01-31 01:17:24","af8d355d56820e421d246a7037deb6e6","4.31.181.234","Mozilla/5.0 (Windows NT 10.0; Win64; x64) AppleWebKit/537.36 (KHTML, like Gecko) Chrome/132.0.0.0 Safari/537.36 Edg/132.0.0.0","WebKit","Edge","132.0.0.0","Windows","10.0","https://app.prolific.com/","en-US,en;q=0.9","655e3d32d5562c5520717cfc","67949641171f97c04e14fb34","679c2436e969c54bb7ecc907","","958","<img  src='G_7.jpg' height='90'> <img id='selected'  src='G_3.jpg' height='90'> <img id='selected' src='G_9.jpg' height='90'> <img src='G_1.jpg' height='90'> <img src='G_5.jpg' height='90'>","0","Learning example 0",""
"","","","","","html-button-response","61","313323","0.0-33.17-0.17-0.17","59","1","2025-01-31 01:17:24","af8d355d56820e421d246a7037deb6e6","4.31.181.234","Mozilla/5.0 (Windows NT 10.0; Win64; x64) AppleWebKit/537.36 (KHTML, like Gecko) Chrome/132.0.0.0 Safari/537.36 Edg/132.0.0.0","WebKit","Edge","132.0.0.0","Windows","10.0","https://app.prolific.com/","en-US,en;q=0.9","655e3d32d5562c5520717cfc","67949641171f97c04e14fb34","679c2436e969c54bb7ecc907","","558","<img  src='G_7.jpg' height='90'> <img id='selected'  src='G_3.jpg' height='90'> <img id='selected' src='G_9.jpg' height='90'> <img src='G_1.jpg' height='90'> <img src='G_5.jpg' height='90'>","1","Learning example 0",""
"","","","","","html-button-response","62","314835","0.0-33.18-0.18-0.18","59","1","2025-01-31 01:17:24","af8d355d56820e421d246a7037deb6e6","4.31.181.234","Mozilla/5.0 (Windows NT 10.0; Win64; x64) AppleWebKit/537.36 (KHTML, like Gecko) Chrome/132.0.0.0 Safari/537.36 Edg/132.0.0.0","WebKit","Edge","132.0.0.0","Windows","10.0","https://app.prolific.com/","en-US,en;q=0.9","655e3d32d5562c5520717cfc","67949641171f97c04e14fb34","679c2436e969c54bb7ecc907","","1510","<img  src='G_7.jpg' height='90'> <img id='selected'  src='G_3.jpg' height='90'> <img id='selected' src='G_9.jpg' height='90'> <img src='G_1.jpg' height='90'> <img src='G_5.jpg' height='90'>","3","Learning example 0",""
"","","","","","html-button-response","63","315331","0.0-33.19-0.19-0.19","59","1","2025-01-31 01:17:24","af8d355d56820e421d246a7037deb6e6","4.31.181.234","Mozilla/5.0 (Windows NT 10.0; Win64; x64) AppleWebKit/537.36 (KHTML, like Gecko) Chrome/132.0.0.0 Safari/537.36 Edg/132.0.0.0","WebKit","Edge","132.0.0.0","Windows","10.0","https://app.prolific.com/","en-US,en;q=0.9","655e3d32d5562c5520717cfc","67949641171f97c04e14fb34","679c2436e969c54bb7ecc907","","494","<img  src='G_7.jpg' height='90'> <img id='selected'  src='G_3.jpg' height='90'> <img id='selected' src='G_9.jpg' height='90'> <img src='G_1.jpg' height='90'> <img src='G_5.jpg' height='90'>","4","Learning example 0",""
"","","","","","html-button-response","64","315924","0.0-33.20-0.20-0.20","59","1","2025-01-31 01:17:24","af8d355d56820e421d246a7037deb6e6","4.31.181.234","Mozilla/5.0 (Windows NT 10.0; Win64; x64) AppleWebKit/537.36 (KHTML, like Gecko) Chrome/132.0.0.0 Safari/537.36 Edg/132.0.0.0","WebKit","Edge","132.0.0.0","Windows","10.0","https://app.prolific.com/","en-US,en;q=0.9","655e3d32d5562c5520717cfc","67949641171f97c04e14fb34","679c2436e969c54bb7ecc907","","591","<img  src='G_7.jpg' height='90'> <img id='selected'  src='G_3.jpg' height='90'> <img id='selected' src='G_9.jpg' height='90'> <img src='G_1.jpg' height='90'> <img src='G_5.jpg' height='90'>","4","Learning example 0",""
"","","","","","html-button-response","65","316475","0.0-33.21-0.21-0.21","59","1","2025-01-31 01:17:24","af8d355d56820e421d246a7037deb6e6","4.31.181.234","Mozilla/5.0 (Windows NT 10.0; Win64; x64) AppleWebKit/537.36 (KHTML, like Gecko) Chrome/132.0.0.0 Safari/537.36 Edg/132.0.0.0","WebKit","Edge","132.0.0.0","Windows","10.0","https://app.prolific.com/","en-US,en;q=0.9","655e3d32d5562c5520717cfc","67949641171f97c04e14fb34","679c2436e969c54bb7ecc907","","549","<img  src='G_7.jpg' height='90'> <img id='selected'  src='G_3.jpg' height='90'> <img id='selected' src='G_9.jpg' height='90'> <img src='G_1.jpg' height='90'> <img src='G_5.jpg' height='90'>","3","Learning example 0",""
"","","","","","html-button-response","66","350315","0.0-33.22-0.22-0.22","59","1","2025-01-31 01:17:24","af8d355d56820e421d246a7037deb6e6","4.31.181.234","Mozilla/5.0 (Windows NT 10.0; Win64; x64) AppleWebKit/537.36 (KHTML, like Gecko) Chrome/132.0.0.0 Safari/537.36 Edg/132.0.0.0","WebKit","Edge","132.0.0.0","Windows","10.0","https://app.prolific.com/","en-US,en;q=0.9","655e3d32d5562c5520717cfc","67949641171f97c04e14fb34","679c2436e969c54bb7ecc907","","33837","<img  src='G_7.jpg' height='90'> <img id='selected'  src='G_3.jpg' height='90'> <img id='selected' src='G_9.jpg' height='90'> <img src='G_1.jpg' height='90'> <img src='G_5.jpg' height='90'>","3","Learning example 0",""
"","","","","","html-button-response","67","350675","0.0-33.23-0.23-0.23","59","1","2025-01-31 01:17:24","af8d355d56820e421d246a7037deb6e6","4.31.181.234","Mozilla/5.0 (Windows NT 10.0; Win64; x64) AppleWebKit/537.36 (KHTML, like Gecko) Chrome/132.0.0.0 Safari/537.36 Edg/132.0.0.0","WebKit","Edge","132.0.0.0","Windows","10.0","https://app.prolific.com/","en-US,en;q=0.9","655e3d32d5562c5520717cfc","67949641171f97c04e14fb34","679c2436e969c54bb7ecc907","","358","<img  src='G_7.jpg' height='90'> <img id='selected'  src='G_3.jpg' height='90'> <img id='selected' src='G_9.jpg' height='90'> <img src='G_1.jpg' height='90'> <img src='G_5.jpg' height='90'>","4","Learning example 0",""
"","","","","","html-button-response","68","352436","0.0-33.24-0.24-0.24","59","1","2025-01-31 01:17:24","af8d355d56820e421d246a7037deb6e6","4.31.181.234","Mozilla/5.0 (Windows NT 10.0; Win64; x64) AppleWebKit/537.36 (KHTML, like Gecko) Chrome/132.0.0.0 Safari/537.36 Edg/132.0.0.0","WebKit","Edge","132.0.0.0","Windows","10.0","https://app.prolific.com/","en-US,en;q=0.9","655e3d32d5562c5520717cfc","67949641171f97c04e14fb34","679c2436e969c54bb7ecc907","","1759","<img  src='G_7.jpg' height='90'> <img id='selected'  src='G_3.jpg' height='90'> <img id='selected' src='G_9.jpg' height='90'> <img src='G_1.jpg' height='90'> <img src='G_5.jpg' height='90'>","2","Learning example 0",""
"","","","","","html-button-response","69","352803","0.0-33.25-0.25-0.25","59","1","2025-01-31 01:17:24","af8d355d56820e421d246a7037deb6e6","4.31.181.234","Mozilla/5.0 (Windows NT 10.0; Win64; x64) AppleWebKit/537.36 (KHTML, like Gecko) Chrome/132.0.0.0 Safari/537.36 Edg/132.0.0.0","WebKit","Edge","132.0.0.0","Windows","10.0","https://app.prolific.com/","en-US,en;q=0.9","655e3d32d5562c5520717cfc","67949641171f97c04e14fb34","679c2436e969c54bb7ecc907","","365","<img  src='G_7.jpg' height='90'> <img id='selected'  src='G_3.jpg' height='90'> <img id='selected' src='G_9.jpg' height='90'> <img src='G_1.jpg' height='90'> <img src='G_5.jpg' height='90'>","3","Learning example 0",""
"","","","","","html-button-response","70","353291","0.0-33.26-0.26-0.26","59","1","2025-01-31 01:17:24","af8d355d56820e421d246a7037deb6e6","4.31.181.234","Mozilla/5.0 (Windows NT 10.0; Win64; x64) AppleWebKit/537.36 (KHTML, like Gecko) Chrome/132.0.0.0 Safari/537.36 Edg/132.0.0.0","WebKit","Edge","132.0.0.0","Windows","10.0","https://app.prolific.com/","en-US,en;q=0.9","655e3d32d5562c5520717cfc","67949641171f97c04e14fb34","679c2436e969c54bb7ecc907","","486","<img  src='G_7.jpg' height='90'> <img id='selected'  src='G_3.jpg' height='90'> <img id='selected' src='G_9.jpg' height='90'> <img src='G_1.jpg' height='90'> <img src='G_5.jpg' height='90'>","3","Learning example 0",""
"","","","","","html-button-response","71","353627","0.0-33.27-0.27-0.27","59","1","2025-01-31 01:17:24","af8d355d56820e421d246a7037deb6e6","4.31.181.234","Mozilla/5.0 (Windows NT 10.0; Win64; x64) AppleWebKit/537.36 (KHTML, like Gecko) Chrome/132.0.0.0 Safari/537.36 Edg/132.0.0.0","WebKit","Edge","132.0.0.0","Windows","10.0","https://app.prolific.com/","en-US,en;q=0.9","655e3d32d5562c5520717cfc","67949641171f97c04e14fb34","679c2436e969c54bb7ecc907","","334","<img  src='G_7.jpg' height='90'> <img id='selected'  src='G_3.jpg' height='90'> <img id='selected' src='G_9.jpg' height='90'> <img src='G_1.jpg' height='90'> <img src='G_5.jpg' height='90'>","4","Learning example 0",""
"","","","","","html-button-response","72","356148","0.0-33.28-0.28-0.28","59","1","2025-01-31 01:17:24","af8d355d56820e421d246a7037deb6e6","4.31.181.234","Mozilla/5.0 (Windows NT 10.0; Win64; x64) AppleWebKit/537.36 (KHTML, like Gecko) Chrome/132.0.0.0 Safari/537.36 Edg/132.0.0.0","WebKit","Edge","132.0.0.0","Windows","10.0","https://app.prolific.com/","en-US,en;q=0.9","655e3d32d5562c5520717cfc","67949641171f97c04e14fb34","679c2436e969c54bb7ecc907","","2518","<img  src='G_7.jpg' height='90'> <img id='selected'  src='G_3.jpg' height='90'> <img id='selected' src='G_9.jpg' height='90'> <img src='G_1.jpg' height='90'> <img src='G_5.jpg' height='90'>","0","Learning example 0",""
"","","","","","html-button-response","73","356835","0.0-33.29-0.29-0.29","59","1","2025-01-31 01:17:24","af8d355d56820e421d246a7037deb6e6","4.31.181.234","Mozilla/5.0 (Windows NT 10.0; Win64; x64) AppleWebKit/537.36 (KHTML, like Gecko) Chrome/132.0.0.0 Safari/537.36 Edg/132.0.0.0","WebKit","Edge","132.0.0.0","Windows","10.0","https://app.prolific.com/","en-US,en;q=0.9","655e3d32d5562c5520717cfc","67949641171f97c04e14fb34","679c2436e969c54bb7ecc907","","685","<img  src='G_7.jpg' height='90'> <img id='selected'  src='G_3.jpg' height='90'> <img id='selected' src='G_9.jpg' height='90'> <img src='G_1.jpg' height='90'> <img src='G_5.jpg' height='90'>","0","Learning example 0",""
"","","","","","html-button-response","74","357227","0.0-33.30-0.30-0.30","59","1","2025-01-31 01:17:24","af8d355d56820e421d246a7037deb6e6","4.31.181.234","Mozilla/5.0 (Windows NT 10.0; Win64; x64) AppleWebKit/537.36 (KHTML, like Gecko) Chrome/132.0.0.0 Safari/537.36 Edg/132.0.0.0","WebKit","Edge","132.0.0.0","Windows","10.0","https://app.prolific.com/","en-US,en;q=0.9","655e3d32d5562c5520717cfc","67949641171f97c04e14fb34","679c2436e969c54bb7ecc907","","390","<img  src='G_7.jpg' height='90'> <img id='selected'  src='G_3.jpg' height='90'> <img id='selected' src='G_9.jpg' height='90'> <img src='G_1.jpg' height='90'> <img src='G_5.jpg' height='90'>","1","Learning example 0",""
"","","","","","html-button-response","75","366307","0.0-33.31-0.31-0.31","59","1","2025-01-31 01:17:24","af8d355d56820e421d246a7037deb6e6","4.31.181.234","Mozilla/5.0 (Windows NT 10.0; Win64; x64) AppleWebKit/537.36 (KHTML, like Gecko) Chrome/132.0.0.0 Safari/537.36 Edg/132.0.0.0","WebKit","Edge","132.0.0.0","Windows","10.0","https://app.prolific.com/","en-US,en;q=0.9","655e3d32d5562c5520717cfc","67949641171f97c04e14fb34","679c2436e969c54bb7ecc907","","9078","<img  src='G_7.jpg' height='90'> <img id='selected'  src='G_3.jpg' height='90'> <img id='selected' src='G_9.jpg' height='90'> <img src='G_1.jpg' height='90'> <img src='G_5.jpg' height='90'>","3","Learning example 0",""
"","","","","","html-button-response","76","366683","0.0-33.32-0.32-0.32","59","1","2025-01-31 01:17:24","af8d355d56820e421d246a7037deb6e6","4.31.181.234","Mozilla/5.0 (Windows NT 10.0; Win64; x64) AppleWebKit/537.36 (KHTML, like Gecko) Chrome/132.0.0.0 Safari/537.36 Edg/132.0.0.0","WebKit","Edge","132.0.0.0","Windows","10.0","https://app.prolific.com/","en-US,en;q=0.9","655e3d32d5562c5520717cfc","67949641171f97c04e14fb34","679c2436e969c54bb7ecc907","","373","<img  src='G_7.jpg' height='90'> <img id='selected'  src='G_3.jpg' height='90'> <img id='selected' src='G_9.jpg' height='90'> <img src='G_1.jpg' height='90'> <img src='G_5.jpg' height='90'>","4","Learning example 0",""
"","","","","","html-button-response","77","367339","0.0-33.33-0.33-0.33","59","1","2025-01-31 01:17:24","af8d355d56820e421d246a7037deb6e6","4.31.181.234","Mozilla/5.0 (Windows NT 10.0; Win64; x64) AppleWebKit/537.36 (KHTML, like Gecko) Chrome/132.0.0.0 Safari/537.36 Edg/132.0.0.0","WebKit","Edge","132.0.0.0","Windows","10.0","https://app.prolific.com/","en-US,en;q=0.9","655e3d32d5562c5520717cfc","67949641171f97c04e14fb34","679c2436e969c54bb7ecc907","","654","<img  src='G_7.jpg' height='90'> <img id='selected'  src='G_3.jpg' height='90'> <img id='selected' src='G_9.jpg' height='90'> <img src='G_1.jpg' height='90'> <img src='G_5.jpg' height='90'>","3","Learning example 0",""
"","","","","","html-button-response","78","367691","0.0-33.34-0.34-0.34","59","1","2025-01-31 01:17:24","af8d355d56820e421d246a7037deb6e6","4.31.181.234","Mozilla/5.0 (Windows NT 10.0; Win64; x64) AppleWebKit/537.36 (KHTML, like Gecko) Chrome/132.0.0.0 Safari/537.36 Edg/132.0.0.0","WebKit","Edge","132.0.0.0","Windows","10.0","https://app.prolific.com/","en-US,en;q=0.9","655e3d32d5562c5520717cfc","67949641171f97c04e14fb34","679c2436e969c54bb7ecc907","","350","<img  src='G_7.jpg' height='90'> <img id='selected'  src='G_3.jpg' height='90'> <img id='selected' src='G_9.jpg' height='90'> <img src='G_1.jpg' height='90'> <img src='G_5.jpg' height='90'>","4","Learning example 0",""
"","","","","","html-button-response","79","368243","0.0-33.35-0.35-0.35","59","1","2025-01-31 01:17:24","af8d355d56820e421d246a7037deb6e6","4.31.181.234","Mozilla/5.0 (Windows NT 10.0; Win64; x64) AppleWebKit/537.36 (KHTML, like Gecko) Chrome/132.0.0.0 Safari/537.36 Edg/132.0.0.0","WebKit","Edge","132.0.0.0","Windows","10.0","https://app.prolific.com/","en-US,en;q=0.9","655e3d32d5562c5520717cfc","67949641171f97c04e14fb34","679c2436e969c54bb7ecc907","","550","<img  src='G_7.jpg' height='90'> <img id='selected'  src='G_3.jpg' height='90'> <img id='selected' src='G_9.jpg' height='90'> <img src='G_1.jpg' height='90'> <img src='G_5.jpg' height='90'>","0","Learning example 0",""
"","","","","","html-button-response","80","369075","0.0-33.36-0.36-0.36","59","1","2025-01-31 01:17:24","af8d355d56820e421d246a7037deb6e6","4.31.181.234","Mozilla/5.0 (Windows NT 10.0; Win64; x64) AppleWebKit/537.36 (KHTML, like Gecko) Chrome/132.0.0.0 Safari/537.36 Edg/132.0.0.0","WebKit","Edge","132.0.0.0","Windows","10.0","https://app.prolific.com/","en-US,en;q=0.9","655e3d32d5562c5520717cfc","67949641171f97c04e14fb34","679c2436e969c54bb7ecc907","","830","<img  src='G_7.jpg' height='90'> <img id='selected'  src='G_3.jpg' height='90'> <img id='selected' src='G_9.jpg' height='90'> <img src='G_1.jpg' height='90'> <img src='G_5.jpg' height='90'>","3","Learning example 0",""
"","","","","","html-button-response","81","369443","0.0-33.37-0.37-0.37","59","1","2025-01-31 01:17:24","af8d355d56820e421d246a7037deb6e6","4.31.181.234","Mozilla/5.0 (Windows NT 10.0; Win64; x64) AppleWebKit/537.36 (KHTML, like Gecko) Chrome/132.0.0.0 Safari/537.36 Edg/132.0.0.0","WebKit","Edge","132.0.0.0","Windows","10.0","https://app.prolific.com/","en-US,en;q=0.9","655e3d32d5562c5520717cfc","67949641171f97c04e14fb34","679c2436e969c54bb7ecc907","","366","<img  src='G_7.jpg' height='90'> <img id='selected'  src='G_3.jpg' height='90'> <img id='selected' src='G_9.jpg' height='90'> <img src='G_1.jpg' height='90'> <img src='G_5.jpg' height='90'>","4","Learning example 0",""
"","","","","","html-button-response","82","369948","0.0-33.38-0.38-0.38","59","1","2025-01-31 01:17:24","af8d355d56820e421d246a7037deb6e6","4.31.181.234","Mozilla/5.0 (Windows NT 10.0; Win64; x64) AppleWebKit/537.36 (KHTML, like Gecko) Chrome/132.0.0.0 Safari/537.36 Edg/132.0.0.0","WebKit","Edge","132.0.0.0","Windows","10.0","https://app.prolific.com/","en-US,en;q=0.9","655e3d32d5562c5520717cfc","67949641171f97c04e14fb34","679c2436e969c54bb7ecc907","","502","<img  src='G_7.jpg' height='90'> <img id='selected'  src='G_3.jpg' height='90'> <img id='selected' src='G_9.jpg' height='90'> <img src='G_1.jpg' height='90'> <img src='G_5.jpg' height='90'>","3","Learning example 0",""
"","","","","","html-button-response","83","370459","0.0-33.39-0.39-0.39","59","1","2025-01-31 01:17:24","af8d355d56820e421d246a7037deb6e6","4.31.181.234","Mozilla/5.0 (Windows NT 10.0; Win64; x64) AppleWebKit/537.36 (KHTML, like Gecko) Chrome/132.0.0.0 Safari/537.36 Edg/132.0.0.0","WebKit","Edge","132.0.0.0","Windows","10.0","https://app.prolific.com/","en-US,en;q=0.9","655e3d32d5562c5520717cfc","67949641171f97c04e14fb34","679c2436e969c54bb7ecc907","","509","<img  src='G_7.jpg' height='90'> <img id='selected'  src='G_3.jpg' height='90'> <img id='selected' src='G_9.jpg' height='90'> <img src='G_1.jpg' height='90'> <img src='G_5.jpg' height='90'>","0","Learning example 0",""
"","","","","","html-button-response","84","392588","0.0-33.40-0.40-0.40","59","1","2025-01-31 01:17:24","af8d355d56820e421d246a7037deb6e6","4.31.181.234","Mozilla/5.0 (Windows NT 10.0; Win64; x64) AppleWebKit/537.36 (KHTML, like Gecko) Chrome/132.0.0.0 Safari/537.36 Edg/132.0.0.0","WebKit","Edge","132.0.0.0","Windows","10.0","https://app.prolific.com/","en-US,en;q=0.9","655e3d32d5562c5520717cfc","67949641171f97c04e14fb34","679c2436e969c54bb7ecc907","","22127","<img  src='G_7.jpg' height='90'> <img id='selected'  src='G_3.jpg' height='90'> <img id='selected' src='G_9.jpg' height='90'> <img src='G_1.jpg' height='90'> <img src='G_5.jpg' height='90'>","4","Learning example 0",""
"","","","","","html-button-response","85","394051","0.0-33.41-0.41-0.41","59","1","2025-01-31 01:17:24","af8d355d56820e421d246a7037deb6e6","4.31.181.234","Mozilla/5.0 (Windows NT 10.0; Win64; x64) AppleWebKit/537.36 (KHTML, like Gecko) Chrome/132.0.0.0 Safari/537.36 Edg/132.0.0.0","WebKit","Edge","132.0.0.0","Windows","10.0","https://app.prolific.com/","en-US,en;q=0.9","655e3d32d5562c5520717cfc","67949641171f97c04e14fb34","679c2436e969c54bb7ecc907","","1461","<img  src='G_7.jpg' height='90'> <img id='selected'  src='G_3.jpg' height='90'> <img id='selected' src='G_9.jpg' height='90'> <img src='G_1.jpg' height='90'> <img src='G_5.jpg' height='90'>","3","Learning example 0",""
"","","","","","html-button-response","86","394475","0.0-33.42-0.42-0.42","59","1","2025-01-31 01:17:24","af8d355d56820e421d246a7037deb6e6","4.31.181.234","Mozilla/5.0 (Windows NT 10.0; Win64; x64) AppleWebKit/537.36 (KHTML, like Gecko) Chrome/132.0.0.0 Safari/537.36 Edg/132.0.0.0","WebKit","Edge","132.0.0.0","Windows","10.0","https://app.prolific.com/","en-US,en;q=0.9","655e3d32d5562c5520717cfc","67949641171f97c04e14fb34","679c2436e969c54bb7ecc907","","422","<img  src='G_7.jpg' height='90'> <img id='selected'  src='G_3.jpg' height='90'> <img id='selected' src='G_9.jpg' height='90'> <img src='G_1.jpg' height='90'> <img src='G_5.jpg' height='90'>","4","Learning example 0",""
"","","","","","html-button-response","87","394907","0.0-33.43-0.43-0.43","59","1","2025-01-31 01:17:24","af8d355d56820e421d246a7037deb6e6","4.31.181.234","Mozilla/5.0 (Windows NT 10.0; Win64; x64) AppleWebKit/537.36 (KHTML, like Gecko) Chrome/132.0.0.0 Safari/537.36 Edg/132.0.0.0","WebKit","Edge","132.0.0.0","Windows","10.0","https://app.prolific.com/","en-US,en;q=0.9","655e3d32d5562c5520717cfc","67949641171f97c04e14fb34","679c2436e969c54bb7ecc907","","430","<img  src='G_7.jpg' height='90'> <img id='selected'  src='G_3.jpg' height='90'> <img id='selected' src='G_9.jpg' height='90'> <img src='G_1.jpg' height='90'> <img src='G_5.jpg' height='90'>","3","Learning example 0",""
"","","","","","html-button-response","88","395211","0.0-33.44-0.44-0.44","59","1","2025-01-31 01:17:24","af8d355d56820e421d246a7037deb6e6","4.31.181.234","Mozilla/5.0 (Windows NT 10.0; Win64; x64) AppleWebKit/537.36 (KHTML, like Gecko) Chrome/132.0.0.0 Safari/537.36 Edg/132.0.0.0","WebKit","Edge","132.0.0.0","Windows","10.0","https://app.prolific.com/","en-US,en;q=0.9","655e3d32d5562c5520717cfc","67949641171f97c04e14fb34","679c2436e969c54bb7ecc907","","302","<img  src='G_7.jpg' height='90'> <img id='selected'  src='G_3.jpg' height='90'> <img id='selected' src='G_9.jpg' height='90'> <img src='G_1.jpg' height='90'> <img src='G_5.jpg' height='90'>","3","Learning example 0",""
"","","","","","html-button-response","89","395755","0.0-33.45-0.45-0.45","59","1","2025-01-31 01:17:24","af8d355d56820e421d246a7037deb6e6","4.31.181.234","Mozilla/5.0 (Windows NT 10.0; Win64; x64) AppleWebKit/537.36 (KHTML, like Gecko) Chrome/132.0.0.0 Safari/537.36 Edg/132.0.0.0","WebKit","Edge","132.0.0.0","Windows","10.0","https://app.prolific.com/","en-US,en;q=0.9","655e3d32d5562c5520717cfc","67949641171f97c04e14fb34","679c2436e969c54bb7ecc907","","542","<img  src='G_7.jpg' height='90'> <img id='selected'  src='G_3.jpg' height='90'> <img id='selected' src='G_9.jpg' height='90'> <img src='G_1.jpg' height='90'> <img src='G_5.jpg' height='90'>","0","Learning example 0",""
"","","","","","html-button-response","90","396939","0.0-33.46-0.46-0.46","59","1","2025-01-31 01:17:24","af8d355d56820e421d246a7037deb6e6","4.31.181.234","Mozilla/5.0 (Windows NT 10.0; Win64; x64) AppleWebKit/537.36 (KHTML, like Gecko) Chrome/132.0.0.0 Safari/537.36 Edg/132.0.0.0","WebKit","Edge","132.0.0.0","Windows","10.0","https://app.prolific.com/","en-US,en;q=0.9","655e3d32d5562c5520717cfc","67949641171f97c04e14fb34","679c2436e969c54bb7ecc907","","1182","<img  src='G_7.jpg' height='90'> <img id='selected'  src='G_3.jpg' height='90'> <img id='selected' src='G_9.jpg' height='90'> <img src='G_1.jpg' height='90'> <img src='G_5.jpg' height='90'>","0","Learning example 0",""
"","","","","","html-button-response","91","397664","0.0-33.47-0.47-0.47","59","1","2025-01-31 01:17:24","af8d355d56820e421d246a7037deb6e6","4.31.181.234","Mozilla/5.0 (Windows NT 10.0; Win64; x64) AppleWebKit/537.36 (KHTML, like Gecko) Chrome/132.0.0.0 Safari/537.36 Edg/132.0.0.0","WebKit","Edge","132.0.0.0","Windows","10.0","https://app.prolific.com/","en-US,en;q=0.9","655e3d32d5562c5520717cfc","67949641171f97c04e14fb34","679c2436e969c54bb7ecc907","","722","<img  src='G_7.jpg' height='90'> <img id='selected'  src='G_3.jpg' height='90'> <img id='selected' src='G_9.jpg' height='90'> <img src='G_1.jpg' height='90'> <img src='G_5.jpg' height='90'>","0","Learning example 0",""
"","","","","","html-button-response","92","398195","0.0-33.48-0.48-0.48","59","1","2025-01-31 01:17:24","af8d355d56820e421d246a7037deb6e6","4.31.181.234","Mozilla/5.0 (Windows NT 10.0; Win64; x64) AppleWebKit/537.36 (KHTML, like Gecko) Chrome/132.0.0.0 Safari/537.36 Edg/132.0.0.0","WebKit","Edge","132.0.0.0","Windows","10.0","https://app.prolific.com/","en-US,en;q=0.9","655e3d32d5562c5520717cfc","67949641171f97c04e14fb34","679c2436e969c54bb7ecc907","","529","<img  src='G_7.jpg' height='90'> <img id='selected'  src='G_3.jpg' height='90'> <img id='selected' src='G_9.jpg' height='90'> <img src='G_1.jpg' height='90'> <img src='G_5.jpg' height='90'>","3","Learning example 0",""
"","","","","","html-button-response","93","398987","0.0-33.49-0.49-0.49","59","1","2025-01-31 01:17:24","af8d355d56820e421d246a7037deb6e6","4.31.181.234","Mozilla/5.0 (Windows NT 10.0; Win64; x64) AppleWebKit/537.36 (KHTML, like Gecko) Chrome/132.0.0.0 Safari/537.36 Edg/132.0.0.0","WebKit","Edge","132.0.0.0","Windows","10.0","https://app.prolific.com/","en-US,en;q=0.9","655e3d32d5562c5520717cfc","67949641171f97c04e14fb34","679c2436e969c54bb7ecc907","","790","<img  src='G_7.jpg' height='90'> <img id='selected'  src='G_3.jpg' height='90'> <img id='selected' src='G_9.jpg' height='90'> <img src='G_1.jpg' height='90'> <img src='G_5.jpg' height='90'>","4","Learning example 0",""
"","","","","","html-button-response","94","399747","0.0-33.50-0.50-0.50","59","1","2025-01-31 01:17:24","af8d355d56820e421d246a7037deb6e6","4.31.181.234","Mozilla/5.0 (Windows NT 10.0; Win64; x64) AppleWebKit/537.36 (KHTML, like Gecko) Chrome/132.0.0.0 Safari/537.36 Edg/132.0.0.0","WebKit","Edge","132.0.0.0","Windows","10.0","https://app.prolific.com/","en-US,en;q=0.9","655e3d32d5562c5520717cfc","67949641171f97c04e14fb34","679c2436e969c54bb7ecc907","","757","<img  src='G_7.jpg' height='90'> <img id='selected'  src='G_3.jpg' height='90'> <img id='selected' src='G_9.jpg' height='90'> <img src='G_1.jpg' height='90'> <img src='G_5.jpg' height='90'>","3","Learning example 0",""
"","","","","","html-button-response","95","400707","0.0-33.51-0.51-0.51","59","1","2025-01-31 01:17:24","af8d355d56820e421d246a7037deb6e6","4.31.181.234","Mozilla/5.0 (Windows NT 10.0; Win64; x64) AppleWebKit/537.36 (KHTML, like Gecko) Chrome/132.0.0.0 Safari/537.36 Edg/132.0.0.0","WebKit","Edge","132.0.0.0","Windows","10.0","https://app.prolific.com/","en-US,en;q=0.9","655e3d32d5562c5520717cfc","67949641171f97c04e14fb34","679c2436e969c54bb7ecc907","","958","<img  src='G_7.jpg' height='90'> <img id='selected'  src='G_3.jpg' height='90'> <img id='selected' src='G_9.jpg' height='90'> <img src='G_1.jpg' height='90'> <img src='G_5.jpg' height='90'>","4","Learning example 0",""
"","","","","","html-button-response","96","401147","0.0-33.52-0.52-0.52","59","1","2025-01-31 01:17:24","af8d355d56820e421d246a7037deb6e6","4.31.181.234","Mozilla/5.0 (Windows NT 10.0; Win64; x64) AppleWebKit/537.36 (KHTML, like Gecko) Chrome/132.0.0.0 Safari/537.36 Edg/132.0.0.0","WebKit","Edge","132.0.0.0","Windows","10.0","https://app.prolific.com/","en-US,en;q=0.9","655e3d32d5562c5520717cfc","67949641171f97c04e14fb34","679c2436e969c54bb7ecc907","","438","<img  src='G_7.jpg' height='90'> <img id='selected'  src='G_3.jpg' height='90'> <img id='selected' src='G_9.jpg' height='90'> <img src='G_1.jpg' height='90'> <img src='G_5.jpg' height='90'>","3","Learning example 0",""
"","","","","","html-button-response","97","403667","0.0-33.53-0.53-0.53","59","1","2025-01-31 01:17:24","af8d355d56820e421d246a7037deb6e6","4.31.181.234","Mozilla/5.0 (Windows NT 10.0; Win64; x64) AppleWebKit/537.36 (KHTML, like Gecko) Chrome/132.0.0.0 Safari/537.36 Edg/132.0.0.0","WebKit","Edge","132.0.0.0","Windows","10.0","https://app.prolific.com/","en-US,en;q=0.9","655e3d32d5562c5520717cfc","67949641171f97c04e14fb34","679c2436e969c54bb7ecc907","","2518","<img  src='G_7.jpg' height='90'> <img id='selected'  src='G_3.jpg' height='90'> <img id='selected' src='G_9.jpg' height='90'> <img src='G_1.jpg' height='90'> <img src='G_5.jpg' height='90'>","4","Learning example 0",""
"","","","","","html-button-response","98","404067","0.0-33.54-0.54-0.54","59","1","2025-01-31 01:17:24","af8d355d56820e421d246a7037deb6e6","4.31.181.234","Mozilla/5.0 (Windows NT 10.0; Win64; x64) AppleWebKit/537.36 (KHTML, like Gecko) Chrome/132.0.0.0 Safari/537.36 Edg/132.0.0.0","WebKit","Edge","132.0.0.0","Windows","10.0","https://app.prolific.com/","en-US,en;q=0.9","655e3d32d5562c5520717cfc","67949641171f97c04e14fb34","679c2436e969c54bb7ecc907","","397","<img  src='G_7.jpg' height='90'> <img id='selected'  src='G_3.jpg' height='90'> <img id='selected' src='G_9.jpg' height='90'> <img src='G_1.jpg' height='90'> <img src='G_5.jpg' height='90'>","3","Learning example 0",""
"","","","","","html-button-response","99","832051","0.0-33.55-0.55-0.55","59","1","2025-01-31 01:17:24","af8d355d56820e421d246a7037deb6e6","4.31.181.234","Mozilla/5.0 (Windows NT 10.0; Win64; x64) AppleWebKit/537.36 (KHTML, like Gecko) Chrome/132.0.0.0 Safari/537.36 Edg/132.0.0.0","WebKit","Edge","132.0.0.0","Windows","10.0","https://app.prolific.com/","en-US,en;q=0.9","655e3d32d5562c5520717cfc","67949641171f97c04e14fb34","679c2436e969c54bb7ecc907","","427981","<img  src='G_7.jpg' height='90'> <img id='selected'  src='G_3.jpg' height='90'> <img id='selected' src='G_9.jpg' height='90'> <img src='G_1.jpg' height='90'> <img src='G_5.jpg' height='90'>","3","Learning example 0",""
"","","","","","html-button-response","100","832619","0.0-33.56-0.56-0.56","59","1","2025-01-31 01:17:24","af8d355d56820e421d246a7037deb6e6","4.31.181.234","Mozilla/5.0 (Windows NT 10.0; Win64; x64) AppleWebKit/537.36 (KHTML, like Gecko) Chrome/132.0.0.0 Safari/537.36 Edg/132.0.0.0","WebKit","Edge","132.0.0.0","Windows","10.0","https://app.prolific.com/","en-US,en;q=0.9","655e3d32d5562c5520717cfc","67949641171f97c04e14fb34","679c2436e969c54bb7ecc907","","565","<img  src='G_7.jpg' height='90'> <img id='selected'  src='G_3.jpg' height='90'> <img id='selected' src='G_9.jpg' height='90'> <img src='G_1.jpg' height='90'> <img src='G_5.jpg' height='90'>","4","Learning example 0",""
"","","","","","html-button-response","101","833394","0.0-33.57-0.57-0.57","59","1","2025-01-31 01:17:24","af8d355d56820e421d246a7037deb6e6","4.31.181.234","Mozilla/5.0 (Windows NT 10.0; Win64; x64) AppleWebKit/537.36 (KHTML, like Gecko) Chrome/132.0.0.0 Safari/537.36 Edg/132.0.0.0","WebKit","Edge","132.0.0.0","Windows","10.0","https://app.prolific.com/","en-US,en;q=0.9","655e3d32d5562c5520717cfc","67949641171f97c04e14fb34","679c2436e969c54bb7ecc907","","773","<img  src='G_7.jpg' height='90'> <img id='selected'  src='G_3.jpg' height='90'> <img id='selected' src='G_9.jpg' height='90'> <img src='G_1.jpg' height='90'> <img src='G_5.jpg' height='90'>","2","Learning example 0",""
"","","","","","html-button-response","102","833731","0.0-33.58-0.58-0.58","59","1","2025-01-31 01:17:24","af8d355d56820e421d246a7037deb6e6","4.31.181.234","Mozilla/5.0 (Windows NT 10.0; Win64; x64) AppleWebKit/537.36 (KHTML, like Gecko) Chrome/132.0.0.0 Safari/537.36 Edg/132.0.0.0","WebKit","Edge","132.0.0.0","Windows","10.0","https://app.prolific.com/","en-US,en;q=0.9","655e3d32d5562c5520717cfc","67949641171f97c04e14fb34","679c2436e969c54bb7ecc907","","334","<img  src='G_7.jpg' height='90'> <img id='selected'  src='G_3.jpg' height='90'> <img id='selected' src='G_9.jpg' height='90'> <img src='G_1.jpg' height='90'> <img src='G_5.jpg' height='90'>","1","Learning example 0",""
"","","","","","html-button-response","103","833946","0.0-34.0","59","1","2025-01-31 01:17:24","af8d355d56820e421d246a7037deb6e6","4.31.181.234","Mozilla/5.0 (Windows NT 10.0; Win64; x64) AppleWebKit/537.36 (KHTML, like Gecko) Chrome/132.0.0.0 Safari/537.36 Edg/132.0.0.0","WebKit","Edge","132.0.0.0","Windows","10.0","https://app.prolific.com/","en-US,en;q=0.9","655e3d32d5562c5520717cfc","67949641171f97c04e14fb34","679c2436e969c54bb7ecc907","","null","<img  src='G_7.jpg' height='90'> <img   src='G_3.jpg' height='90'> <img  src='G_9.jpg' height='90'> <img src='G_1.jpg' height='90'> <img src='G_5.jpg' height='90'>","null","Learning example 0",""
"","","","","","html-button-response","104","834362","0.0-35.0","59","1","2025-01-31 01:17:24","af8d355d56820e421d246a7037deb6e6","4.31.181.234","Mozilla/5.0 (Windows NT 10.0; Win64; x64) AppleWebKit/537.36 (KHTML, like Gecko) Chrome/132.0.0.0 Safari/537.36 Edg/132.0.0.0","WebKit","Edge","132.0.0.0","Windows","10.0","https://app.prolific.com/","en-US,en;q=0.9","655e3d32d5562c5520717cfc","67949641171f97c04e14fb34","679c2436e969c54bb7ecc907","","null","<img  src='G_7.jpg' height='90'> <img   src='G_3.jpg' height='90'> <img id='selected'  src='G_9.jpg' height='90'> <img src='G_1.jpg' height='90'> <img src='G_5.jpg' height='90'>","null","Learning example 0",""
"","","","","","html-button-response","105","834681","0.0-36.0","59","1","2025-01-31 01:17:24","af8d355d56820e421d246a7037deb6e6","4.31.181.234","Mozilla/5.0 (Windows NT 10.0; Win64; x64) AppleWebKit/537.36 (KHTML, like Gecko) Chrome/132.0.0.0 Safari/537.36 Edg/132.0.0.0","WebKit","Edge","132.0.0.0","Windows","10.0","https://app.prolific.com/","en-US,en;q=0.9","655e3d32d5562c5520717cfc","67949641171f97c04e14fb34","679c2436e969c54bb7ecc907","","null","<img  src='G_7.jpg' height='90'> <img   src='G_3.jpg' height='90'> <img id='selected'  src='G_9.jpg' height='90'> <img id='selected' src='G_1.jpg' height='90'> <img src='G_5.jpg' height='90'>","null","Learning example 0",""
"","","","","","html-button-response","106","834985","0.0-37.0","59","1","2025-01-31 01:17:24","af8d355d56820e421d246a7037deb6e6","4.31.181.234","Mozilla/5.0 (Windows NT 10.0; Win64; x64) AppleWebKit/537.36 (KHTML, like Gecko) Chrome/132.0.0.0 Safari/537.36 Edg/132.0.0.0","WebKit","Edge","132.0.0.0","Windows","10.0","https://app.prolific.com/","en-US,en;q=0.9","655e3d32d5562c5520717cfc","67949641171f97c04e14fb34","679c2436e969c54bb7ecc907","","null","<img  src='G_7.jpg' height='90'> <img   src='G_3.jpg' height='90'> <img id='selected'  src='G_9.jpg' height='90'> <img id='selected' src='G_1.jpg' height='90'> <img src='G_5.jpg' height='90'>","null","Learning example 0",""
"","","","","","html-button-response","107","838243","0.0-38.0-0.0-0.0","59","1","2025-01-31 01:17:24","af8d355d56820e421d246a7037deb6e6","4.31.181.234","Mozilla/5.0 (Windows NT 10.0; Win64; x64) AppleWebKit/537.36 (KHTML, like Gecko) Chrome/132.0.0.0 Safari/537.36 Edg/132.0.0.0","WebKit","Edge","132.0.0.0","Windows","10.0","https://app.prolific.com/","en-US,en;q=0.9","655e3d32d5562c5520717cfc","67949641171f97c04e14fb34","679c2436e969c54bb7ecc907","","3249","<img  src='G_7.jpg' height='90'> <img   src='G_3.jpg' height='90'> <img id='selected'  src='G_9.jpg' height='90'> <img id='selected' src='G_1.jpg' height='90'> <img src='G_5.jpg' height='90'>","3","Learning example 0",""
"","","","","","html-button-response","108","839516","0.0-38.1-0.1-0.1","59","1","2025-01-31 01:17:24","af8d355d56820e421d246a7037deb6e6","4.31.181.234","Mozilla/5.0 (Windows NT 10.0; Win64; x64) AppleWebKit/537.36 (KHTML, like Gecko) Chrome/132.0.0.0 Safari/537.36 Edg/132.0.0.0","WebKit","Edge","132.0.0.0","Windows","10.0","https://app.prolific.com/","en-US,en;q=0.9","655e3d32d5562c5520717cfc","67949641171f97c04e14fb34","679c2436e969c54bb7ecc907","","1270","<img  src='G_7.jpg' height='90'> <img   src='G_3.jpg' height='90'> <img id='selected'  src='G_9.jpg' height='90'> <img id='selected' src='G_1.jpg' height='90'> <img src='G_5.jpg' height='90'>","4","Learning example 0",""
"","","","","","html-button-response","109","841011","0.0-38.2-0.2-0.2","59","1","2025-01-31 01:17:24","af8d355d56820e421d246a7037deb6e6","4.31.181.234","Mozilla/5.0 (Windows NT 10.0; Win64; x64) AppleWebKit/537.36 (KHTML, like Gecko) Chrome/132.0.0.0 Safari/537.36 Edg/132.0.0.0","WebKit","Edge","132.0.0.0","Windows","10.0","https://app.prolific.com/","en-US,en;q=0.9","655e3d32d5562c5520717cfc","67949641171f97c04e14fb34","679c2436e969c54bb7ecc907","","1492","<img  src='G_7.jpg' height='90'> <img   src='G_3.jpg' height='90'> <img id='selected'  src='G_9.jpg' height='90'> <img id='selected' src='G_1.jpg' height='90'> <img src='G_5.jpg' height='90'>","2","Learning example 0",""
"","","","","","html-button-response","110","844563","0.0-38.3-0.3-0.3","59","1","2025-01-31 01:17:24","af8d355d56820e421d246a7037deb6e6","4.31.181.234","Mozilla/5.0 (Windows NT 10.0; Win64; x64) AppleWebKit/537.36 (KHTML, like Gecko) Chrome/132.0.0.0 Safari/537.36 Edg/132.0.0.0","WebKit","Edge","132.0.0.0","Windows","10.0","https://app.prolific.com/","en-US,en;q=0.9","655e3d32d5562c5520717cfc","67949641171f97c04e14fb34","679c2436e969c54bb7ecc907","","3549","<img  src='G_7.jpg' height='90'> <img   src='G_3.jpg' height='90'> <img id='selected'  src='G_9.jpg' height='90'> <img id='selected' src='G_1.jpg' height='90'> <img src='G_5.jpg' height='90'>","1","Learning example 0",""
"","","","","","html-button-response","111","850938","0.0-38.4-0.4-0.4","59","1","2025-01-31 01:17:24","af8d355d56820e421d246a7037deb6e6","4.31.181.234","Mozilla/5.0 (Windows NT 10.0; Win64; x64) AppleWebKit/537.36 (KHTML, like Gecko) Chrome/132.0.0.0 Safari/537.36 Edg/132.0.0.0","WebKit","Edge","132.0.0.0","Windows","10.0","https://app.prolific.com/","en-US,en;q=0.9","655e3d32d5562c5520717cfc","67949641171f97c04e14fb34","679c2436e969c54bb7ecc907","","6372","<img  src='G_7.jpg' height='90'> <img   src='G_3.jpg' height='90'> <img id='selected'  src='G_9.jpg' height='90'> <img id='selected' src='G_1.jpg' height='90'> <img src='G_5.jpg' height='90'>","3","Learning example 0",""
"","","","","","html-button-response","112","851499","0.0-38.5-0.5-0.5","59","1","2025-01-31 01:17:24","af8d355d56820e421d246a7037deb6e6","4.31.181.234","Mozilla/5.0 (Windows NT 10.0; Win64; x64) AppleWebKit/537.36 (KHTML, like Gecko) Chrome/132.0.0.0 Safari/537.36 Edg/132.0.0.0","WebKit","Edge","132.0.0.0","Windows","10.0","https://app.prolific.com/","en-US,en;q=0.9","655e3d32d5562c5520717cfc","67949641171f97c04e14fb34","679c2436e969c54bb7ecc907","","558","<img  src='G_7.jpg' height='90'> <img   src='G_3.jpg' height='90'> <img id='selected'  src='G_9.jpg' height='90'> <img id='selected' src='G_1.jpg' height='90'> <img src='G_5.jpg' height='90'>","2","Learning example 0",""
"","","","","","html-button-response","113","851713","0.0-39.0","59","1","2025-01-31 01:17:24","af8d355d56820e421d246a7037deb6e6","4.31.181.234","Mozilla/5.0 (Windows NT 10.0; Win64; x64) AppleWebKit/537.36 (KHTML, like Gecko) Chrome/132.0.0.0 Safari/537.36 Edg/132.0.0.0","WebKit","Edge","132.0.0.0","Windows","10.0","https://app.prolific.com/","en-US,en;q=0.9","655e3d32d5562c5520717cfc","67949641171f97c04e14fb34","679c2436e969c54bb7ecc907","","null","<img  src='G_7.jpg' height='90'> <img   src='G_3.jpg' height='90'> <img   src='G_9.jpg' height='90'> <img  src='G_1.jpg' height='90'> <img src='G_5.jpg' height='90'>","null","Learning example 0",""
"","","","","","html-button-response","114","852122","0.0-40.0","59","1","2025-01-31 01:17:24","af8d355d56820e421d246a7037deb6e6","4.31.181.234","Mozilla/5.0 (Windows NT 10.0; Win64; x64) AppleWebKit/537.36 (KHTML, like Gecko) Chrome/132.0.0.0 Safari/537.36 Edg/132.0.0.0","WebKit","Edge","132.0.0.0","Windows","10.0","https://app.prolific.com/","en-US,en;q=0.9","655e3d32d5562c5520717cfc","67949641171f97c04e14fb34","679c2436e969c54bb7ecc907","","null","<img  src='G_7.jpg' height='90'> <img   src='G_3.jpg' height='90'> <img   src='G_9.jpg' height='90'> <img id='selected'  src='G_1.jpg' height='90'> <img src='G_5.jpg' height='90'>","null","Learning example 0",""
"","","","","","html-button-response","115","852442","0.0-41.0","59","1","2025-01-31 01:17:24","af8d355d56820e421d246a7037deb6e6","4.31.181.234","Mozilla/5.0 (Windows NT 10.0; Win64; x64) AppleWebKit/537.36 (KHTML, like Gecko) Chrome/132.0.0.0 Safari/537.36 Edg/132.0.0.0","WebKit","Edge","132.0.0.0","Windows","10.0","https://app.prolific.com/","en-US,en;q=0.9","655e3d32d5562c5520717cfc","67949641171f97c04e14fb34","679c2436e969c54bb7ecc907","","null","<img  src='G_7.jpg' height='90'> <img   src='G_3.jpg' height='90'> <img   src='G_9.jpg' height='90'> <img id='selected'  src='G_1.jpg' height='90'> <img id='selected' src='G_5.jpg' height='90'>","null","Learning example 0",""
"","","","","","html-button-response","116","852758","0.0-42.0","59","1","2025-01-31 01:17:24","af8d355d56820e421d246a7037deb6e6","4.31.181.234","Mozilla/5.0 (Windows NT 10.0; Win64; x64) AppleWebKit/537.36 (KHTML, like Gecko) Chrome/132.0.0.0 Safari/537.36 Edg/132.0.0.0","WebKit","Edge","132.0.0.0","Windows","10.0","https://app.prolific.com/","en-US,en;q=0.9","655e3d32d5562c5520717cfc","67949641171f97c04e14fb34","679c2436e969c54bb7ecc907","","null","<img  src='G_7.jpg' height='90'> <img   src='G_3.jpg' height='90'> <img   src='G_9.jpg' height='90'> <img id='selected'  src='G_1.jpg' height='90'> <img id='selected' src='G_5.jpg' height='90'>","null","Learning example 0",""
"","","","","","html-button-response","117","855747","0.0-43.0-0.0-0.0","59","1","2025-01-31 01:17:24","af8d355d56820e421d246a7037deb6e6","4.31.181.234","Mozilla/5.0 (Windows NT 10.0; Win64; x64) AppleWebKit/537.36 (KHTML, like Gecko) Chrome/132.0.0.0 Safari/537.36 Edg/132.0.0.0","WebKit","Edge","132.0.0.0","Windows","10.0","https://app.prolific.com/","en-US,en;q=0.9","655e3d32d5562c5520717cfc","67949641171f97c04e14fb34","679c2436e969c54bb7ecc907","","2983","<img  src='G_7.jpg' height='90'> <img   src='G_3.jpg' height='90'> <img   src='G_9.jpg' height='90'> <img id='selected'  src='G_1.jpg' height='90'> <img id='selected' src='G_5.jpg' height='90'>","0","Learning example 0",""
"","","","","","html-button-response","118","858299","0.0-43.1-0.1-0.1","59","1","2025-01-31 01:17:24","af8d355d56820e421d246a7037deb6e6","4.31.181.234","Mozilla/5.0 (Windows NT 10.0; Win64; x64) AppleWebKit/537.36 (KHTML, like Gecko) Chrome/132.0.0.0 Safari/537.36 Edg/132.0.0.0","WebKit","Edge","132.0.0.0","Windows","10.0","https://app.prolific.com/","en-US,en;q=0.9","655e3d32d5562c5520717cfc","67949641171f97c04e14fb34","679c2436e969c54bb7ecc907","","2549","<img  src='G_7.jpg' height='90'> <img   src='G_3.jpg' height='90'> <img   src='G_9.jpg' height='90'> <img id='selected'  src='G_1.jpg' height='90'> <img id='selected' src='G_5.jpg' height='90'>","1","Learning example 0",""
"","","","","","html-button-response","119","858691","0.0-43.2-0.2-0.2","59","1","2025-01-31 01:17:24","af8d355d56820e421d246a7037deb6e6","4.31.181.234","Mozilla/5.0 (Windows NT 10.0; Win64; x64) AppleWebKit/537.36 (KHTML, like Gecko) Chrome/132.0.0.0 Safari/537.36 Edg/132.0.0.0","WebKit","Edge","132.0.0.0","Windows","10.0","https://app.prolific.com/","en-US,en;q=0.9","655e3d32d5562c5520717cfc","67949641171f97c04e14fb34","679c2436e969c54bb7ecc907","","390","<img  src='G_7.jpg' height='90'> <img   src='G_3.jpg' height='90'> <img   src='G_9.jpg' height='90'> <img id='selected'  src='G_1.jpg' height='90'> <img id='selected' src='G_5.jpg' height='90'>","2","Learning example 0",""
"","","","","","html-button-response","120","859580","0.0-43.3-0.3-0.3","59","1","2025-01-31 01:17:24","af8d355d56820e421d246a7037deb6e6","4.31.181.234","Mozilla/5.0 (Windows NT 10.0; Win64; x64) AppleWebKit/537.36 (KHTML, like Gecko) Chrome/132.0.0.0 Safari/537.36 Edg/132.0.0.0","WebKit","Edge","132.0.0.0","Windows","10.0","https://app.prolific.com/","en-US,en;q=0.9","655e3d32d5562c5520717cfc","67949641171f97c04e14fb34","679c2436e969c54bb7ecc907","","886","<img  src='G_7.jpg' height='90'> <img   src='G_3.jpg' height='90'> <img   src='G_9.jpg' height='90'> <img id='selected'  src='G_1.jpg' height='90'> <img id='selected' src='G_5.jpg' height='90'>","3","Learning example 0",""
"","","","","","html-button-response","121","860035","0.0-43.4-0.4-0.4","59","1","2025-01-31 01:17:24","af8d355d56820e421d246a7037deb6e6","4.31.181.234","Mozilla/5.0 (Windows NT 10.0; Win64; x64) AppleWebKit/537.36 (KHTML, like Gecko) Chrome/132.0.0.0 Safari/537.36 Edg/132.0.0.0","WebKit","Edge","132.0.0.0","Windows","10.0","https://app.prolific.com/","en-US,en;q=0.9","655e3d32d5562c5520717cfc","67949641171f97c04e14fb34","679c2436e969c54bb7ecc907","","452","<img  src='G_7.jpg' height='90'> <img   src='G_3.jpg' height='90'> <img   src='G_9.jpg' height='90'> <img id='selected'  src='G_1.jpg' height='90'> <img id='selected' src='G_5.jpg' height='90'>","4","Learning example 0",""
"","","","","","html-button-response","122","860239","0.0-44.0","59","1","2025-01-31 01:17:24","af8d355d56820e421d246a7037deb6e6","4.31.181.234","Mozilla/5.0 (Windows NT 10.0; Win64; x64) AppleWebKit/537.36 (KHTML, like Gecko) Chrome/132.0.0.0 Safari/537.36 Edg/132.0.0.0","WebKit","Edge","132.0.0.0","Windows","10.0","https://app.prolific.com/","en-US,en;q=0.9","655e3d32d5562c5520717cfc","67949641171f97c04e14fb34","679c2436e969c54bb7ecc907","","null","<img  src='G_7.jpg' height='90'> <img   src='G_3.jpg' height='90'> <img   src='G_9.jpg' height='90'> <img   src='G_1.jpg' height='90'> <img  src='G_5.jpg' height='90'>","null","Learning example 0",""
"","","","","","html-keyboard-response","123","863694","0.0-45.0","59","1","2025-01-31 01:17:24","af8d355d56820e421d246a7037deb6e6","4.31.181.234","Mozilla/5.0 (Windows NT 10.0; Win64; x64) AppleWebKit/537.36 (KHTML, like Gecko) Chrome/132.0.0.0 Safari/537.36 Edg/132.0.0.0","WebKit","Edge","132.0.0.0","Windows","10.0","https://app.prolific.com/","en-US,en;q=0.9","655e3d32d5562c5520717cfc","67949641171f97c04e14fb34","679c2436e969c54bb7ecc907","","3452","[""Final order was 1,2,3,4,5. The initial order was 2,1,3,4,5.<br>It took 1 swaps to sort it correctly with Omgne Sort. <br><br>Press Enter to continue.""]","enter","",""
"","","","","","html-keyboard-response","124","983354","0.0-46.0","59","1","2025-01-31 01:17:24","af8d355d56820e421d246a7037deb6e6","4.31.181.234","Mozilla/5.0 (Windows NT 10.0; Win64; x64) AppleWebKit/537.36 (KHTML, like Gecko) Chrome/132.0.0.0 Safari/537.36 Edg/132.0.0.0","WebKit","Edge","132.0.0.0","Windows","10.0","https://app.prolific.com/","en-US,en;q=0.9","655e3d32d5562c5520717cfc","67949641171f97c04e14fb34","679c2436e969c54bb7ecc907","","119658","[""Example 2<br><br>You will watch Omnge Sort in action. Try to identify any patterns in the comparisons made by this method. <br><br>Press Enter to continue.""]","enter","",""
"","","","","","html-keyboard-response","125","983861","0.0-47.0","59","1","2025-01-31 01:17:24","af8d355d56820e421d246a7037deb6e6","4.31.181.234","Mozilla/5.0 (Windows NT 10.0; Win64; x64) AppleWebKit/537.36 (KHTML, like Gecko) Chrome/132.0.0.0 Safari/537.36 Edg/132.0.0.0","WebKit","Edge","132.0.0.0","Windows","10.0","https://app.prolific.com/","en-US,en;q=0.9","655e3d32d5562c5520717cfc","67949641171f97c04e14fb34","679c2436e969c54bb7ecc907","","null","<img id='selected' src='G_1.jpg' height='90'> <img src='G_5.jpg' height='90'> <img src='G_4.jpg' height='90'> <img src='G_8.jpg' height='90'> <img src='G_2.jpg' height='90'> <img src='G_7.jpg' height='90'> <img src='G_3.jpg' height='90'> <img src='G_6.jpg' height='90'>","null","Animation1",""
"","","","","","html-keyboard-response","126","984370","0.0-48.0","59","1","2025-01-31 01:17:24","af8d355d56820e421d246a7037deb6e6","4.31.181.234","Mozilla/5.0 (Windows NT 10.0; Win64; x64) AppleWebKit/537.36 (KHTML, like Gecko) Chrome/132.0.0.0 Safari/537.36 Edg/132.0.0.0","WebKit","Edge","132.0.0.0","Windows","10.0","https://app.prolific.com/","en-US,en;q=0.9","655e3d32d5562c5520717cfc","67949641171f97c04e14fb34","679c2436e969c54bb7ecc907","","null","<img id='selected' src='G_1.jpg' height='90'> <img id='selected' src='G_5.jpg' height='90'> <img src='G_4.jpg' height='90'> <img src='G_8.jpg' height='90'> <img src='G_2.jpg' height='90'> <img src='G_7.jpg' height='90'> <img src='G_3.jpg' height='90'> <img src='G_6.jpg' height='90'>","null","Animation1",""
"","","","","","html-keyboard-response","127","984883","0.0-49.0","59","1","2025-01-31 01:17:24","af8d355d56820e421d246a7037deb6e6","4.31.181.234","Mozilla/5.0 (Windows NT 10.0; Win64; x64) AppleWebKit/537.36 (KHTML, like Gecko) Chrome/132.0.0.0 Safari/537.36 Edg/132.0.0.0","WebKit","Edge","132.0.0.0","Windows","10.0","https://app.prolific.com/","en-US,en;q=0.9","655e3d32d5562c5520717cfc","67949641171f97c04e14fb34","679c2436e969c54bb7ecc907","","null","<img id='selected' src='G_1.jpg' height='90'> <img id='selected' src='G_5.jpg' height='90'> <img src='G_4.jpg' height='90'> <img src='G_8.jpg' height='90'> <img src='G_2.jpg' height='90'> <img src='G_7.jpg' height='90'> <img src='G_3.jpg' height='90'> <img src='G_6.jpg' height='90'>","null","Animation1",""
"","","","","","html-keyboard-response","128","985196","0.0-50.0","59","1","2025-01-31 01:17:24","af8d355d56820e421d246a7037deb6e6","4.31.181.234","Mozilla/5.0 (Windows NT 10.0; Win64; x64) AppleWebKit/537.36 (KHTML, like Gecko) Chrome/132.0.0.0 Safari/537.36 Edg/132.0.0.0","WebKit","Edge","132.0.0.0","Windows","10.0","https://app.prolific.com/","en-US,en;q=0.9","655e3d32d5562c5520717cfc","67949641171f97c04e14fb34","679c2436e969c54bb7ecc907","","null","<img  src='G_1.jpg' height='90'> <img  src='G_5.jpg' height='90'> <img src='G_4.jpg' height='90'> <img src='G_8.jpg' height='90'> <img src='G_2.jpg' height='90'> <img src='G_7.jpg' height='90'> <img src='G_3.jpg' height='90'> <img src='G_6.jpg' height='90'>","null","Animation1",""
"","","","","","html-keyboard-response","129","985703","0.0-51.0","59","1","2025-01-31 01:17:24","af8d355d56820e421d246a7037deb6e6","4.31.181.234","Mozilla/5.0 (Windows NT 10.0; Win64; x64) AppleWebKit/537.36 (KHTML, like Gecko) Chrome/132.0.0.0 Safari/537.36 Edg/132.0.0.0","WebKit","Edge","132.0.0.0","Windows","10.0","https://app.prolific.com/","en-US,en;q=0.9","655e3d32d5562c5520717cfc","67949641171f97c04e14fb34","679c2436e969c54bb7ecc907","","null","<img  src='G_1.jpg' height='90'> <img id='selected'  src='G_5.jpg' height='90'> <img src='G_4.jpg' height='90'> <img src='G_8.jpg' height='90'> <img src='G_2.jpg' height='90'> <img src='G_7.jpg' height='90'> <img src='G_3.jpg' height='90'> <img src='G_6.jpg' height='90'>","null","Animation1",""
"","","","","","html-keyboard-response","130","986217","0.0-52.0","59","1","2025-01-31 01:17:24","af8d355d56820e421d246a7037deb6e6","4.31.181.234","Mozilla/5.0 (Windows NT 10.0; Win64; x64) AppleWebKit/537.36 (KHTML, like Gecko) Chrome/132.0.0.0 Safari/537.36 Edg/132.0.0.0","WebKit","Edge","132.0.0.0","Windows","10.0","https://app.prolific.com/","en-US,en;q=0.9","655e3d32d5562c5520717cfc","67949641171f97c04e14fb34","679c2436e969c54bb7ecc907","","null","<img  src='G_1.jpg' height='90'> <img id='selected'  src='G_5.jpg' height='90'> <img id='selected' src='G_4.jpg' height='90'> <img src='G_8.jpg' height='90'> <img src='G_2.jpg' height='90'> <img src='G_7.jpg' height='90'> <img src='G_3.jpg' height='90'> <img src='G_6.jpg' height='90'>","null","Animation1",""
"","","","","","html-keyboard-response","131","986732","0.0-53.0","59","1","2025-01-31 01:17:24","af8d355d56820e421d246a7037deb6e6","4.31.181.234","Mozilla/5.0 (Windows NT 10.0; Win64; x64) AppleWebKit/537.36 (KHTML, like Gecko) Chrome/132.0.0.0 Safari/537.36 Edg/132.0.0.0","WebKit","Edge","132.0.0.0","Windows","10.0","https://app.prolific.com/","en-US,en;q=0.9","655e3d32d5562c5520717cfc","67949641171f97c04e14fb34","679c2436e969c54bb7ecc907","","null","<img  src='G_1.jpg' height='90'> <img id='swapped' src='G_4.jpg' height='90'> <img id='swapped'  src='G_5.jpg' height='90'> <img src='G_8.jpg' height='90'> <img src='G_2.jpg' height='90'> <img src='G_7.jpg' height='90'> <img src='G_3.jpg' height='90'> <img src='G_6.jpg' height='90'>","null","Animation1",""
"","","","","","html-keyboard-response","132","987047","0.0-54.0","59","1","2025-01-31 01:17:24","af8d355d56820e421d246a7037deb6e6","4.31.181.234","Mozilla/5.0 (Windows NT 10.0; Win64; x64) AppleWebKit/537.36 (KHTML, like Gecko) Chrome/132.0.0.0 Safari/537.36 Edg/132.0.0.0","WebKit","Edge","132.0.0.0","Windows","10.0","https://app.prolific.com/","en-US,en;q=0.9","655e3d32d5562c5520717cfc","67949641171f97c04e14fb34","679c2436e969c54bb7ecc907","","null","<img  src='G_1.jpg' height='90'> <img  src='G_4.jpg' height='90'> <img   src='G_5.jpg' height='90'> <img src='G_8.jpg' height='90'> <img src='G_2.jpg' height='90'> <img src='G_7.jpg' height='90'> <img src='G_3.jpg' height='90'> <img src='G_6.jpg' height='90'>","null","Animation1",""
"","","","","","html-keyboard-response","133","987551","0.0-55.0","59","1","2025-01-31 01:17:24","af8d355d56820e421d246a7037deb6e6","4.31.181.234","Mozilla/5.0 (Windows NT 10.0; Win64; x64) AppleWebKit/537.36 (KHTML, like Gecko) Chrome/132.0.0.0 Safari/537.36 Edg/132.0.0.0","WebKit","Edge","132.0.0.0","Windows","10.0","https://app.prolific.com/","en-US,en;q=0.9","655e3d32d5562c5520717cfc","67949641171f97c04e14fb34","679c2436e969c54bb7ecc907","","null","<img id='selected'  src='G_1.jpg' height='90'> <img  src='G_4.jpg' height='90'> <img   src='G_5.jpg' height='90'> <img src='G_8.jpg' height='90'> <img src='G_2.jpg' height='90'> <img src='G_7.jpg' height='90'> <img src='G_3.jpg' height='90'> <img src='G_6.jpg' height='90'>","null","Animation1",""
"","","","","","html-keyboard-response","134","988066","0.0-56.0","59","1","2025-01-31 01:17:24","af8d355d56820e421d246a7037deb6e6","4.31.181.234","Mozilla/5.0 (Windows NT 10.0; Win64; x64) AppleWebKit/537.36 (KHTML, like Gecko) Chrome/132.0.0.0 Safari/537.36 Edg/132.0.0.0","WebKit","Edge","132.0.0.0","Windows","10.0","https://app.prolific.com/","en-US,en;q=0.9","655e3d32d5562c5520717cfc","67949641171f97c04e14fb34","679c2436e969c54bb7ecc907","","null","<img id='selected'  src='G_1.jpg' height='90'> <img id='selected'  src='G_4.jpg' height='90'> <img   src='G_5.jpg' height='90'> <img src='G_8.jpg' height='90'> <img src='G_2.jpg' height='90'> <img src='G_7.jpg' height='90'> <img src='G_3.jpg' height='90'> <img src='G_6.jpg' height='90'>","null","Animation1",""
"","","","","","html-keyboard-response","135","988583","0.0-57.0","59","1","2025-01-31 01:17:24","af8d355d56820e421d246a7037deb6e6","4.31.181.234","Mozilla/5.0 (Windows NT 10.0; Win64; x64) AppleWebKit/537.36 (KHTML, like Gecko) Chrome/132.0.0.0 Safari/537.36 Edg/132.0.0.0","WebKit","Edge","132.0.0.0","Windows","10.0","https://app.prolific.com/","en-US,en;q=0.9","655e3d32d5562c5520717cfc","67949641171f97c04e14fb34","679c2436e969c54bb7ecc907","","null","<img id='swapped'  src='G_4.jpg' height='90'> <img id='swapped'  src='G_1.jpg' height='90'> <img   src='G_5.jpg' height='90'> <img src='G_8.jpg' height='90'> <img src='G_2.jpg' height='90'> <img src='G_7.jpg' height='90'> <img src='G_3.jpg' height='90'> <img src='G_6.jpg' height='90'>","null","Animation1",""
"","","","","","html-keyboard-response","136","988897","0.0-58.0","59","1","2025-01-31 01:17:24","af8d355d56820e421d246a7037deb6e6","4.31.181.234","Mozilla/5.0 (Windows NT 10.0; Win64; x64) AppleWebKit/537.36 (KHTML, like Gecko) Chrome/132.0.0.0 Safari/537.36 Edg/132.0.0.0","WebKit","Edge","132.0.0.0","Windows","10.0","https://app.prolific.com/","en-US,en;q=0.9","655e3d32d5562c5520717cfc","67949641171f97c04e14fb34","679c2436e969c54bb7ecc907","","null","<img   src='G_4.jpg' height='90'> <img   src='G_1.jpg' height='90'> <img   src='G_5.jpg' height='90'> <img src='G_8.jpg' height='90'> <img src='G_2.jpg' height='90'> <img src='G_7.jpg' height='90'> <img src='G_3.jpg' height='90'> <img src='G_6.jpg' height='90'>","null","Animation1",""
"","","","","","html-keyboard-response","137","989417","0.0-59.0","59","1","2025-01-31 01:17:24","af8d355d56820e421d246a7037deb6e6","4.31.181.234","Mozilla/5.0 (Windows NT 10.0; Win64; x64) AppleWebKit/537.36 (KHTML, like Gecko) Chrome/132.0.0.0 Safari/537.36 Edg/132.0.0.0","WebKit","Edge","132.0.0.0","Windows","10.0","https://app.prolific.com/","en-US,en;q=0.9","655e3d32d5562c5520717cfc","67949641171f97c04e14fb34","679c2436e969c54bb7ecc907","","null","<img   src='G_4.jpg' height='90'> <img   src='G_1.jpg' height='90'> <img id='selected'   src='G_5.jpg' height='90'> <img src='G_8.jpg' height='90'> <img src='G_2.jpg' height='90'> <img src='G_7.jpg' height='90'> <img src='G_3.jpg' height='90'> <img src='G_6.jpg' height='90'>","null","Animation1",""
"","","","","","html-keyboard-response","138","989933","0.0-60.0","59","1","2025-01-31 01:17:24","af8d355d56820e421d246a7037deb6e6","4.31.181.234","Mozilla/5.0 (Windows NT 10.0; Win64; x64) AppleWebKit/537.36 (KHTML, like Gecko) Chrome/132.0.0.0 Safari/537.36 Edg/132.0.0.0","WebKit","Edge","132.0.0.0","Windows","10.0","https://app.prolific.com/","en-US,en;q=0.9","655e3d32d5562c5520717cfc","67949641171f97c04e14fb34","679c2436e969c54bb7ecc907","","null","<img   src='G_4.jpg' height='90'> <img   src='G_1.jpg' height='90'> <img id='selected'   src='G_5.jpg' height='90'> <img id='selected' src='G_8.jpg' height='90'> <img src='G_2.jpg' height='90'> <img src='G_7.jpg' height='90'> <img src='G_3.jpg' height='90'> <img src='G_6.jpg' height='90'>","null","Animation1",""
"","","","","","html-keyboard-response","139","990455","0.0-61.0","59","1","2025-01-31 01:17:24","af8d355d56820e421d246a7037deb6e6","4.31.181.234","Mozilla/5.0 (Windows NT 10.0; Win64; x64) AppleWebKit/537.36 (KHTML, like Gecko) Chrome/132.0.0.0 Safari/537.36 Edg/132.0.0.0","WebKit","Edge","132.0.0.0","Windows","10.0","https://app.prolific.com/","en-US,en;q=0.9","655e3d32d5562c5520717cfc","67949641171f97c04e14fb34","679c2436e969c54bb7ecc907","","null","<img   src='G_4.jpg' height='90'> <img   src='G_1.jpg' height='90'> <img id='swapped' src='G_8.jpg' height='90'> <img id='swapped'   src='G_5.jpg' height='90'> <img src='G_2.jpg' height='90'> <img src='G_7.jpg' height='90'> <img src='G_3.jpg' height='90'> <img src='G_6.jpg' height='90'>","null","Animation1",""
"","","","","","html-keyboard-response","140","990764","0.0-62.0","59","1","2025-01-31 01:17:24","af8d355d56820e421d246a7037deb6e6","4.31.181.234","Mozilla/5.0 (Windows NT 10.0; Win64; x64) AppleWebKit/537.36 (KHTML, like Gecko) Chrome/132.0.0.0 Safari/537.36 Edg/132.0.0.0","WebKit","Edge","132.0.0.0","Windows","10.0","https://app.prolific.com/","en-US,en;q=0.9","655e3d32d5562c5520717cfc","67949641171f97c04e14fb34","679c2436e969c54bb7ecc907","","null","<img   src='G_4.jpg' height='90'> <img   src='G_1.jpg' height='90'> <img  src='G_8.jpg' height='90'> <img    src='G_5.jpg' height='90'> <img src='G_2.jpg' height='90'> <img src='G_7.jpg' height='90'> <img src='G_3.jpg' height='90'> <img src='G_6.jpg' height='90'>","null","Animation1",""
"","","","","","html-keyboard-response","141","991267","0.0-63.0","59","1","2025-01-31 01:17:24","af8d355d56820e421d246a7037deb6e6","4.31.181.234","Mozilla/5.0 (Windows NT 10.0; Win64; x64) AppleWebKit/537.36 (KHTML, like Gecko) Chrome/132.0.0.0 Safari/537.36 Edg/132.0.0.0","WebKit","Edge","132.0.0.0","Windows","10.0","https://app.prolific.com/","en-US,en;q=0.9","655e3d32d5562c5520717cfc","67949641171f97c04e14fb34","679c2436e969c54bb7ecc907","","null","<img   src='G_4.jpg' height='90'> <img id='selected'   src='G_1.jpg' height='90'> <img  src='G_8.jpg' height='90'> <img    src='G_5.jpg' height='90'> <img src='G_2.jpg' height='90'> <img src='G_7.jpg' height='90'> <img src='G_3.jpg' height='90'> <img src='G_6.jpg' height='90'>","null","Animation1",""
"","","","","","html-keyboard-response","142","991785","0.0-64.0","59","1","2025-01-31 01:17:24","af8d355d56820e421d246a7037deb6e6","4.31.181.234","Mozilla/5.0 (Windows NT 10.0; Win64; x64) AppleWebKit/537.36 (KHTML, like Gecko) Chrome/132.0.0.0 Safari/537.36 Edg/132.0.0.0","WebKit","Edge","132.0.0.0","Windows","10.0","https://app.prolific.com/","en-US,en;q=0.9","655e3d32d5562c5520717cfc","67949641171f97c04e14fb34","679c2436e969c54bb7ecc907","","null","<img   src='G_4.jpg' height='90'> <img id='selected'   src='G_1.jpg' height='90'> <img id='selected'  src='G_8.jpg' height='90'> <img    src='G_5.jpg' height='90'> <img src='G_2.jpg' height='90'> <img src='G_7.jpg' height='90'> <img src='G_3.jpg' height='90'> <img src='G_6.jpg' height='90'>","null","Animation1",""
"","","","","","html-keyboard-response","143","992300","0.0-65.0","59","1","2025-01-31 01:17:24","af8d355d56820e421d246a7037deb6e6","4.31.181.234","Mozilla/5.0 (Windows NT 10.0; Win64; x64) AppleWebKit/537.36 (KHTML, like Gecko) Chrome/132.0.0.0 Safari/537.36 Edg/132.0.0.0","WebKit","Edge","132.0.0.0","Windows","10.0","https://app.prolific.com/","en-US,en;q=0.9","655e3d32d5562c5520717cfc","67949641171f97c04e14fb34","679c2436e969c54bb7ecc907","","null","<img   src='G_4.jpg' height='90'> <img id='swapped'  src='G_8.jpg' height='90'> <img id='swapped'   src='G_1.jpg' height='90'> <img    src='G_5.jpg' height='90'> <img src='G_2.jpg' height='90'> <img src='G_7.jpg' height='90'> <img src='G_3.jpg' height='90'> <img src='G_6.jpg' height='90'>","null","Animation1",""
"","","","","","html-keyboard-response","144","992615","0.0-66.0","59","1","2025-01-31 01:17:24","af8d355d56820e421d246a7037deb6e6","4.31.181.234","Mozilla/5.0 (Windows NT 10.0; Win64; x64) AppleWebKit/537.36 (KHTML, like Gecko) Chrome/132.0.0.0 Safari/537.36 Edg/132.0.0.0","WebKit","Edge","132.0.0.0","Windows","10.0","https://app.prolific.com/","en-US,en;q=0.9","655e3d32d5562c5520717cfc","67949641171f97c04e14fb34","679c2436e969c54bb7ecc907","","null","<img   src='G_4.jpg' height='90'> <img   src='G_8.jpg' height='90'> <img    src='G_1.jpg' height='90'> <img    src='G_5.jpg' height='90'> <img src='G_2.jpg' height='90'> <img src='G_7.jpg' height='90'> <img src='G_3.jpg' height='90'> <img src='G_6.jpg' height='90'>","null","Animation1",""
"","","","","","html-keyboard-response","145","993133","0.0-67.0","59","1","2025-01-31 01:17:24","af8d355d56820e421d246a7037deb6e6","4.31.181.234","Mozilla/5.0 (Windows NT 10.0; Win64; x64) AppleWebKit/537.36 (KHTML, like Gecko) Chrome/132.0.0.0 Safari/537.36 Edg/132.0.0.0","WebKit","Edge","132.0.0.0","Windows","10.0","https://app.prolific.com/","en-US,en;q=0.9","655e3d32d5562c5520717cfc","67949641171f97c04e14fb34","679c2436e969c54bb7ecc907","","null","<img id='selected'   src='G_4.jpg' height='90'> <img   src='G_8.jpg' height='90'> <img    src='G_1.jpg' height='90'> <img    src='G_5.jpg' height='90'> <img src='G_2.jpg' height='90'> <img src='G_7.jpg' height='90'> <img src='G_3.jpg' height='90'> <img src='G_6.jpg' height='90'>","null","Animation1",""
"","","","","","html-keyboard-response","146","993651","0.0-68.0","59","1","2025-01-31 01:17:24","af8d355d56820e421d246a7037deb6e6","4.31.181.234","Mozilla/5.0 (Windows NT 10.0; Win64; x64) AppleWebKit/537.36 (KHTML, like Gecko) Chrome/132.0.0.0 Safari/537.36 Edg/132.0.0.0","WebKit","Edge","132.0.0.0","Windows","10.0","https://app.prolific.com/","en-US,en;q=0.9","655e3d32d5562c5520717cfc","67949641171f97c04e14fb34","679c2436e969c54bb7ecc907","","null","<img id='selected'   src='G_4.jpg' height='90'> <img id='selected'   src='G_8.jpg' height='90'> <img    src='G_1.jpg' height='90'> <img    src='G_5.jpg' height='90'> <img src='G_2.jpg' height='90'> <img src='G_7.jpg' height='90'> <img src='G_3.jpg' height='90'> <img src='G_6.jpg' height='90'>","null","Animation1",""
"","","","","","html-keyboard-response","147","994168","0.0-69.0","59","1","2025-01-31 01:17:24","af8d355d56820e421d246a7037deb6e6","4.31.181.234","Mozilla/5.0 (Windows NT 10.0; Win64; x64) AppleWebKit/537.36 (KHTML, like Gecko) Chrome/132.0.0.0 Safari/537.36 Edg/132.0.0.0","WebKit","Edge","132.0.0.0","Windows","10.0","https://app.prolific.com/","en-US,en;q=0.9","655e3d32d5562c5520717cfc","67949641171f97c04e14fb34","679c2436e969c54bb7ecc907","","null","<img id='swapped'   src='G_8.jpg' height='90'> <img id='swapped'   src='G_4.jpg' height='90'> <img    src='G_1.jpg' height='90'> <img    src='G_5.jpg' height='90'> <img src='G_2.jpg' height='90'> <img src='G_7.jpg' height='90'> <img src='G_3.jpg' height='90'> <img src='G_6.jpg' height='90'>","null","Animation1",""
