"success","timeout","failed_images","failed_audio","failed_video","trial_type","trial_index","time_elapsed","internal_node_id","run_id","condition","recorded_at","source_code_version","ip","user_agent","device","browser","browser_version","platform","platform_version","referer","accept_language","PROLIFIC_PID","STUDY_ID","SESSION_ID","view_history","rt","stimulus","response","phase","question_order"
"true","false","[]","[]","[]","preload","0","818","0.0-0.0","60","1","2025-01-31 01:17:26","af8d355d56820e421d246a7037deb6e6","75.248.89.36","Mozilla/5.0 (Windows NT 10.0; Win64; x64; rv:134.0) Gecko/20100101 Firefox/134.0","","Firefox","134.0","Windows","10.0","https://app.prolific.com/","en-US,en;q=0.5","5e8f53644b34ff22d9b3a1c5","67949641171f97c04e14fb34","679c243359ab7d5053211f49","","","","","",""
"","","","","","instructions","1","30443","0.0-1.0","60","1","2025-01-31 01:17:26","af8d355d56820e421d246a7037deb6e6","75.248.89.36","Mozilla/5.0 (Windows NT 10.0; Win64; x64; rv:134.0) Gecko/20100101 Firefox/134.0","","Firefox","134.0","Windows","10.0","https://app.prolific.com/","en-US,en;q=0.5","5e8f53644b34ff22d9b3a1c5","67949641171f97c04e14fb34","679c243359ab7d5053211f49","[{""page_index"":0,""viewing_time"":29623}]","29623","","","",""
"","","","","","html-keyboard-response","2","30954","0.0-2.0","60","1","2025-01-31 01:17:26","af8d355d56820e421d246a7037deb6e6","75.248.89.36","Mozilla/5.0 (Windows NT 10.0; Win64; x64; rv:134.0) Gecko/20100101 Firefox/134.0","","Firefox","134.0","Windows","10.0","https://app.prolific.com/","en-US,en;q=0.5","5e8f53644b34ff22d9b3a1c5","67949641171f97c04e14fb34","679c243359ab7d5053211f49","","null","<p> + <p/>","null","",""
"","","","","","instructions","3","114582","0.0-3.0","60","1","2025-01-31 01:17:26","af8d355d56820e421d246a7037deb6e6","75.248.89.36","Mozilla/5.0 (Windows NT 10.0; Win64; x64; rv:134.0) Gecko/20100101 Firefox/134.0","","Firefox","134.0","Windows","10.0","https://app.prolific.com/","en-US,en;q=0.5","5e8f53644b34ff22d9b3a1c5","67949641171f97c04e14fb34","679c243359ab7d5053211f49","[{""page_index"":0,""viewing_time"":2808},{""page_index"":1,""viewing_time"":9939},{""page_index"":2,""viewing_time"":59368},{""page_index"":3,""viewing_time"":4383},{""page_index"":4,""viewing_time"":7129}]","83627","","","",""
"","","","","","html-button-response","4","123391","0.0-4.0-0.0-0.0","60","1","2025-01-31 01:17:26","af8d355d56820e421d246a7037deb6e6","75.248.89.36","Mozilla/5.0 (Windows NT 10.0; Win64; x64; rv:134.0) Gecko/20100101 Firefox/134.0","","Firefox","134.0","Windows","10.0","https://app.prolific.com/","en-US,en;q=0.5","5e8f53644b34ff22d9b3a1c5","67949641171f97c04e14fb34","679c243359ab7d5053211f49","","8805","","0","Intro Trial",""
"","","","","","html-button-response","5","124296","0.0-4.1-0.1-0.1","60","1","2025-01-31 01:17:26","af8d355d56820e421d246a7037deb6e6","75.248.89.36","Mozilla/5.0 (Windows NT 10.0; Win64; x64; rv:134.0) Gecko/20100101 Firefox/134.0","","Firefox","134.0","Windows","10.0","https://app.prolific.com/","en-US,en;q=0.5","5e8f53644b34ff22d9b3a1c5","67949641171f97c04e14fb34","679c243359ab7d5053211f49","","903","","3","Intro Trial",""
"","","","","","html-button-response","6","143181","0.0-4.2-0.2-0.2","60","1","2025-01-31 01:17:26","af8d355d56820e421d246a7037deb6e6","75.248.89.36","Mozilla/5.0 (Windows NT 10.0; Win64; x64; rv:134.0) Gecko/20100101 Firefox/134.0","","Firefox","134.0","Windows","10.0","https://app.prolific.com/","en-US,en;q=0.5","5e8f53644b34ff22d9b3a1c5","67949641171f97c04e14fb34","679c243359ab7d5053211f49","","18882","","4","Intro Trial",""
"","","","","","html-button-response","7","144059","0.0-4.3-0.3-0.3","60","1","2025-01-31 01:17:26","af8d355d56820e421d246a7037deb6e6","75.248.89.36","Mozilla/5.0 (Windows NT 10.0; Win64; x64; rv:134.0) Gecko/20100101 Firefox/134.0","","Firefox","134.0","Windows","10.0","https://app.prolific.com/","en-US,en;q=0.5","5e8f53644b34ff22d9b3a1c5","67949641171f97c04e14fb34","679c243359ab7d5053211f49","","874","","4","Intro Trial",""
"","","","","","html-button-response","8","145091","0.0-4.4-0.4-0.4","60","1","2025-01-31 01:17:26","af8d355d56820e421d246a7037deb6e6","75.248.89.36","Mozilla/5.0 (Windows NT 10.0; Win64; x64; rv:134.0) Gecko/20100101 Firefox/134.0","","Firefox","134.0","Windows","10.0","https://app.prolific.com/","en-US,en;q=0.5","5e8f53644b34ff22d9b3a1c5","67949641171f97c04e14fb34","679c243359ab7d5053211f49","","1030","","4","Intro Trial",""
"","","","","","html-button-response","9","145614","0.0-4.5-0.5-0.5","60","1","2025-01-31 01:17:26","af8d355d56820e421d246a7037deb6e6","75.248.89.36","Mozilla/5.0 (Windows NT 10.0; Win64; x64; rv:134.0) Gecko/20100101 Firefox/134.0","","Firefox","134.0","Windows","10.0","https://app.prolific.com/","en-US,en;q=0.5","5e8f53644b34ff22d9b3a1c5","67949641171f97c04e14fb34","679c243359ab7d5053211f49","","519","","4","Intro Trial",""
"","","","","","html-button-response","10","147587","0.0-4.6-0.6-0.6","60","1","2025-01-31 01:17:26","af8d355d56820e421d246a7037deb6e6","75.248.89.36","Mozilla/5.0 (Windows NT 10.0; Win64; x64; rv:134.0) Gecko/20100101 Firefox/134.0","","Firefox","134.0","Windows","10.0","https://app.prolific.com/","en-US,en;q=0.5","5e8f53644b34ff22d9b3a1c5","67949641171f97c04e14fb34","679c243359ab7d5053211f49","","1972","","2","Intro Trial",""
"","","","","","html-button-response","11","150722","0.0-4.7-0.7-0.7","60","1","2025-01-31 01:17:26","af8d355d56820e421d246a7037deb6e6","75.248.89.36","Mozilla/5.0 (Windows NT 10.0; Win64; x64; rv:134.0) Gecko/20100101 Firefox/134.0","","Firefox","134.0","Windows","10.0","https://app.prolific.com/","en-US,en;q=0.5","5e8f53644b34ff22d9b3a1c5","67949641171f97c04e14fb34","679c243359ab7d5053211f49","","3132","","4","Intro Trial",""
"","","","","","html-button-response","12","154570","0.0-4.8-0.8-0.8","60","1","2025-01-31 01:17:26","af8d355d56820e421d246a7037deb6e6","75.248.89.36","Mozilla/5.0 (Windows NT 10.0; Win64; x64; rv:134.0) Gecko/20100101 Firefox/134.0","","Firefox","134.0","Windows","10.0","https://app.prolific.com/","en-US,en;q=0.5","5e8f53644b34ff22d9b3a1c5","67949641171f97c04e14fb34","679c243359ab7d5053211f49","","3846","","2","Intro Trial",""
"","","","","","html-button-response","13","155772","0.0-4.9-0.9-0.9","60","1","2025-01-31 01:17:26","af8d355d56820e421d246a7037deb6e6","75.248.89.36","Mozilla/5.0 (Windows NT 10.0; Win64; x64; rv:134.0) Gecko/20100101 Firefox/134.0","","Firefox","134.0","Windows","10.0","https://app.prolific.com/","en-US,en;q=0.5","5e8f53644b34ff22d9b3a1c5","67949641171f97c04e14fb34","679c243359ab7d5053211f49","","1200","","3","Intro Trial",""
"","","","","","html-button-response","14","156882","0.0-4.10-0.10-0.10","60","1","2025-01-31 01:17:26","af8d355d56820e421d246a7037deb6e6","75.248.89.36","Mozilla/5.0 (Windows NT 10.0; Win64; x64; rv:134.0) Gecko/20100101 Firefox/134.0","","Firefox","134.0","Windows","10.0","https://app.prolific.com/","en-US,en;q=0.5","5e8f53644b34ff22d9b3a1c5","67949641171f97c04e14fb34","679c243359ab7d5053211f49","","1107","","2","Intro Trial",""
"","","","","","html-button-response","15","157823","0.0-4.11-0.11-0.11","60","1","2025-01-31 01:17:26","af8d355d56820e421d246a7037deb6e6","75.248.89.36","Mozilla/5.0 (Windows NT 10.0; Win64; x64; rv:134.0) Gecko/20100101 Firefox/134.0","","Firefox","134.0","Windows","10.0","https://app.prolific.com/","en-US,en;q=0.5","5e8f53644b34ff22d9b3a1c5","67949641171f97c04e14fb34","679c243359ab7d5053211f49","","940","","3","Intro Trial",""
"","","","","","html-button-response","16","158821","0.0-4.12-0.12-0.12","60","1","2025-01-31 01:17:26","af8d355d56820e421d246a7037deb6e6","75.248.89.36","Mozilla/5.0 (Windows NT 10.0; Win64; x64; rv:134.0) Gecko/20100101 Firefox/134.0","","Firefox","134.0","Windows","10.0","https://app.prolific.com/","en-US,en;q=0.5","5e8f53644b34ff22d9b3a1c5","67949641171f97c04e14fb34","679c243359ab7d5053211f49","","995","","2","Intro Trial",""
"","","","","","html-button-response","17","159591","0.0-4.13-0.13-0.13","60","1","2025-01-31 01:17:26","af8d355d56820e421d246a7037deb6e6","75.248.89.36","Mozilla/5.0 (Windows NT 10.0; Win64; x64; rv:134.0) Gecko/20100101 Firefox/134.0","","Firefox","134.0","Windows","10.0","https://app.prolific.com/","en-US,en;q=0.5","5e8f53644b34ff22d9b3a1c5","67949641171f97c04e14fb34","679c243359ab7d5053211f49","","769","","3","Intro Trial",""
"","","","","","html-button-response","18","160610","0.0-4.14-0.14-0.14","60","1","2025-01-31 01:17:26","af8d355d56820e421d246a7037deb6e6","75.248.89.36","Mozilla/5.0 (Windows NT 10.0; Win64; x64; rv:134.0) Gecko/20100101 Firefox/134.0","","Firefox","134.0","Windows","10.0","https://app.prolific.com/","en-US,en;q=0.5","5e8f53644b34ff22d9b3a1c5","67949641171f97c04e14fb34","679c243359ab7d5053211f49","","1017","","2","Intro Trial",""
"","","","","","html-button-response","19","161289","0.0-4.15-0.15-0.15","60","1","2025-01-31 01:17:26","af8d355d56820e421d246a7037deb6e6","75.248.89.36","Mozilla/5.0 (Windows NT 10.0; Win64; x64; rv:134.0) Gecko/20100101 Firefox/134.0","","Firefox","134.0","Windows","10.0","https://app.prolific.com/","en-US,en;q=0.5","5e8f53644b34ff22d9b3a1c5","67949641171f97c04e14fb34","679c243359ab7d5053211f49","","678","","3","Intro Trial",""
"","","","","","html-button-response","20","162279","0.0-4.16-0.16-0.16","60","1","2025-01-31 01:17:26","af8d355d56820e421d246a7037deb6e6","75.248.89.36","Mozilla/5.0 (Windows NT 10.0; Win64; x64; rv:134.0) Gecko/20100101 Firefox/134.0","","Firefox","134.0","Windows","10.0","https://app.prolific.com/","en-US,en;q=0.5","5e8f53644b34ff22d9b3a1c5","67949641171f97c04e14fb34","679c243359ab7d5053211f49","","987","","2","Intro Trial",""
"","","","","","html-button-response","21","163050","0.0-4.17-0.17-0.17","60","1","2025-01-31 01:17:26","af8d355d56820e421d246a7037deb6e6","75.248.89.36","Mozilla/5.0 (Windows NT 10.0; Win64; x64; rv:134.0) Gecko/20100101 Firefox/134.0","","Firefox","134.0","Windows","10.0","https://app.prolific.com/","en-US,en;q=0.5","5e8f53644b34ff22d9b3a1c5","67949641171f97c04e14fb34","679c243359ab7d5053211f49","","770","","3","Intro Trial",""
"","","","","","html-button-response","22","164890","0.0-4.18-0.18-0.18","60","1","2025-01-31 01:17:26","af8d355d56820e421d246a7037deb6e6","75.248.89.36","Mozilla/5.0 (Windows NT 10.0; Win64; x64; rv:134.0) Gecko/20100101 Firefox/134.0","","Firefox","134.0","Windows","10.0","https://app.prolific.com/","en-US,en;q=0.5","5e8f53644b34ff22d9b3a1c5","67949641171f97c04e14fb34","679c243359ab7d5053211f49","","1838","","2","Intro Trial",""
"","","","","","html-button-response","23","165752","0.0-4.19-0.19-0.19","60","1","2025-01-31 01:17:26","af8d355d56820e421d246a7037deb6e6","75.248.89.36","Mozilla/5.0 (Windows NT 10.0; Win64; x64; rv:134.0) Gecko/20100101 Firefox/134.0","","Firefox","134.0","Windows","10.0","https://app.prolific.com/","en-US,en;q=0.5","5e8f53644b34ff22d9b3a1c5","67949641171f97c04e14fb34","679c243359ab7d5053211f49","","861","","3","Intro Trial",""
"","","","","","html-button-response","24","167069","0.0-4.20-0.20-0.20","60","1","2025-01-31 01:17:26","af8d355d56820e421d246a7037deb6e6","75.248.89.36","Mozilla/5.0 (Windows NT 10.0; Win64; x64; rv:134.0) Gecko/20100101 Firefox/134.0","","Firefox","134.0","Windows","10.0","https://app.prolific.com/","en-US,en;q=0.5","5e8f53644b34ff22d9b3a1c5","67949641171f97c04e14fb34","679c243359ab7d5053211f49","","1315","","2","Intro Trial",""
"","","","","","html-button-response","25","167946","0.0-4.21-0.21-0.21","60","1","2025-01-31 01:17:26","af8d355d56820e421d246a7037deb6e6","75.248.89.36","Mozilla/5.0 (Windows NT 10.0; Win64; x64; rv:134.0) Gecko/20100101 Firefox/134.0","","Firefox","134.0","Windows","10.0","https://app.prolific.com/","en-US,en;q=0.5","5e8f53644b34ff22d9b3a1c5","67949641171f97c04e14fb34","679c243359ab7d5053211f49","","875","","3","Intro Trial",""
"","","","","","html-button-response","26","172246","0.0-4.22-0.22-0.22","60","1","2025-01-31 01:17:26","af8d355d56820e421d246a7037deb6e6","75.248.89.36","Mozilla/5.0 (Windows NT 10.0; Win64; x64; rv:134.0) Gecko/20100101 Firefox/134.0","","Firefox","134.0","Windows","10.0","https://app.prolific.com/","en-US,en;q=0.5","5e8f53644b34ff22d9b3a1c5","67949641171f97c04e14fb34","679c243359ab7d5053211f49","","4298","","3","Intro Trial",""
"","","","","","html-button-response","27","173045","0.0-4.23-0.23-0.23","60","1","2025-01-31 01:17:26","af8d355d56820e421d246a7037deb6e6","75.248.89.36","Mozilla/5.0 (Windows NT 10.0; Win64; x64; rv:134.0) Gecko/20100101 Firefox/134.0","","Firefox","134.0","Windows","10.0","https://app.prolific.com/","en-US,en;q=0.5","5e8f53644b34ff22d9b3a1c5","67949641171f97c04e14fb34","679c243359ab7d5053211f49","","797","","2","Intro Trial",""
"","","","","","html-button-response","28","174482","0.0-4.24-0.24-0.24","60","1","2025-01-31 01:17:26","af8d355d56820e421d246a7037deb6e6","75.248.89.36","Mozilla/5.0 (Windows NT 10.0; Win64; x64; rv:134.0) Gecko/20100101 Firefox/134.0","","Firefox","134.0","Windows","10.0","https://app.prolific.com/","en-US,en;q=0.5","5e8f53644b34ff22d9b3a1c5","67949641171f97c04e14fb34","679c243359ab7d5053211f49","","1433","","3","Intro Trial",""
"","","","","","html-button-response","29","175422","0.0-4.25-0.25-0.25","60","1","2025-01-31 01:17:26","af8d355d56820e421d246a7037deb6e6","75.248.89.36","Mozilla/5.0 (Windows NT 10.0; Win64; x64; rv:134.0) Gecko/20100101 Firefox/134.0","","Firefox","134.0","Windows","10.0","https://app.prolific.com/","en-US,en;q=0.5","5e8f53644b34ff22d9b3a1c5","67949641171f97c04e14fb34","679c243359ab7d5053211f49","","939","","2","Intro Trial",""
"","","","","","html-button-response","30","176618","0.0-4.26-0.26-0.26","60","1","2025-01-31 01:17:26","af8d355d56820e421d246a7037deb6e6","75.248.89.36","Mozilla/5.0 (Windows NT 10.0; Win64; x64; rv:134.0) Gecko/20100101 Firefox/134.0","","Firefox","134.0","Windows","10.0","https://app.prolific.com/","en-US,en;q=0.5","5e8f53644b34ff22d9b3a1c5","67949641171f97c04e14fb34","679c243359ab7d5053211f49","","1194","","3","Intro Trial",""
"","","","","","html-button-response","31","178209","0.0-4.27-0.27-0.27","60","1","2025-01-31 01:17:26","af8d355d56820e421d246a7037deb6e6","75.248.89.36","Mozilla/5.0 (Windows NT 10.0; Win64; x64; rv:134.0) Gecko/20100101 Firefox/134.0","","Firefox","134.0","Windows","10.0","https://app.prolific.com/","en-US,en;q=0.5","5e8f53644b34ff22d9b3a1c5","67949641171f97c04e14fb34","679c243359ab7d5053211f49","","1589","","2","Intro Trial",""
"","","","","","html-button-response","32","179192","0.0-4.28-0.28-0.28","60","1","2025-01-31 01:17:26","af8d355d56820e421d246a7037deb6e6","75.248.89.36","Mozilla/5.0 (Windows NT 10.0; Win64; x64; rv:134.0) Gecko/20100101 Firefox/134.0","","Firefox","134.0","Windows","10.0","https://app.prolific.com/","en-US,en;q=0.5","5e8f53644b34ff22d9b3a1c5","67949641171f97c04e14fb34","679c243359ab7d5053211f49","","980","","3","Intro Trial",""
"","","","","","html-button-response","33","180040","0.0-4.29-0.29-0.29","60","1","2025-01-31 01:17:26","af8d355d56820e421d246a7037deb6e6","75.248.89.36","Mozilla/5.0 (Windows NT 10.0; Win64; x64; rv:134.0) Gecko/20100101 Firefox/134.0","","Firefox","134.0","Windows","10.0","https://app.prolific.com/","en-US,en;q=0.5","5e8f53644b34ff22d9b3a1c5","67949641171f97c04e14fb34","679c243359ab7d5053211f49","","847","","2","Intro Trial",""
"","","","","","html-button-response","34","181434","0.0-4.30-0.30-0.30","60","1","2025-01-31 01:17:26","af8d355d56820e421d246a7037deb6e6","75.248.89.36","Mozilla/5.0 (Windows NT 10.0; Win64; x64; rv:134.0) Gecko/20100101 Firefox/134.0","","Firefox","134.0","Windows","10.0","https://app.prolific.com/","en-US,en;q=0.5","5e8f53644b34ff22d9b3a1c5","67949641171f97c04e14fb34","679c243359ab7d5053211f49","","1392","","3","Intro Trial",""
"","","","","","html-button-response","35","182262","0.0-4.31-0.31-0.31","60","1","2025-01-31 01:17:26","af8d355d56820e421d246a7037deb6e6","75.248.89.36","Mozilla/5.0 (Windows NT 10.0; Win64; x64; rv:134.0) Gecko/20100101 Firefox/134.0","","Firefox","134.0","Windows","10.0","https://app.prolific.com/","en-US,en;q=0.5","5e8f53644b34ff22d9b3a1c5","67949641171f97c04e14fb34","679c243359ab7d5053211f49","","826","","2","Intro Trial",""
"","","","","","html-button-response","36","184292","0.0-4.32-0.32-0.32","60","1","2025-01-31 01:17:26","af8d355d56820e421d246a7037deb6e6","75.248.89.36","Mozilla/5.0 (Windows NT 10.0; Win64; x64; rv:134.0) Gecko/20100101 Firefox/134.0","","Firefox","134.0","Windows","10.0","https://app.prolific.com/","en-US,en;q=0.5","5e8f53644b34ff22d9b3a1c5","67949641171f97c04e14fb34","679c243359ab7d5053211f49","","2027","","5","Intro Trial",""
"","","","","","html-keyboard-response","37","194791","0.0-5.0","60","1","2025-01-31 01:17:26","af8d355d56820e421d246a7037deb6e6","75.248.89.36","Mozilla/5.0 (Windows NT 10.0; Win64; x64; rv:134.0) Gecko/20100101 Firefox/134.0","","Firefox","134.0","Windows","10.0","https://app.prolific.com/","en-US,en;q=0.5","5e8f53644b34ff22d9b3a1c5","67949641171f97c04e14fb34","679c243359ab7d5053211f49","","10495","[""You sorted incorrectly by using the balance 14 times. <br><br> <img src='G_1.jpg' height='90'><img src='G_2.jpg' height='90'><img src='G_5.jpg' height='90'><img src='G_4.jpg' height='90'><img src='G_3.jpg' height='90'><br><br> Your final order is 4,2,1,5,3<br><br><br>Omgne Sort in this game will allow you to sort correctly by using the balance 8 times. Press Enter to learn it!""]","enter","",""
"","","","","","html-keyboard-response","38","198743","0.0-6.0","60","1","2025-01-31 01:17:26","af8d355d56820e421d246a7037deb6e6","75.248.89.36","Mozilla/5.0 (Windows NT 10.0; Win64; x64; rv:134.0) Gecko/20100101 Firefox/134.0","","Firefox","134.0","Windows","10.0","https://app.prolific.com/","en-US,en;q=0.5","5e8f53644b34ff22d9b3a1c5","67949641171f97c04e14fb34","679c243359ab7d5053211f49","","3947","<p>Welcome to the learning phase! <br><br> You will learn by six examples. The following learning trials will not be used to calculate your performance. <br><br> Press Enter to continue.<p/>","enter","",""
"","","","","","html-keyboard-response","39","203358","0.0-7.0","60","1","2025-01-31 01:17:26","af8d355d56820e421d246a7037deb6e6","75.248.89.36","Mozilla/5.0 (Windows NT 10.0; Win64; x64; rv:134.0) Gecko/20100101 Firefox/134.0","","Firefox","134.0","Windows","10.0","https://app.prolific.com/","en-US,en;q=0.5","5e8f53644b34ff22d9b3a1c5","67949641171f97c04e14fb34","679c243359ab7d5053211f49","","4612","[""Example 1<br><br>You will watch Omnge Sort in action. Try to identify any patterns in the comparisons made by this method. <br><br>Press Enter to continue.""]","enter","",""
"","","","","","html-keyboard-response","40","203861","0.0-8.0","60","1","2025-01-31 01:17:26","af8d355d56820e421d246a7037deb6e6","75.248.89.36","Mozilla/5.0 (Windows NT 10.0; Win64; x64; rv:134.0) Gecko/20100101 Firefox/134.0","","Firefox","134.0","Windows","10.0","https://app.prolific.com/","en-US,en;q=0.5","5e8f53644b34ff22d9b3a1c5","67949641171f97c04e14fb34","679c243359ab7d5053211f49","","null","<img id='selected' src='G_3.jpg' height='90'> <img src='G_1.jpg' height='90'> <img src='G_9.jpg' height='90'> <img src='G_7.jpg' height='90'> <img src='G_5.jpg' height='90'>","null","Animation0",""
"","","","","","html-keyboard-response","41","204366","0.0-9.0","60","1","2025-01-31 01:17:26","af8d355d56820e421d246a7037deb6e6","75.248.89.36","Mozilla/5.0 (Windows NT 10.0; Win64; x64; rv:134.0) Gecko/20100101 Firefox/134.0","","Firefox","134.0","Windows","10.0","https://app.prolific.com/","en-US,en;q=0.5","5e8f53644b34ff22d9b3a1c5","67949641171f97c04e14fb34","679c243359ab7d5053211f49","","null","<img id='selected' src='G_3.jpg' height='90'> <img id='selected' src='G_1.jpg' height='90'> <img src='G_9.jpg' height='90'> <img src='G_7.jpg' height='90'> <img src='G_5.jpg' height='90'>","null","Animation0",""
"","","","","","html-keyboard-response","42","204875","0.0-10.0","60","1","2025-01-31 01:17:26","af8d355d56820e421d246a7037deb6e6","75.248.89.36","Mozilla/5.0 (Windows NT 10.0; Win64; x64; rv:134.0) Gecko/20100101 Firefox/134.0","","Firefox","134.0","Windows","10.0","https://app.prolific.com/","en-US,en;q=0.5","5e8f53644b34ff22d9b3a1c5","67949641171f97c04e14fb34","679c243359ab7d5053211f49","","null","<img id='swapped' src='G_1.jpg' height='90'> <img id='swapped' src='G_3.jpg' height='90'> <img src='G_9.jpg' height='90'> <img src='G_7.jpg' height='90'> <img src='G_5.jpg' height='90'>","null","Animation0",""
"","","","","","html-keyboard-response","43","205188","0.0-11.0","60","1","2025-01-31 01:17:26","af8d355d56820e421d246a7037deb6e6","75.248.89.36","Mozilla/5.0 (Windows NT 10.0; Win64; x64; rv:134.0) Gecko/20100101 Firefox/134.0","","Firefox","134.0","Windows","10.0","https://app.prolific.com/","en-US,en;q=0.5","5e8f53644b34ff22d9b3a1c5","67949641171f97c04e14fb34","679c243359ab7d5053211f49","","null","<img  src='G_1.jpg' height='90'> <img  src='G_3.jpg' height='90'> <img src='G_9.jpg' height='90'> <img src='G_7.jpg' height='90'> <img src='G_5.jpg' height='90'>","null","Animation0",""
"","","","","","html-keyboard-response","44","205700","0.0-12.0","60","1","2025-01-31 01:17:26","af8d355d56820e421d246a7037deb6e6","75.248.89.36","Mozilla/5.0 (Windows NT 10.0; Win64; x64; rv:134.0) Gecko/20100101 Firefox/134.0","","Firefox","134.0","Windows","10.0","https://app.prolific.com/","en-US,en;q=0.5","5e8f53644b34ff22d9b3a1c5","67949641171f97c04e14fb34","679c243359ab7d5053211f49","","null","<img  src='G_1.jpg' height='90'> <img id='selected'  src='G_3.jpg' height='90'> <img src='G_9.jpg' height='90'> <img src='G_7.jpg' height='90'> <img src='G_5.jpg' height='90'>","null","Animation0",""
"","","","","","html-keyboard-response","45","206209","0.0-13.0","60","1","2025-01-31 01:17:26","af8d355d56820e421d246a7037deb6e6","75.248.89.36","Mozilla/5.0 (Windows NT 10.0; Win64; x64; rv:134.0) Gecko/20100101 Firefox/134.0","","Firefox","134.0","Windows","10.0","https://app.prolific.com/","en-US,en;q=0.5","5e8f53644b34ff22d9b3a1c5","67949641171f97c04e14fb34","679c243359ab7d5053211f49","","null","<img  src='G_1.jpg' height='90'> <img id='selected'  src='G_3.jpg' height='90'> <img id='selected' src='G_9.jpg' height='90'> <img src='G_7.jpg' height='90'> <img src='G_5.jpg' height='90'>","null","Animation0",""
"","","","","","html-keyboard-response","46","206722","0.0-14.0","60","1","2025-01-31 01:17:26","af8d355d56820e421d246a7037deb6e6","75.248.89.36","Mozilla/5.0 (Windows NT 10.0; Win64; x64; rv:134.0) Gecko/20100101 Firefox/134.0","","Firefox","134.0","Windows","10.0","https://app.prolific.com/","en-US,en;q=0.5","5e8f53644b34ff22d9b3a1c5","67949641171f97c04e14fb34","679c243359ab7d5053211f49","","null","<img  src='G_1.jpg' height='90'> <img id='selected'  src='G_3.jpg' height='90'> <img id='selected' src='G_9.jpg' height='90'> <img src='G_7.jpg' height='90'> <img src='G_5.jpg' height='90'>","null","Animation0",""
"","","","","","html-keyboard-response","47","207030","0.0-15.0","60","1","2025-01-31 01:17:26","af8d355d56820e421d246a7037deb6e6","75.248.89.36","Mozilla/5.0 (Windows NT 10.0; Win64; x64; rv:134.0) Gecko/20100101 Firefox/134.0","","Firefox","134.0","Windows","10.0","https://app.prolific.com/","en-US,en;q=0.5","5e8f53644b34ff22d9b3a1c5","67949641171f97c04e14fb34","679c243359ab7d5053211f49","","null","<img  src='G_1.jpg' height='90'> <img   src='G_3.jpg' height='90'> <img  src='G_9.jpg' height='90'> <img src='G_7.jpg' height='90'> <img src='G_5.jpg' height='90'>","null","Animation0",""
"","","","","","html-keyboard-response","48","207541","0.0-16.0","60","1","2025-01-31 01:17:26","af8d355d56820e421d246a7037deb6e6","75.248.89.36","Mozilla/5.0 (Windows NT 10.0; Win64; x64; rv:134.0) Gecko/20100101 Firefox/134.0","","Firefox","134.0","Windows","10.0","https://app.prolific.com/","en-US,en;q=0.5","5e8f53644b34ff22d9b3a1c5","67949641171f97c04e14fb34","679c243359ab7d5053211f49","","null","<img  src='G_1.jpg' height='90'> <img   src='G_3.jpg' height='90'> <img id='selected'  src='G_9.jpg' height='90'> <img src='G_7.jpg' height='90'> <img src='G_5.jpg' height='90'>","null","Animation0",""
"","","","","","html-keyboard-response","49","208045","0.0-17.0","60","1","2025-01-31 01:17:26","af8d355d56820e421d246a7037deb6e6","75.248.89.36","Mozilla/5.0 (Windows NT 10.0; Win64; x64; rv:134.0) Gecko/20100101 Firefox/134.0","","Firefox","134.0","Windows","10.0","https://app.prolific.com/","en-US,en;q=0.5","5e8f53644b34ff22d9b3a1c5","67949641171f97c04e14fb34","679c243359ab7d5053211f49","","null","<img  src='G_1.jpg' height='90'> <img   src='G_3.jpg' height='90'> <img id='selected'  src='G_9.jpg' height='90'> <img id='selected' src='G_7.jpg' height='90'> <img src='G_5.jpg' height='90'>","null","Animation0",""
"","","","","","html-keyboard-response","50","208556","0.0-18.0","60","1","2025-01-31 01:17:26","af8d355d56820e421d246a7037deb6e6","75.248.89.36","Mozilla/5.0 (Windows NT 10.0; Win64; x64; rv:134.0) Gecko/20100101 Firefox/134.0","","Firefox","134.0","Windows","10.0","https://app.prolific.com/","en-US,en;q=0.5","5e8f53644b34ff22d9b3a1c5","67949641171f97c04e14fb34","679c243359ab7d5053211f49","","null","<img  src='G_1.jpg' height='90'> <img   src='G_3.jpg' height='90'> <img id='selected'  src='G_9.jpg' height='90'> <img id='selected' src='G_7.jpg' height='90'> <img src='G_5.jpg' height='90'>","null","Animation0",""
"","","","","","html-keyboard-response","51","208864","0.0-19.0","60","1","2025-01-31 01:17:26","af8d355d56820e421d246a7037deb6e6","75.248.89.36","Mozilla/5.0 (Windows NT 10.0; Win64; x64; rv:134.0) Gecko/20100101 Firefox/134.0","","Firefox","134.0","Windows","10.0","https://app.prolific.com/","en-US,en;q=0.5","5e8f53644b34ff22d9b3a1c5","67949641171f97c04e14fb34","679c243359ab7d5053211f49","","null","<img  src='G_1.jpg' height='90'> <img   src='G_3.jpg' height='90'> <img   src='G_9.jpg' height='90'> <img  src='G_7.jpg' height='90'> <img src='G_5.jpg' height='90'>","null","Animation0",""
"","","","","","html-keyboard-response","52","209378","0.0-20.0","60","1","2025-01-31 01:17:26","af8d355d56820e421d246a7037deb6e6","75.248.89.36","Mozilla/5.0 (Windows NT 10.0; Win64; x64; rv:134.0) Gecko/20100101 Firefox/134.0","","Firefox","134.0","Windows","10.0","https://app.prolific.com/","en-US,en;q=0.5","5e8f53644b34ff22d9b3a1c5","67949641171f97c04e14fb34","679c243359ab7d5053211f49","","null","<img  src='G_1.jpg' height='90'> <img   src='G_3.jpg' height='90'> <img   src='G_9.jpg' height='90'> <img id='selected'  src='G_7.jpg' height='90'> <img src='G_5.jpg' height='90'>","null","Animation0",""
"","","","","","html-keyboard-response","53","209886","0.0-21.0","60","1","2025-01-31 01:17:26","af8d355d56820e421d246a7037deb6e6","75.248.89.36","Mozilla/5.0 (Windows NT 10.0; Win64; x64; rv:134.0) Gecko/20100101 Firefox/134.0","","Firefox","134.0","Windows","10.0","https://app.prolific.com/","en-US,en;q=0.5","5e8f53644b34ff22d9b3a1c5","67949641171f97c04e14fb34","679c243359ab7d5053211f49","","null","<img  src='G_1.jpg' height='90'> <img   src='G_3.jpg' height='90'> <img   src='G_9.jpg' height='90'> <img id='selected'  src='G_7.jpg' height='90'> <img id='selected' src='G_5.jpg' height='90'>","null","Animation0",""
"","","","","","html-keyboard-response","54","210393","0.0-22.0","60","1","2025-01-31 01:17:26","af8d355d56820e421d246a7037deb6e6","75.248.89.36","Mozilla/5.0 (Windows NT 10.0; Win64; x64; rv:134.0) Gecko/20100101 Firefox/134.0","","Firefox","134.0","Windows","10.0","https://app.prolific.com/","en-US,en;q=0.5","5e8f53644b34ff22d9b3a1c5","67949641171f97c04e14fb34","679c243359ab7d5053211f49","","null","<img  src='G_1.jpg' height='90'> <img   src='G_3.jpg' height='90'> <img   src='G_9.jpg' height='90'> <img id='selected'  src='G_7.jpg' height='90'> <img id='selected' src='G_5.jpg' height='90'>","null","Animation0",""
"","","","","","html-keyboard-response","55","210702","0.0-23.0","60","1","2025-01-31 01:17:26","af8d355d56820e421d246a7037deb6e6","75.248.89.36","Mozilla/5.0 (Windows NT 10.0; Win64; x64; rv:134.0) Gecko/20100101 Firefox/134.0","","Firefox","134.0","Windows","10.0","https://app.prolific.com/","en-US,en;q=0.5","5e8f53644b34ff22d9b3a1c5","67949641171f97c04e14fb34","679c243359ab7d5053211f49","","null","<img  src='G_1.jpg' height='90'> <img   src='G_3.jpg' height='90'> <img   src='G_9.jpg' height='90'> <img   src='G_7.jpg' height='90'> <img  src='G_5.jpg' height='90'>","null","Animation0",""
"","","","","","html-keyboard-response","56","214436","0.0-24.0","60","1","2025-01-31 01:17:26","af8d355d56820e421d246a7037deb6e6","75.248.89.36","Mozilla/5.0 (Windows NT 10.0; Win64; x64; rv:134.0) Gecko/20100101 Firefox/134.0","","Firefox","134.0","Windows","10.0","https://app.prolific.com/","en-US,en;q=0.5","5e8f53644b34ff22d9b3a1c5","67949641171f97c04e14fb34","679c243359ab7d5053211f49","","3732","[""Did you notice any patterns? <br><br>Press Enter to watch that example again and follow the steps of Omgne Sort.""]","enter","",""
"","","","","","html-button-response","57","214848","0.0-25.0","60","1","2025-01-31 01:17:26","af8d355d56820e421d246a7037deb6e6","75.248.89.36","Mozilla/5.0 (Windows NT 10.0; Win64; x64; rv:134.0) Gecko/20100101 Firefox/134.0","","Firefox","134.0","Windows","10.0","https://app.prolific.com/","en-US,en;q=0.5","5e8f53644b34ff22d9b3a1c5","67949641171f97c04e14fb34","679c243359ab7d5053211f49","","null","<img id='selected' src='G_3.jpg' height='90'> <img src='G_1.jpg' height='90'> <img src='G_9.jpg' height='90'> <img src='G_7.jpg' height='90'> <img src='G_5.jpg' height='90'>","null","Learning example 0",""
"","","","","","html-button-response","58","215156","0.0-26.0","60","1","2025-01-31 01:17:26","af8d355d56820e421d246a7037deb6e6","75.248.89.36","Mozilla/5.0 (Windows NT 10.0; Win64; x64; rv:134.0) Gecko/20100101 Firefox/134.0","","Firefox","134.0","Windows","10.0","https://app.prolific.com/","en-US,en;q=0.5","5e8f53644b34ff22d9b3a1c5","67949641171f97c04e14fb34","679c243359ab7d5053211f49","","null","<img id='selected' src='G_3.jpg' height='90'> <img id='selected' src='G_1.jpg' height='90'> <img src='G_9.jpg' height='90'> <img src='G_7.jpg' height='90'> <img src='G_5.jpg' height='90'>","null","Learning example 0",""
"","","","","","html-button-response","59","215470","0.0-27.0","60","1","2025-01-31 01:17:26","af8d355d56820e421d246a7037deb6e6","75.248.89.36","Mozilla/5.0 (Windows NT 10.0; Win64; x64; rv:134.0) Gecko/20100101 Firefox/134.0","","Firefox","134.0","Windows","10.0","https://app.prolific.com/","en-US,en;q=0.5","5e8f53644b34ff22d9b3a1c5","67949641171f97c04e14fb34","679c243359ab7d5053211f49","","null","<img id='swapped' src='G_1.jpg' height='90'> <img id='swapped' src='G_3.jpg' height='90'> <img src='G_9.jpg' height='90'> <img src='G_7.jpg' height='90'> <img src='G_5.jpg' height='90'>","null","Learning example 0",""
"","","","","","html-button-response","60","224604","0.0-28.0-0.0-0.0","60","1","2025-01-31 01:17:26","af8d355d56820e421d246a7037deb6e6","75.248.89.36","Mozilla/5.0 (Windows NT 10.0; Win64; x64; rv:134.0) Gecko/20100101 Firefox/134.0","","Firefox","134.0","Windows","10.0","https://app.prolific.com/","en-US,en;q=0.5","5e8f53644b34ff22d9b3a1c5","67949641171f97c04e14fb34","679c243359ab7d5053211f49","","9128","<img id='swapped' src='G_1.jpg' height='90'> <img id='swapped' src='G_3.jpg' height='90'> <img src='G_9.jpg' height='90'> <img src='G_7.jpg' height='90'> <img src='G_5.jpg' height='90'>","0","Learning example 0",""
"","","","","","html-button-response","61","225241","0.0-28.1-0.1-0.1","60","1","2025-01-31 01:17:26","af8d355d56820e421d246a7037deb6e6","75.248.89.36","Mozilla/5.0 (Windows NT 10.0; Win64; x64; rv:134.0) Gecko/20100101 Firefox/134.0","","Firefox","134.0","Windows","10.0","https://app.prolific.com/","en-US,en;q=0.5","5e8f53644b34ff22d9b3a1c5","67949641171f97c04e14fb34","679c243359ab7d5053211f49","","633","<img id='swapped' src='G_1.jpg' height='90'> <img id='swapped' src='G_3.jpg' height='90'> <img src='G_9.jpg' height='90'> <img src='G_7.jpg' height='90'> <img src='G_5.jpg' height='90'>","1","Learning example 0",""
"","","","","","html-button-response","62","225451","0.0-29.0","60","1","2025-01-31 01:17:26","af8d355d56820e421d246a7037deb6e6","75.248.89.36","Mozilla/5.0 (Windows NT 10.0; Win64; x64; rv:134.0) Gecko/20100101 Firefox/134.0","","Firefox","134.0","Windows","10.0","https://app.prolific.com/","en-US,en;q=0.5","5e8f53644b34ff22d9b3a1c5","67949641171f97c04e14fb34","679c243359ab7d5053211f49","","null","<img  src='G_1.jpg' height='90'> <img  src='G_3.jpg' height='90'> <img src='G_9.jpg' height='90'> <img src='G_7.jpg' height='90'> <img src='G_5.jpg' height='90'>","null","Learning example 0",""
"","","","","","html-button-response","63","225866","0.0-30.0","60","1","2025-01-31 01:17:26","af8d355d56820e421d246a7037deb6e6","75.248.89.36","Mozilla/5.0 (Windows NT 10.0; Win64; x64; rv:134.0) Gecko/20100101 Firefox/134.0","","Firefox","134.0","Windows","10.0","https://app.prolific.com/","en-US,en;q=0.5","5e8f53644b34ff22d9b3a1c5","67949641171f97c04e14fb34","679c243359ab7d5053211f49","","null","<img  src='G_1.jpg' height='90'> <img id='selected'  src='G_3.jpg' height='90'> <img src='G_9.jpg' height='90'> <img src='G_7.jpg' height='90'> <img src='G_5.jpg' height='90'>","null","Learning example 0",""
"","","","","","html-button-response","64","226173","0.0-31.0","60","1","2025-01-31 01:17:26","af8d355d56820e421d246a7037deb6e6","75.248.89.36","Mozilla/5.0 (Windows NT 10.0; Win64; x64; rv:134.0) Gecko/20100101 Firefox/134.0","","Firefox","134.0","Windows","10.0","https://app.prolific.com/","en-US,en;q=0.5","5e8f53644b34ff22d9b3a1c5","67949641171f97c04e14fb34","679c243359ab7d5053211f49","","null","<img  src='G_1.jpg' height='90'> <img id='selected'  src='G_3.jpg' height='90'> <img id='selected' src='G_9.jpg' height='90'> <img src='G_7.jpg' height='90'> <img src='G_5.jpg' height='90'>","null","Learning example 0",""
"","","","","","html-button-response","65","226482","0.0-32.0","60","1","2025-01-31 01:17:26","af8d355d56820e421d246a7037deb6e6","75.248.89.36","Mozilla/5.0 (Windows NT 10.0; Win64; x64; rv:134.0) Gecko/20100101 Firefox/134.0","","Firefox","134.0","Windows","10.0","https://app.prolific.com/","en-US,en;q=0.5","5e8f53644b34ff22d9b3a1c5","67949641171f97c04e14fb34","679c243359ab7d5053211f49","","null","<img  src='G_1.jpg' height='90'> <img id='selected'  src='G_3.jpg' height='90'> <img id='selected' src='G_9.jpg' height='90'> <img src='G_7.jpg' height='90'> <img src='G_5.jpg' height='90'>","null","Learning example 0",""
"","","","","","html-button-response","66","228318","0.0-33.0-0.0-0.0","60","1","2025-01-31 01:17:26","af8d355d56820e421d246a7037deb6e6","75.248.89.36","Mozilla/5.0 (Windows NT 10.0; Win64; x64; rv:134.0) Gecko/20100101 Firefox/134.0","","Firefox","134.0","Windows","10.0","https://app.prolific.com/","en-US,en;q=0.5","5e8f53644b34ff22d9b3a1c5","67949641171f97c04e14fb34","679c243359ab7d5053211f49","","1832","<img  src='G_1.jpg' height='90'> <img id='selected'  src='G_3.jpg' height='90'> <img id='selected' src='G_9.jpg' height='90'> <img src='G_7.jpg' height='90'> <img src='G_5.jpg' height='90'>","1","Learning example 0",""
"","","","","","html-button-response","67","228997","0.0-33.1-0.1-0.1","60","1","2025-01-31 01:17:26","af8d355d56820e421d246a7037deb6e6","75.248.89.36","Mozilla/5.0 (Windows NT 10.0; Win64; x64; rv:134.0) Gecko/20100101 Firefox/134.0","","Firefox","134.0","Windows","10.0","https://app.prolific.com/","en-US,en;q=0.5","5e8f53644b34ff22d9b3a1c5","67949641171f97c04e14fb34","679c243359ab7d5053211f49","","675","<img  src='G_1.jpg' height='90'> <img id='selected'  src='G_3.jpg' height='90'> <img id='selected' src='G_9.jpg' height='90'> <img src='G_7.jpg' height='90'> <img src='G_5.jpg' height='90'>","2","Learning example 0",""
"","","","","","html-button-response","68","229202","0.0-34.0","60","1","2025-01-31 01:17:26","af8d355d56820e421d246a7037deb6e6","75.248.89.36","Mozilla/5.0 (Windows NT 10.0; Win64; x64; rv:134.0) Gecko/20100101 Firefox/134.0","","Firefox","134.0","Windows","10.0","https://app.prolific.com/","en-US,en;q=0.5","5e8f53644b34ff22d9b3a1c5","67949641171f97c04e14fb34","679c243359ab7d5053211f49","","null","<img  src='G_1.jpg' height='90'> <img   src='G_3.jpg' height='90'> <img  src='G_9.jpg' height='90'> <img src='G_7.jpg' height='90'> <img src='G_5.jpg' height='90'>","null","Learning example 0",""
"","","","","","html-button-response","69","229618","0.0-35.0","60","1","2025-01-31 01:17:26","af8d355d56820e421d246a7037deb6e6","75.248.89.36","Mozilla/5.0 (Windows NT 10.0; Win64; x64; rv:134.0) Gecko/20100101 Firefox/134.0","","Firefox","134.0","Windows","10.0","https://app.prolific.com/","en-US,en;q=0.5","5e8f53644b34ff22d9b3a1c5","67949641171f97c04e14fb34","679c243359ab7d5053211f49","","null","<img  src='G_1.jpg' height='90'> <img   src='G_3.jpg' height='90'> <img id='selected'  src='G_9.jpg' height='90'> <img src='G_7.jpg' height='90'> <img src='G_5.jpg' height='90'>","null","Learning example 0",""
"","","","","","html-button-response","70","229925","0.0-36.0","60","1","2025-01-31 01:17:26","af8d355d56820e421d246a7037deb6e6","75.248.89.36","Mozilla/5.0 (Windows NT 10.0; Win64; x64; rv:134.0) Gecko/20100101 Firefox/134.0","","Firefox","134.0","Windows","10.0","https://app.prolific.com/","en-US,en;q=0.5","5e8f53644b34ff22d9b3a1c5","67949641171f97c04e14fb34","679c243359ab7d5053211f49","","null","<img  src='G_1.jpg' height='90'> <img   src='G_3.jpg' height='90'> <img id='selected'  src='G_9.jpg' height='90'> <img id='selected' src='G_7.jpg' height='90'> <img src='G_5.jpg' height='90'>","null","Learning example 0",""
"","","","","","html-button-response","71","230233","0.0-37.0","60","1","2025-01-31 01:17:26","af8d355d56820e421d246a7037deb6e6","75.248.89.36","Mozilla/5.0 (Windows NT 10.0; Win64; x64; rv:134.0) Gecko/20100101 Firefox/134.0","","Firefox","134.0","Windows","10.0","https://app.prolific.com/","en-US,en;q=0.5","5e8f53644b34ff22d9b3a1c5","67949641171f97c04e14fb34","679c243359ab7d5053211f49","","null","<img  src='G_1.jpg' height='90'> <img   src='G_3.jpg' height='90'> <img id='selected'  src='G_9.jpg' height='90'> <img id='selected' src='G_7.jpg' height='90'> <img src='G_5.jpg' height='90'>","null","Learning example 0",""
"","","","","","html-button-response","72","232201","0.0-38.0-0.0-0.0","60","1","2025-01-31 01:17:26","af8d355d56820e421d246a7037deb6e6","75.248.89.36","Mozilla/5.0 (Windows NT 10.0; Win64; x64; rv:134.0) Gecko/20100101 Firefox/134.0","","Firefox","134.0","Windows","10.0","https://app.prolific.com/","en-US,en;q=0.5","5e8f53644b34ff22d9b3a1c5","67949641171f97c04e14fb34","679c243359ab7d5053211f49","","1966","<img  src='G_1.jpg' height='90'> <img   src='G_3.jpg' height='90'> <img id='selected'  src='G_9.jpg' height='90'> <img id='selected' src='G_7.jpg' height='90'> <img src='G_5.jpg' height='90'>","2","Learning example 0",""
"","","","","","html-button-response","73","233276","0.0-38.1-0.1-0.1","60","1","2025-01-31 01:17:26","af8d355d56820e421d246a7037deb6e6","75.248.89.36","Mozilla/5.0 (Windows NT 10.0; Win64; x64; rv:134.0) Gecko/20100101 Firefox/134.0","","Firefox","134.0","Windows","10.0","https://app.prolific.com/","en-US,en;q=0.5","5e8f53644b34ff22d9b3a1c5","67949641171f97c04e14fb34","679c243359ab7d5053211f49","","1073","<img  src='G_1.jpg' height='90'> <img   src='G_3.jpg' height='90'> <img id='selected'  src='G_9.jpg' height='90'> <img id='selected' src='G_7.jpg' height='90'> <img src='G_5.jpg' height='90'>","3","Learning example 0",""
"","","","","","html-button-response","74","233486","0.0-39.0","60","1","2025-01-31 01:17:26","af8d355d56820e421d246a7037deb6e6","75.248.89.36","Mozilla/5.0 (Windows NT 10.0; Win64; x64; rv:134.0) Gecko/20100101 Firefox/134.0","","Firefox","134.0","Windows","10.0","https://app.prolific.com/","en-US,en;q=0.5","5e8f53644b34ff22d9b3a1c5","67949641171f97c04e14fb34","679c243359ab7d5053211f49","","null","<img  src='G_1.jpg' height='90'> <img   src='G_3.jpg' height='90'> <img   src='G_9.jpg' height='90'> <img  src='G_7.jpg' height='90'> <img src='G_5.jpg' height='90'>","null","Learning example 0",""
"","","","","","html-button-response","75","233903","0.0-40.0","60","1","2025-01-31 01:17:26","af8d355d56820e421d246a7037deb6e6","75.248.89.36","Mozilla/5.0 (Windows NT 10.0; Win64; x64; rv:134.0) Gecko/20100101 Firefox/134.0","","Firefox","134.0","Windows","10.0","https://app.prolific.com/","en-US,en;q=0.5","5e8f53644b34ff22d9b3a1c5","67949641171f97c04e14fb34","679c243359ab7d5053211f49","","null","<img  src='G_1.jpg' height='90'> <img   src='G_3.jpg' height='90'> <img   src='G_9.jpg' height='90'> <img id='selected'  src='G_7.jpg' height='90'> <img src='G_5.jpg' height='90'>","null","Learning example 0",""
"","","","","","html-button-response","76","234213","0.0-41.0","60","1","2025-01-31 01:17:26","af8d355d56820e421d246a7037deb6e6","75.248.89.36","Mozilla/5.0 (Windows NT 10.0; Win64; x64; rv:134.0) Gecko/20100101 Firefox/134.0","","Firefox","134.0","Windows","10.0","https://app.prolific.com/","en-US,en;q=0.5","5e8f53644b34ff22d9b3a1c5","67949641171f97c04e14fb34","679c243359ab7d5053211f49","","null","<img  src='G_1.jpg' height='90'> <img   src='G_3.jpg' height='90'> <img   src='G_9.jpg' height='90'> <img id='selected'  src='G_7.jpg' height='90'> <img id='selected' src='G_5.jpg' height='90'>","null","Learning example 0",""
"","","","","","html-button-response","77","234521","0.0-42.0","60","1","2025-01-31 01:17:26","af8d355d56820e421d246a7037deb6e6","75.248.89.36","Mozilla/5.0 (Windows NT 10.0; Win64; x64; rv:134.0) Gecko/20100101 Firefox/134.0","","Firefox","134.0","Windows","10.0","https://app.prolific.com/","en-US,en;q=0.5","5e8f53644b34ff22d9b3a1c5","67949641171f97c04e14fb34","679c243359ab7d5053211f49","","null","<img  src='G_1.jpg' height='90'> <img   src='G_3.jpg' height='90'> <img   src='G_9.jpg' height='90'> <img id='selected'  src='G_7.jpg' height='90'> <img id='selected' src='G_5.jpg' height='90'>","null","Learning example 0",""
"","","","","","html-button-response","78","235299","0.0-43.0-0.0-0.0","60","1","2025-01-31 01:17:26","af8d355d56820e421d246a7037deb6e6","75.248.89.36","Mozilla/5.0 (Windows NT 10.0; Win64; x64; rv:134.0) Gecko/20100101 Firefox/134.0","","Firefox","134.0","Windows","10.0","https://app.prolific.com/","en-US,en;q=0.5","5e8f53644b34ff22d9b3a1c5","67949641171f97c04e14fb34","679c243359ab7d5053211f49","","776","<img  src='G_1.jpg' height='90'> <img   src='G_3.jpg' height='90'> <img   src='G_9.jpg' height='90'> <img id='selected'  src='G_7.jpg' height='90'> <img id='selected' src='G_5.jpg' height='90'>","3","Learning example 0",""
"","","","","","html-button-response","79","236276","0.0-43.1-0.1-0.1","60","1","2025-01-31 01:17:26","af8d355d56820e421d246a7037deb6e6","75.248.89.36","Mozilla/5.0 (Windows NT 10.0; Win64; x64; rv:134.0) Gecko/20100101 Firefox/134.0","","Firefox","134.0","Windows","10.0","https://app.prolific.com/","en-US,en;q=0.5","5e8f53644b34ff22d9b3a1c5","67949641171f97c04e14fb34","679c243359ab7d5053211f49","","972","<img  src='G_1.jpg' height='90'> <img   src='G_3.jpg' height='90'> <img   src='G_9.jpg' height='90'> <img id='selected'  src='G_7.jpg' height='90'> <img id='selected' src='G_5.jpg' height='90'>","4","Learning example 0",""
"","","","","","html-button-response","80","236489","0.0-44.0","60","1","2025-01-31 01:17:26","af8d355d56820e421d246a7037deb6e6","75.248.89.36","Mozilla/5.0 (Windows NT 10.0; Win64; x64; rv:134.0) Gecko/20100101 Firefox/134.0","","Firefox","134.0","Windows","10.0","https://app.prolific.com/","en-US,en;q=0.5","5e8f53644b34ff22d9b3a1c5","67949641171f97c04e14fb34","679c243359ab7d5053211f49","","null","<img  src='G_1.jpg' height='90'> <img   src='G_3.jpg' height='90'> <img   src='G_9.jpg' height='90'> <img   src='G_7.jpg' height='90'> <img  src='G_5.jpg' height='90'>","null","Learning example 0",""
"","","","","","html-keyboard-response","81","247484","0.0-45.0","60","1","2025-01-31 01:17:26","af8d355d56820e421d246a7037deb6e6","75.248.89.36","Mozilla/5.0 (Windows NT 10.0; Win64; x64; rv:134.0) Gecko/20100101 Firefox/134.0","","Firefox","134.0","Windows","10.0","https://app.prolific.com/","en-US,en;q=0.5","5e8f53644b34ff22d9b3a1c5","67949641171f97c04e14fb34","679c243359ab7d5053211f49","","10993","[""Final order was 1,2,3,4,5. The initial order was 2,1,3,4,5.<br>It took 1 swaps to sort it correctly with Omgne Sort. <br><br>Press Enter to continue.""]","5","",""
"","","","","","html-keyboard-response","82","247499","0.0-46.0","60","1","2025-01-31 01:17:26","af8d355d56820e421d246a7037deb6e6","75.248.89.36","Mozilla/5.0 (Windows NT 10.0; Win64; x64; rv:134.0) Gecko/20100101 Firefox/134.0","","Firefox","134.0","Windows","10.0","https://app.prolific.com/","en-US,en;q=0.5","5e8f53644b34ff22d9b3a1c5","67949641171f97c04e14fb34","679c243359ab7d5053211f49","","12","[""Example 2<br><br>You will watch Omnge Sort in action. Try to identify any patterns in the comparisons made by this method. <br><br>Press Enter to continue.""]","4","",""
"","","","","","html-keyboard-response","83","248003","0.0-47.0","60","1","2025-01-31 01:17:26","af8d355d56820e421d246a7037deb6e6","75.248.89.36","Mozilla/5.0 (Windows NT 10.0; Win64; x64; rv:134.0) Gecko/20100101 Firefox/134.0","","Firefox","134.0","Windows","10.0","https://app.prolific.com/","en-US,en;q=0.5","5e8f53644b34ff22d9b3a1c5","67949641171f97c04e14fb34","679c243359ab7d5053211f49","","null","<img id='selected' src='G_7.jpg' height='90'> <img src='G_3.jpg' height='90'> <img src='G_6.jpg' height='90'> <img src='G_5.jpg' height='90'> <img src='G_8.jpg' height='90'> <img src='G_4.jpg' height='90'> <img src='G_2.jpg' height='90'> <img src='G_1.jpg' height='90'>","null","Animation1",""
"","","","","","html-keyboard-response","84","248506","0.0-48.0","60","1","2025-01-31 01:17:26","af8d355d56820e421d246a7037deb6e6","75.248.89.36","Mozilla/5.0 (Windows NT 10.0; Win64; x64; rv:134.0) Gecko/20100101 Firefox/134.0","","Firefox","134.0","Windows","10.0","https://app.prolific.com/","en-US,en;q=0.5","5e8f53644b34ff22d9b3a1c5","67949641171f97c04e14fb34","679c243359ab7d5053211f49","","null","<img id='selected' src='G_7.jpg' height='90'> <img id='selected' src='G_3.jpg' height='90'> <img src='G_6.jpg' height='90'> <img src='G_5.jpg' height='90'> <img src='G_8.jpg' height='90'> <img src='G_4.jpg' height='90'> <img src='G_2.jpg' height='90'> <img src='G_1.jpg' height='90'>","null","Animation1",""
"","","","","","html-keyboard-response","85","249025","0.0-49.0","60","1","2025-01-31 01:17:26","af8d355d56820e421d246a7037deb6e6","75.248.89.36","Mozilla/5.0 (Windows NT 10.0; Win64; x64; rv:134.0) Gecko/20100101 Firefox/134.0","","Firefox","134.0","Windows","10.0","https://app.prolific.com/","en-US,en;q=0.5","5e8f53644b34ff22d9b3a1c5","67949641171f97c04e14fb34","679c243359ab7d5053211f49","","null","<img id='selected' src='G_7.jpg' height='90'> <img id='selected' src='G_3.jpg' height='90'> <img src='G_6.jpg' height='90'> <img src='G_5.jpg' height='90'> <img src='G_8.jpg' height='90'> <img src='G_4.jpg' height='90'> <img src='G_2.jpg' height='90'> <img src='G_1.jpg' height='90'>","null","Animation1",""
"","","","","","html-keyboard-response","86","249335","0.0-50.0","60","1","2025-01-31 01:17:26","af8d355d56820e421d246a7037deb6e6","75.248.89.36","Mozilla/5.0 (Windows NT 10.0; Win64; x64; rv:134.0) Gecko/20100101 Firefox/134.0","","Firefox","134.0","Windows","10.0","https://app.prolific.com/","en-US,en;q=0.5","5e8f53644b34ff22d9b3a1c5","67949641171f97c04e14fb34","679c243359ab7d5053211f49","","null","<img  src='G_7.jpg' height='90'> <img  src='G_3.jpg' height='90'> <img src='G_6.jpg' height='90'> <img src='G_5.jpg' height='90'> <img src='G_8.jpg' height='90'> <img src='G_4.jpg' height='90'> <img src='G_2.jpg' height='90'> <img src='G_1.jpg' height='90'>","null","Animation1",""
"","","","","","html-keyboard-response","87","249842","0.0-51.0","60","1","2025-01-31 01:17:26","af8d355d56820e421d246a7037deb6e6","75.248.89.36","Mozilla/5.0 (Windows NT 10.0; Win64; x64; rv:134.0) Gecko/20100101 Firefox/134.0","","Firefox","134.0","Windows","10.0","https://app.prolific.com/","en-US,en;q=0.5","5e8f53644b34ff22d9b3a1c5","67949641171f97c04e14fb34","679c243359ab7d5053211f49","","null","<img  src='G_7.jpg' height='90'> <img id='selected'  src='G_3.jpg' height='90'> <img src='G_6.jpg' height='90'> <img src='G_5.jpg' height='90'> <img src='G_8.jpg' height='90'> <img src='G_4.jpg' height='90'> <img src='G_2.jpg' height='90'> <img src='G_1.jpg' height='90'>","null","Animation1",""
"","","","","","html-keyboard-response","88","250351","0.0-52.0","60","1","2025-01-31 01:17:26","af8d355d56820e421d246a7037deb6e6","75.248.89.36","Mozilla/5.0 (Windows NT 10.0; Win64; x64; rv:134.0) Gecko/20100101 Firefox/134.0","","Firefox","134.0","Windows","10.0","https://app.prolific.com/","en-US,en;q=0.5","5e8f53644b34ff22d9b3a1c5","67949641171f97c04e14fb34","679c243359ab7d5053211f49","","null","<img  src='G_7.jpg' height='90'> <img id='selected'  src='G_3.jpg' height='90'> <img id='selected' src='G_6.jpg' height='90'> <img src='G_5.jpg' height='90'> <img src='G_8.jpg' height='90'> <img src='G_4.jpg' height='90'> <img src='G_2.jpg' height='90'> <img src='G_1.jpg' height='90'>","null","Animation1",""
"","","","","","html-keyboard-response","89","250857","0.0-53.0","60","1","2025-01-31 01:17:26","af8d355d56820e421d246a7037deb6e6","75.248.89.36","Mozilla/5.0 (Windows NT 10.0; Win64; x64; rv:134.0) Gecko/20100101 Firefox/134.0","","Firefox","134.0","Windows","10.0","https://app.prolific.com/","en-US,en;q=0.5","5e8f53644b34ff22d9b3a1c5","67949641171f97c04e14fb34","679c243359ab7d5053211f49","","null","<img  src='G_7.jpg' height='90'> <img id='swapped' src='G_6.jpg' height='90'> <img id='swapped'  src='G_3.jpg' height='90'> <img src='G_5.jpg' height='90'> <img src='G_8.jpg' height='90'> <img src='G_4.jpg' height='90'> <img src='G_2.jpg' height='90'> <img src='G_1.jpg' height='90'>","null","Animation1",""
"","","","","","html-keyboard-response","90","251164","0.0-54.0","60","1","2025-01-31 01:17:26","af8d355d56820e421d246a7037deb6e6","75.248.89.36","Mozilla/5.0 (Windows NT 10.0; Win64; x64; rv:134.0) Gecko/20100101 Firefox/134.0","","Firefox","134.0","Windows","10.0","https://app.prolific.com/","en-US,en;q=0.5","5e8f53644b34ff22d9b3a1c5","67949641171f97c04e14fb34","679c243359ab7d5053211f49","","null","<img  src='G_7.jpg' height='90'> <img  src='G_6.jpg' height='90'> <img   src='G_3.jpg' height='90'> <img src='G_5.jpg' height='90'> <img src='G_8.jpg' height='90'> <img src='G_4.jpg' height='90'> <img src='G_2.jpg' height='90'> <img src='G_1.jpg' height='90'>","null","Animation1",""
"","","","","","html-keyboard-response","91","251675","0.0-55.0","60","1","2025-01-31 01:17:26","af8d355d56820e421d246a7037deb6e6","75.248.89.36","Mozilla/5.0 (Windows NT 10.0; Win64; x64; rv:134.0) Gecko/20100101 Firefox/134.0","","Firefox","134.0","Windows","10.0","https://app.prolific.com/","en-US,en;q=0.5","5e8f53644b34ff22d9b3a1c5","67949641171f97c04e14fb34","679c243359ab7d5053211f49","","null","<img id='selected'  src='G_7.jpg' height='90'> <img  src='G_6.jpg' height='90'> <img   src='G_3.jpg' height='90'> <img src='G_5.jpg' height='90'> <img src='G_8.jpg' height='90'> <img src='G_4.jpg' height='90'> <img src='G_2.jpg' height='90'> <img src='G_1.jpg' height='90'>","null","Animation1",""
"","","","","","html-keyboard-response","92","252188","0.0-56.0","60","1","2025-01-31 01:17:26","af8d355d56820e421d246a7037deb6e6","75.248.89.36","Mozilla/5.0 (Windows NT 10.0; Win64; x64; rv:134.0) Gecko/20100101 Firefox/134.0","","Firefox","134.0","Windows","10.0","https://app.prolific.com/","en-US,en;q=0.5","5e8f53644b34ff22d9b3a1c5","67949641171f97c04e14fb34","679c243359ab7d5053211f49","","null","<img id='selected'  src='G_7.jpg' height='90'> <img id='selected'  src='G_6.jpg' height='90'> <img   src='G_3.jpg' height='90'> <img src='G_5.jpg' height='90'> <img src='G_8.jpg' height='90'> <img src='G_4.jpg' height='90'> <img src='G_2.jpg' height='90'> <img src='G_1.jpg' height='90'>","null","Animation1",""
"","","","","","html-keyboard-response","93","252696","0.0-57.0","60","1","2025-01-31 01:17:26","af8d355d56820e421d246a7037deb6e6","75.248.89.36","Mozilla/5.0 (Windows NT 10.0; Win64; x64; rv:134.0) Gecko/20100101 Firefox/134.0","","Firefox","134.0","Windows","10.0","https://app.prolific.com/","en-US,en;q=0.5","5e8f53644b34ff22d9b3a1c5","67949641171f97c04e14fb34","679c243359ab7d5053211f49","","null","<img id='swapped'  src='G_6.jpg' height='90'> <img id='swapped'  src='G_7.jpg' height='90'> <img   src='G_3.jpg' height='90'> <img src='G_5.jpg' height='90'> <img src='G_8.jpg' height='90'> <img src='G_4.jpg' height='90'> <img src='G_2.jpg' height='90'> <img src='G_1.jpg' height='90'>","null","Animation1",""
"","","","","","html-keyboard-response","94","253005","0.0-58.0","60","1","2025-01-31 01:17:26","af8d355d56820e421d246a7037deb6e6","75.248.89.36","Mozilla/5.0 (Windows NT 10.0; Win64; x64; rv:134.0) Gecko/20100101 Firefox/134.0","","Firefox","134.0","Windows","10.0","https://app.prolific.com/","en-US,en;q=0.5","5e8f53644b34ff22d9b3a1c5","67949641171f97c04e14fb34","679c243359ab7d5053211f49","","null","<img   src='G_6.jpg' height='90'> <img   src='G_7.jpg' height='90'> <img   src='G_3.jpg' height='90'> <img src='G_5.jpg' height='90'> <img src='G_8.jpg' height='90'> <img src='G_4.jpg' height='90'> <img src='G_2.jpg' height='90'> <img src='G_1.jpg' height='90'>","null","Animation1",""
"","","","","","html-keyboard-response","95","253521","0.0-59.0","60","1","2025-01-31 01:17:26","af8d355d56820e421d246a7037deb6e6","75.248.89.36","Mozilla/5.0 (Windows NT 10.0; Win64; x64; rv:134.0) Gecko/20100101 Firefox/134.0","","Firefox","134.0","Windows","10.0","https://app.prolific.com/","en-US,en;q=0.5","5e8f53644b34ff22d9b3a1c5","67949641171f97c04e14fb34","679c243359ab7d5053211f49","","null","<img   src='G_6.jpg' height='90'> <img   src='G_7.jpg' height='90'> <img id='selected'   src='G_3.jpg' height='90'> <img src='G_5.jpg' height='90'> <img src='G_8.jpg' height='90'> <img src='G_4.jpg' height='90'> <img src='G_2.jpg' height='90'> <img src='G_1.jpg' height='90'>","null","Animation1",""
"","","","","","html-keyboard-response","96","254035","0.0-60.0","60","1","2025-01-31 01:17:26","af8d355d56820e421d246a7037deb6e6","75.248.89.36","Mozilla/5.0 (Windows NT 10.0; Win64; x64; rv:134.0) Gecko/20100101 Firefox/134.0","","Firefox","134.0","Windows","10.0","https://app.prolific.com/","en-US,en;q=0.5","5e8f53644b34ff22d9b3a1c5","67949641171f97c04e14fb34","679c243359ab7d5053211f49","","null","<img   src='G_6.jpg' height='90'> <img   src='G_7.jpg' height='90'> <img id='selected'   src='G_3.jpg' height='90'> <img id='selected' src='G_5.jpg' height='90'> <img src='G_8.jpg' height='90'> <img src='G_4.jpg' height='90'> <img src='G_2.jpg' height='90'> <img src='G_1.jpg' height='90'>","null","Animation1",""
"","","","","","html-keyboard-response","97","254543","0.0-61.0","60","1","2025-01-31 01:17:26","af8d355d56820e421d246a7037deb6e6","75.248.89.36","Mozilla/5.0 (Windows NT 10.0; Win64; x64; rv:134.0) Gecko/20100101 Firefox/134.0","","Firefox","134.0","Windows","10.0","https://app.prolific.com/","en-US,en;q=0.5","5e8f53644b34ff22d9b3a1c5","67949641171f97c04e14fb34","679c243359ab7d5053211f49","","null","<img   src='G_6.jpg' height='90'> <img   src='G_7.jpg' height='90'> <img id='swapped' src='G_5.jpg' height='90'> <img id='swapped'   src='G_3.jpg' height='90'> <img src='G_8.jpg' height='90'> <img src='G_4.jpg' height='90'> <img src='G_2.jpg' height='90'> <img src='G_1.jpg' height='90'>","null","Animation1",""
"","","","","","html-keyboard-response","98","254854","0.0-62.0","60","1","2025-01-31 01:17:26","af8d355d56820e421d246a7037deb6e6","75.248.89.36","Mozilla/5.0 (Windows NT 10.0; Win64; x64; rv:134.0) Gecko/20100101 Firefox/134.0","","Firefox","134.0","Windows","10.0","https://app.prolific.com/","en-US,en;q=0.5","5e8f53644b34ff22d9b3a1c5","67949641171f97c04e14fb34","679c243359ab7d5053211f49","","null","<img   src='G_6.jpg' height='90'> <img   src='G_7.jpg' height='90'> <img  src='G_5.jpg' height='90'> <img    src='G_3.jpg' height='90'> <img src='G_8.jpg' height='90'> <img src='G_4.jpg' height='90'> <img src='G_2.jpg' height='90'> <img src='G_1.jpg' height='90'>","null","Animation1",""
"","","","","","html-keyboard-response","99","255366","0.0-63.0","60","1","2025-01-31 01:17:26","af8d355d56820e421d246a7037deb6e6","75.248.89.36","Mozilla/5.0 (Windows NT 10.0; Win64; x64; rv:134.0) Gecko/20100101 Firefox/134.0","","Firefox","134.0","Windows","10.0","https://app.prolific.com/","en-US,en;q=0.5","5e8f53644b34ff22d9b3a1c5","67949641171f97c04e14fb34","679c243359ab7d5053211f49","","null","<img   src='G_6.jpg' height='90'> <img id='selected'   src='G_7.jpg' height='90'> <img  src='G_5.jpg' height='90'> <img    src='G_3.jpg' height='90'> <img src='G_8.jpg' height='90'> <img src='G_4.jpg' height='90'> <img src='G_2.jpg' height='90'> <img src='G_1.jpg' height='90'>","null","Animation1",""
"","","","","","html-keyboard-response","100","255870","0.0-64.0","60","1","2025-01-31 01:17:26","af8d355d56820e421d246a7037deb6e6","75.248.89.36","Mozilla/5.0 (Windows NT 10.0; Win64; x64; rv:134.0) Gecko/20100101 Firefox/134.0","","Firefox","134.0","Windows","10.0","https://app.prolific.com/","en-US,en;q=0.5","5e8f53644b34ff22d9b3a1c5","67949641171f97c04e14fb34","679c243359ab7d5053211f49","","null","<img   src='G_6.jpg' height='90'> <img id='selected'   src='G_7.jpg' height='90'> <img id='selected'  src='G_5.jpg' height='90'> <img    src='G_3.jpg' height='90'> <img src='G_8.jpg' height='90'> <img src='G_4.jpg' height='90'> <img src='G_2.jpg' height='90'> <img src='G_1.jpg' height='90'>","null","Animation1",""
"","","","","","html-keyboard-response","101","256380","0.0-65.0","60","1","2025-01-31 01:17:26","af8d355d56820e421d246a7037deb6e6","75.248.89.36","Mozilla/5.0 (Windows NT 10.0; Win64; x64; rv:134.0) Gecko/20100101 Firefox/134.0","","Firefox","134.0","Windows","10.0","https://app.prolific.com/","en-US,en;q=0.5","5e8f53644b34ff22d9b3a1c5","67949641171f97c04e14fb34","679c243359ab7d5053211f49","","null","<img   src='G_6.jpg' height='90'> <img id='swapped'  src='G_5.jpg' height='90'> <img id='swapped'   src='G_7.jpg' height='90'> <img    src='G_3.jpg' height='90'> <img src='G_8.jpg' height='90'> <img src='G_4.jpg' height='90'> <img src='G_2.jpg' height='90'> <img src='G_1.jpg' height='90'>","null","Animation1",""
"","","","","","html-keyboard-response","102","256690","0.0-66.0","60","1","2025-01-31 01:17:26","af8d355d56820e421d246a7037deb6e6","75.248.89.36","Mozilla/5.0 (Windows NT 10.0; Win64; x64; rv:134.0) Gecko/20100101 Firefox/134.0","","Firefox","134.0","Windows","10.0","https://app.prolific.com/","en-US,en;q=0.5","5e8f53644b34ff22d9b3a1c5","67949641171f97c04e14fb34","679c243359ab7d5053211f49","","null","<img   src='G_6.jpg' height='90'> <img   src='G_5.jpg' height='90'> <img    src='G_7.jpg' height='90'> <img    src='G_3.jpg' height='90'> <img src='G_8.jpg' height='90'> <img src='G_4.jpg' height='90'> <img src='G_2.jpg' height='90'> <img src='G_1.jpg' height='90'>","null","Animation1",""
"","","","","","html-keyboard-response","103","257200","0.0-67.0","60","1","2025-01-31 01:17:26","af8d355d56820e421d246a7037deb6e6","75.248.89.36","Mozilla/5.0 (Windows NT 10.0; Win64; x64; rv:134.0) Gecko/20100101 Firefox/134.0","","Firefox","134.0","Windows","10.0","https://app.prolific.com/","en-US,en;q=0.5","5e8f53644b34ff22d9b3a1c5","67949641171f97c04e14fb34","679c243359ab7d5053211f49","","null","<img id='selected'   src='G_6.jpg' height='90'> <img   src='G_5.jpg' height='90'> <img    src='G_7.jpg' height='90'> <img    src='G_3.jpg' height='90'> <img src='G_8.jpg' height='90'> <img src='G_4.jpg' height='90'> <img src='G_2.jpg' height='90'> <img src='G_1.jpg' height='90'>","null","Animation1",""
"","","","","","html-keyboard-response","104","257710","0.0-68.0","60","1","2025-01-31 01:17:26","af8d355d56820e421d246a7037deb6e6","75.248.89.36","Mozilla/5.0 (Windows NT 10.0; Win64; x64; rv:134.0) Gecko/20100101 Firefox/134.0","","Firefox","134.0","Windows","10.0","https://app.prolific.com/","en-US,en;q=0.5","5e8f53644b34ff22d9b3a1c5","67949641171f97c04e14fb34","679c243359ab7d5053211f49","","null","<img id='selected'   src='G_6.jpg' height='90'> <img id='selected'   src='G_5.jpg' height='90'> <img    src='G_7.jpg' height='90'> <img    src='G_3.jpg' height='90'> <img src='G_8.jpg' height='90'> <img src='G_4.jpg' height='90'> <img src='G_2.jpg' height='90'> <img src='G_1.jpg' height='90'>","null","Animation1",""
"","","","","","html-keyboard-response","105","258221","0.0-69.0","60","1","2025-01-31 01:17:26","af8d355d56820e421d246a7037deb6e6","75.248.89.36","Mozilla/5.0 (Windows NT 10.0; Win64; x64; rv:134.0) Gecko/20100101 Firefox/134.0","","Firefox","134.0","Windows","10.0","https://app.prolific.com/","en-US,en;q=0.5","5e8f53644b34ff22d9b3a1c5","67949641171f97c04e14fb34","679c243359ab7d5053211f49","","null","<img id='swapped'   src='G_5.jpg' height='90'> <img id='swapped'   src='G_6.jpg' height='90'> <img    src='G_7.jpg' height='90'> <img    src='G_3.jpg' height='90'> <img src='G_8.jpg' height='90'> <img src='G_4.jpg' height='90'> <img src='G_2.jpg' height='90'> <img src='G_1.jpg' height='90'>","null","Animation1",""
"","","","","","html-keyboard-response","106","258532","0.0-70.0","60","1","2025-01-31 01:17:26","af8d355d56820e421d246a7037deb6e6","75.248.89.36","Mozilla/5.0 (Windows NT 10.0; Win64; x64; rv:134.0) Gecko/20100101 Firefox/134.0","","Firefox","134.0","Windows","10.0","https://app.prolific.com/","en-US,en;q=0.5","5e8f53644b34ff22d9b3a1c5","67949641171f97c04e14fb34","679c243359ab7d5053211f49","","null","<img    src='G_5.jpg' height='90'> <img    src='G_6.jpg' height='90'> <img    src='G_7.jpg' height='90'> <img    src='G_3.jpg' height='90'> <img src='G_8.jpg' height='90'> <img src='G_4.jpg' height='90'> <img src='G_2.jpg' height='90'> <img src='G_1.jpg' height='90'>","null","Animation1",""
"","","","","","html-keyboard-response","107","259039","0.0-71.0","60","1","2025-01-31 01:17:26","af8d355d56820e421d246a7037deb6e6","75.248.89.36","Mozilla/5.0 (Windows NT 10.0; Win64; x64; rv:134.0) Gecko/20100101 Firefox/134.0","","Firefox","134.0","Windows","10.0","https://app.prolific.com/","en-US,en;q=0.5","5e8f53644b34ff22d9b3a1c5","67949641171f97c04e14fb34","679c243359ab7d5053211f49","","null","<img    src='G_5.jpg' height='90'> <img    src='G_6.jpg' height='90'> <img    src='G_7.jpg' height='90'> <img id='selected'    src='G_3.jpg' height='90'> <img src='G_8.jpg' height='90'> <img src='G_4.jpg' height='90'> <img src='G_2.jpg' height='90'> <img src='G_1.jpg' height='90'>","null","Animation1",""
"","","","","","html-keyboard-response","108","259544","0.0-72.0","60","1","2025-01-31 01:17:26","af8d355d56820e421d246a7037deb6e6","75.248.89.36","Mozilla/5.0 (Windows NT 10.0; Win64; x64; rv:134.0) Gecko/20100101 Firefox/134.0","","Firefox","134.0","Windows","10.0","https://app.prolific.com/","en-US,en;q=0.5","5e8f53644b34ff22d9b3a1c5","67949641171f97c04e14fb34","679c243359ab7d5053211f49","","null","<img    src='G_5.jpg' height='90'> <img    src='G_6.jpg' height='90'> <img    src='G_7.jpg' height='90'> <img id='selected'    src='G_3.jpg' height='90'> <img id='selected' src='G_8.jpg' height='90'> <img src='G_4.jpg' height='90'> <img src='G_2.jpg' height='90'> <img src='G_1.jpg' height='90'>","null","Animation1",""
"","","","","","html-keyboard-response","109","260056","0.0-73.0","60","1","2025-01-31 01:17:26","af8d355d56820e421d246a7037deb6e6","75.248.89.36","Mozilla/5.0 (Windows NT 10.0; Win64; x64; rv:134.0) Gecko/20100101 Firefox/134.0","","Firefox","134.0","Windows","10.0","https://app.prolific.com/","en-US,en;q=0.5","5e8f53644b34ff22d9b3a1c5","67949641171f97c04e14fb34","679c243359ab7d5053211f49","","null","<img    src='G_5.jpg' height='90'> <img    src='G_6.jpg' height='90'> <img    src='G_7.jpg' height='90'> <img id='swapped' src='G_8.jpg' height='90'> <img id='swapped'    src='G_3.jpg' height='90'> <img src='G_4.jpg' height='90'> <img src='G_2.jpg' height='90'> <img src='G_1.jpg' height='90'>","null","Animation1",""
"","","","","","html-keyboard-response","110","260373","0.0-74.0","60","1","2025-01-31 01:17:26","af8d355d56820e421d246a7037deb6e6","75.248.89.36","Mozilla/5.0 (Windows NT 10.0; Win64; x64; rv:134.0) Gecko/20100101 Firefox/134.0","","Firefox","134.0","Windows","10.0","https://app.prolific.com/","en-US,en;q=0.5","5e8f53644b34ff22d9b3a1c5","67949641171f97c04e14fb34","679c243359ab7d5053211f49","","null","<img    src='G_5.jpg' height='90'> <img    src='G_6.jpg' height='90'> <img    src='G_7.jpg' height='90'> <img  src='G_8.jpg' height='90'> <img     src='G_3.jpg' height='90'> <img src='G_4.jpg' height='90'> <img src='G_2.jpg' height='90'> <img src='G_1.jpg' height='90'>","null","Animation1",""
"","","","","","html-keyboard-response","111","260885","0.0-75.0","60","1","2025-01-31 01:17:26","af8d355d56820e421d246a7037deb6e6","75.248.89.36","Mozilla/5.0 (Windows NT 10.0; Win64; x64; rv:134.0) Gecko/20100101 Firefox/134.0","","Firefox","134.0","Windows","10.0","https://app.prolific.com/","en-US,en;q=0.5","5e8f53644b34ff22d9b3a1c5","67949641171f97c04e14fb34","679c243359ab7d5053211f49","","null","<img    src='G_5.jpg' height='90'> <img    src='G_6.jpg' height='90'> <img id='selected'    src='G_7.jpg' height='90'> <img  src='G_8.jpg' height='90'> <img     src='G_3.jpg' height='90'> <img src='G_4.jpg' height='90'> <img src='G_2.jpg' height='90'> <img src='G_1.jpg' height='90'>","null","Animation1",""
"","","","","","html-keyboard-response","112","261411","0.0-76.0","60","1","2025-01-31 01:17:26","af8d355d56820e421d246a7037deb6e6","75.248.89.36","Mozilla/5.0 (Windows NT 10.0; Win64; x64; rv:134.0) Gecko/20100101 Firefox/134.0","","Firefox","134.0","Windows","10.0","https://app.prolific.com/","en-US,en;q=0.5","5e8f53644b34ff22d9b3a1c5","67949641171f97c04e14fb34","679c243359ab7d5053211f49","","null","<img    src='G_5.jpg' height='90'> <img    src='G_6.jpg' height='90'> <img id='selected'    src='G_7.jpg' height='90'> <img id='selected'  src='G_8.jpg' height='90'> <img     src='G_3.jpg' height='90'> <img src='G_4.jpg' height='90'> <img src='G_2.jpg' height='90'> <img src='G_1.jpg' height='90'>","null","Animation1",""
"","","","","","html-keyboard-response","113","261922","0.0-77.0","60","1","2025-01-31 01:17:26","af8d355d56820e421d246a7037deb6e6","75.248.89.36","Mozilla/5.0 (Windows NT 10.0; Win64; x64; rv:134.0) Gecko/20100101 Firefox/134.0","","Firefox","134.0","Windows","10.0","https://app.prolific.com/","en-US,en;q=0.5","5e8f53644b34ff22d9b3a1c5","67949641171f97c04e14fb34","679c243359ab7d5053211f49","","null","<img    src='G_5.jpg' height='90'> <img    src='G_6.jpg' height='90'> <img id='swapped'  src='G_8.jpg' height='90'> <img id='swapped'    src='G_7.jpg' height='90'> <img     src='G_3.jpg' height='90'> <img src='G_4.jpg' height='90'> <img src='G_2.jpg' height='90'> <img src='G_1.jpg' height='90'>","null","Animation1",""
"","","","","","html-keyboard-response","114","262248","0.0-78.0","60","1","2025-01-31 01:17:26","af8d355d56820e421d246a7037deb6e6","75.248.89.36","Mozilla/5.0 (Windows NT 10.0; Win64; x64; rv:134.0) Gecko/20100101 Firefox/134.0","","Firefox","134.0","Windows","10.0","https://app.prolific.com/","en-US,en;q=0.5","5e8f53644b34ff22d9b3a1c5","67949641171f97c04e14fb34","679c243359ab7d5053211f49","","null","<img    src='G_5.jpg' height='90'> <img    src='G_6.jpg' height='90'> <img   src='G_8.jpg' height='90'> <img     src='G_7.jpg' height='90'> <img     src='G_3.jpg' height='90'> <img src='G_4.jpg' height='90'> <img src='G_2.jpg' height='90'> <img src='G_1.jpg' height='90'>","null","Animation1",""
"","","","","","html-keyboard-response","115","262769","0.0-79.0","60","1","2025-01-31 01:17:26","af8d355d56820e421d246a7037deb6e6","75.248.89.36","Mozilla/5.0 (Windows NT 10.0; Win64; x64; rv:134.0) Gecko/20100101 Firefox/134.0","","Firefox","134.0","Windows","10.0","https://app.prolific.com/","en-US,en;q=0.5","5e8f53644b34ff22d9b3a1c5","67949641171f97c04e14fb34","679c243359ab7d5053211f49","","null","<img    src='G_5.jpg' height='90'> <img id='selected'    src='G_6.jpg' height='90'> <img   src='G_8.jpg' height='90'> <img     src='G_7.jpg' height='90'> <img     src='G_3.jpg' height='90'> <img src='G_4.jpg' height='90'> <img src='G_2.jpg' height='90'> <img src='G_1.jpg' height='90'>","null","Animation1",""
"","","","","","html-keyboard-response","116","263281","0.0-80.0","60","1","2025-01-31 01:17:26","af8d355d56820e421d246a7037deb6e6","75.248.89.36","Mozilla/5.0 (Windows NT 10.0; Win64; x64; rv:134.0) Gecko/20100101 Firefox/134.0","","Firefox","134.0","Windows","10.0","https://app.prolific.com/","en-US,en;q=0.5","5e8f53644b34ff22d9b3a1c5","67949641171f97c04e14fb34","679c243359ab7d5053211f49","","null","<img    src='G_5.jpg' height='90'> <img id='selected'    src='G_6.jpg' height='90'> <img id='selected'   src='G_8.jpg' height='90'> <img     src='G_7.jpg' height='90'> <img     src='G_3.jpg' height='90'> <img src='G_4.jpg' height='90'> <img src='G_2.jpg' height='90'> <img src='G_1.jpg' height='90'>","null","Animation1",""
"","","","","","html-keyboard-response","117","263790","0.0-81.0","60","1","2025-01-31 01:17:26","af8d355d56820e421d246a7037deb6e6","75.248.89.36","Mozilla/5.0 (Windows NT 10.0; Win64; x64; rv:134.0) Gecko/20100101 Firefox/134.0","","Firefox","134.0","Windows","10.0","https://app.prolific.com/","en-US,en;q=0.5","5e8f53644b34ff22d9b3a1c5","67949641171f97c04e14fb34","679c243359ab7d5053211f49","","null","<img    src='G_5.jpg' height='90'> <img id='swapped'   src='G_8.jpg' height='90'> <img id='swapped'    src='G_6.jpg' height='90'> <img     src='G_7.jpg' height='90'> <img     src='G_3.jpg' height='90'> <img src='G_4.jpg' height='90'> <img src='G_2.jpg' height='90'> <img src='G_1.jpg' height='90'>","null","Animation1",""
"","","","","","html-keyboard-response","118","264100","0.0-82.0","60","1","2025-01-31 01:17:26","af8d355d56820e421d246a7037deb6e6","75.248.89.36","Mozilla/5.0 (Windows NT 10.0; Win64; x64; rv:134.0) Gecko/20100101 Firefox/134.0","","Firefox","134.0","Windows","10.0","https://app.prolific.com/","en-US,en;q=0.5","5e8f53644b34ff22d9b3a1c5","67949641171f97c04e14fb34","679c243359ab7d5053211f49","","null","<img    src='G_5.jpg' height='90'> <img    src='G_8.jpg' height='90'> <img     src='G_6.jpg' height='90'> <img     src='G_7.jpg' height='90'> <img     src='G_3.jpg' height='90'> <img src='G_4.jpg' height='90'> <img src='G_2.jpg' height='90'> <img src='G_1.jpg' height='90'>","null","Animation1",""
"","","","","","html-keyboard-response","119","264609","0.0-83.0","60","1","2025-01-31 01:17:26","af8d355d56820e421d246a7037deb6e6","75.248.89.36","Mozilla/5.0 (Windows NT 10.0; Win64; x64; rv:134.0) Gecko/20100101 Firefox/134.0","","Firefox","134.0","Windows","10.0","https://app.prolific.com/","en-US,en;q=0.5","5e8f53644b34ff22d9b3a1c5","67949641171f97c04e14fb34","679c243359ab7d5053211f49","","null","<img id='selected'    src='G_5.jpg' height='90'> <img    src='G_8.jpg' height='90'> <img     src='G_6.jpg' height='90'> <img     src='G_7.jpg' height='90'> <img     src='G_3.jpg' height='90'> <img src='G_4.jpg' height='90'> <img src='G_2.jpg' height='90'> <img src='G_1.jpg' height='90'>","null","Animation1",""
"","","","","","html-keyboard-response","120","265121","0.0-84.0","60","1","2025-01-31 01:17:26","af8d355d56820e421d246a7037deb6e6","75.248.89.36","Mozilla/5.0 (Windows NT 10.0; Win64; x64; rv:134.0) Gecko/20100101 Firefox/134.0","","Firefox","134.0","Windows","10.0","https://app.prolific.com/","en-US,en;q=0.5","5e8f53644b34ff22d9b3a1c5","67949641171f97c04e14fb34","679c243359ab7d5053211f49","","null","<img id='selected'    src='G_5.jpg' height='90'> <img id='selected'    src='G_8.jpg' height='90'> <img     src='G_6.jpg' height='90'> <img     src='G_7.jpg' height='90'> <img     src='G_3.jpg' height='90'> <img src='G_4.jpg' height='90'> <img src='G_2.jpg' height='90'> <img src='G_1.jpg' height='90'>","null","Animation1",""
"","","","","","html-keyboard-response","121","265634","0.0-85.0","60","1","2025-01-31 01:17:26","af8d355d56820e421d246a7037deb6e6","75.248.89.36","Mozilla/5.0 (Windows NT 10.0; Win64; x64; rv:134.0) Gecko/20100101 Firefox/134.0","","Firefox","134.0","Windows","10.0","https://app.prolific.com/","en-US,en;q=0.5","5e8f53644b34ff22d9b3a1c5","67949641171f97c04e14fb34","679c243359ab7d5053211f49","","null","<img id='selected'    src='G_5.jpg' height='90'> <img id='selected'    src='G_8.jpg' height='90'> <img     src='G_6.jpg' height='90'> <img     src='G_7.jpg' height='90'> <img     src='G_3.jpg' height='90'> <img src='G_4.jpg' height='90'> <img src='G_2.jpg' height='90'> <img src='G_1.jpg' height='90'>","null","Animation1",""
"","","","","","html-keyboard-response","122","265944","0.0-86.0","60","1","2025-01-31 01:17:26","af8d355d56820e421d246a7037deb6e6","75.248.89.36","Mozilla/5.0 (Windows NT 10.0; Win64; x64; rv:134.0) Gecko/20100101 Firefox/134.0","","Firefox","134.0","Windows","10.0","https://app.prolific.com/","en-US,en;q=0.5","5e8f53644b34ff22d9b3a1c5","67949641171f97c04e14fb34","679c243359ab7d5053211f49","","null","<img     src='G_5.jpg' height='90'> <img     src='G_8.jpg' height='90'> <img     src='G_6.jpg' height='90'> <img     src='G_7.jpg' height='90'> <img     src='G_3.jpg' height='90'> <img src='G_4.jpg' height='90'> <img src='G_2.jpg' height='90'> <img src='G_1.jpg' height='90'>","null","Animation1",""
"","","","","","html-keyboard-response","123","266450","0.0-87.0","60","1","2025-01-31 01:17:26","af8d355d56820e421d246a7037deb6e6","75.248.89.36","Mozilla/5.0 (Windows NT 10.0; Win64; x64; rv:134.0) Gecko/20100101 Firefox/134.0","","Firefox","134.0","Windows","10.0","https://app.prolific.com/","en-US,en;q=0.5","5e8f53644b34ff22d9b3a1c5","67949641171f97c04e14fb34","679c243359ab7d5053211f49","","null","<img     src='G_5.jpg' height='90'> <img     src='G_8.jpg' height='90'> <img     src='G_6.jpg' height='90'> <img     src='G_7.jpg' height='90'> <img id='selected'     src='G_3.jpg' height='90'> <img src='G_4.jpg' height='90'> <img src='G_2.jpg' height='90'> <img src='G_1.jpg' height='90'>","null","Animation1",""
"","","","","","html-keyboard-response","124","266958","0.0-88.0","60","1","2025-01-31 01:17:26","af8d355d56820e421d246a7037deb6e6","75.248.89.36","Mozilla/5.0 (Windows NT 10.0; Win64; x64; rv:134.0) Gecko/20100101 Firefox/134.0","","Firefox","134.0","Windows","10.0","https://app.prolific.com/","en-US,en;q=0.5","5e8f53644b34ff22d9b3a1c5","67949641171f97c04e14fb34","679c243359ab7d5053211f49","","null","<img     src='G_5.jpg' height='90'> <img     src='G_8.jpg' height='90'> <img     src='G_6.jpg' height='90'> <img     src='G_7.jpg' height='90'> <img id='selected'     src='G_3.jpg' height='90'> <img id='selected' src='G_4.jpg' height='90'> <img src='G_2.jpg' height='90'> <img src='G_1.jpg' height='90'>","null","Animation1",""
"","","","","","html-keyboard-response","125","267471","0.0-89.0","60","1","2025-01-31 01:17:26","af8d355d56820e421d246a7037deb6e6","75.248.89.36","Mozilla/5.0 (Windows NT 10.0; Win64; x64; rv:134.0) Gecko/20100101 Firefox/134.0","","Firefox","134.0","Windows","10.0","https://app.prolific.com/","en-US,en;q=0.5","5e8f53644b34ff22d9b3a1c5","67949641171f97c04e14fb34","679c243359ab7d5053211f49","","null","<img     src='G_5.jpg' height='90'> <img     src='G_8.jpg' height='90'> <img     src='G_6.jpg' height='90'> <img     src='G_7.jpg' height='90'> <img id='swapped' src='G_4.jpg' height='90'> <img id='swapped'     src='G_3.jpg' height='90'> <img src='G_2.jpg' height='90'> <img src='G_1.jpg' height='90'>","null","Animation1",""
"","","","","","html-keyboard-response","126","267779","0.0-90.0","60","1","2025-01-31 01:17:26","af8d355d56820e421d246a7037deb6e6","75.248.89.36","Mozilla/5.0 (Windows NT 10.0; Win64; x64; rv:134.0) Gecko/20100101 Firefox/134.0","","Firefox","134.0","Windows","10.0","https://app.prolific.com/","en-US,en;q=0.5","5e8f53644b34ff22d9b3a1c5","67949641171f97c04e14fb34","679c243359ab7d5053211f49","","null","<img     src='G_5.jpg' height='90'> <img     src='G_8.jpg' height='90'> <img     src='G_6.jpg' height='90'> <img     src='G_7.jpg' height='90'> <img  src='G_4.jpg' height='90'> <img      src='G_3.jpg' height='90'> <img src='G_2.jpg' height='90'> <img src='G_1.jpg' height='90'>","null","Animation1",""
"","","","","","html-keyboard-response","127","268290","0.0-91.0","60","1","2025-01-31 01:17:26","af8d355d56820e421d246a7037deb6e6","75.248.89.36","Mozilla/5.0 (Windows NT 10.0; Win64; x64; rv:134.0) Gecko/20100101 Firefox/134.0","","Firefox","134.0","Windows","10.0","https://app.prolific.com/","en-US,en;q=0.5","5e8f53644b34ff22d9b3a1c5","67949641171f97c04e14fb34","679c243359ab7d5053211f49","","null","<img     src='G_5.jpg' height='90'> <img     src='G_8.jpg' height='90'> <img     src='G_6.jpg' height='90'> <img id='selected'     src='G_7.jpg' height='90'> <img  src='G_4.jpg' height='90'> <img      src='G_3.jpg' height='90'> <img src='G_2.jpg' height='90'> <img src='G_1.jpg' height='90'>","null","Animation1",""
"","","","","","html-keyboard-response","128","268800","0.0-92.0","60","1","2025-01-31 01:17:26","af8d355d56820e421d246a7037deb6e6","75.248.89.36","Mozilla/5.0 (Windows NT 10.0; Win64; x64; rv:134.0) Gecko/20100101 Firefox/134.0","","Firefox","134.0","Windows","10.0","https://app.prolific.com/","en-US,en;q=0.5","5e8f53644b34ff22d9b3a1c5","67949641171f97c04e14fb34","679c243359ab7d5053211f49","","null","<img     src='G_5.jpg' height='90'> <img     src='G_8.jpg' height='90'> <img     src='G_6.jpg' height='90'> <img id='selected'     src='G_7.jpg' height='90'> <img id='selected'  src='G_4.jpg' height='90'> <img      src='G_3.jpg' height='90'> <img src='G_2.jpg' height='90'> <img src='G_1.jpg' height='90'>","null","Animation1",""
"","","","","","html-keyboard-response","129","269314","0.0-93.0","60","1","2025-01-31 01:17:26","af8d355d56820e421d246a7037deb6e6","75.248.89.36","Mozilla/5.0 (Windows NT 10.0; Win64; x64; rv:134.0) Gecko/20100101 Firefox/134.0","","Firefox","134.0","Windows","10.0","https://app.prolific.com/","en-US,en;q=0.5","5e8f53644b34ff22d9b3a1c5","67949641171f97c04e14fb34","679c243359ab7d5053211f49","","null","<img     src='G_5.jpg' height='90'> <img     src='G_8.jpg' height='90'> <img     src='G_6.jpg' height='90'> <img id='selected'     src='G_7.jpg' height='90'> <img id='selected'  src='G_4.jpg' height='90'> <img      src='G_3.jpg' height='90'> <img src='G_2.jpg' height='90'> <img src='G_1.jpg' height='90'>","null","Animation1",""
"","","","","","html-keyboard-response","130","269626","0.0-94.0","60","1","2025-01-31 01:17:26","af8d355d56820e421d246a7037deb6e6","75.248.89.36","Mozilla/5.0 (Windows NT 10.0; Win64; x64; rv:134.0) Gecko/20100101 Firefox/134.0","","Firefox","134.0","Windows","10.0","https://app.prolific.com/","en-US,en;q=0.5","5e8f53644b34ff22d9b3a1c5","67949641171f97c04e14fb34","679c243359ab7d5053211f49","","null","<img     src='G_5.jpg' height='90'> <img     src='G_8.jpg' height='90'> <img     src='G_6.jpg' height='90'> <img      src='G_7.jpg' height='90'> <img   src='G_4.jpg' height='90'> <img      src='G_3.jpg' height='90'> <img src='G_2.jpg' height='90'> <img src='G_1.jpg' height='90'>","null","Animation1",""
"","","","","","html-keyboard-response","131","270134","0.0-95.0","60","1","2025-01-31 01:17:26","af8d355d56820e421d246a7037deb6e6","75.248.89.36","Mozilla/5.0 (Windows NT 10.0; Win64; x64; rv:134.0) Gecko/20100101 Firefox/134.0","","Firefox","134.0","Windows","10.0","https://app.prolific.com/","en-US,en;q=0.5","5e8f53644b34ff22d9b3a1c5","67949641171f97c04e14fb34","679c243359ab7d5053211f49","","null","<img     src='G_5.jpg' height='90'> <img     src='G_8.jpg' height='90'> <img     src='G_6.jpg' height='90'> <img      src='G_7.jpg' height='90'> <img   src='G_4.jpg' height='90'> <img id='selected'      src='G_3.jpg' height='90'> <img src='G_2.jpg' height='90'> <img src='G_1.jpg' height='90'>","null","Animation1",""
"","","","","","html-keyboard-response","132","270655","0.0-96.0","60","1","2025-01-31 01:17:26","af8d355d56820e421d246a7037deb6e6","75.248.89.36","Mozilla/5.0 (Windows NT 10.0; Win64; x64; rv:134.0) Gecko/20100101 Firefox/134.0","","Firefox","134.0","Windows","10.0","https://app.prolific.com/","en-US,en;q=0.5","5e8f53644b34ff22d9b3a1c5","67949641171f97c04e14fb34","679c243359ab7d5053211f49","","null","<img     src='G_5.jpg' height='90'> <img     src='G_8.jpg' height='90'> <img     src='G_6.jpg' height='90'> <img      src='G_7.jpg' height='90'> <img   src='G_4.jpg' height='90'> <img id='selected'      src='G_3.jpg' height='90'> <img id='selected' src='G_2.jpg' height='90'> <img src='G_1.jpg' height='90'>","null","Animation1",""
"","","","","","html-keyboard-response","133","271166","0.0-97.0","60","1","2025-01-31 01:17:26","af8d355d56820e421d246a7037deb6e6","75.248.89.36","Mozilla/5.0 (Windows NT 10.0; Win64; x64; rv:134.0) Gecko/20100101 Firefox/134.0","","Firefox","134.0","Windows","10.0","https://app.prolific.com/","en-US,en;q=0.5","5e8f53644b34ff22d9b3a1c5","67949641171f97c04e14fb34","679c243359ab7d5053211f49","","null","<img     src='G_5.jpg' height='90'> <img     src='G_8.jpg' height='90'> <img     src='G_6.jpg' height='90'> <img      src='G_7.jpg' height='90'> <img   src='G_4.jpg' height='90'> <img id='selected'      src='G_3.jpg' height='90'> <img id='selected' src='G_2.jpg' height='90'> <img src='G_1.jpg' height='90'>","null","Animation1",""
"","","","","","html-keyboard-response","134","271513","0.0-98.0","60","1","2025-01-31 01:17:26","af8d355d56820e421d246a7037deb6e6","75.248.89.36","Mozilla/5.0 (Windows NT 10.0; Win64; x64; rv:134.0) Gecko/20100101 Firefox/134.0","","Firefox","134.0","Windows","10.0","https://app.prolific.com/","en-US,en;q=0.5","5e8f53644b34ff22d9b3a1c5","67949641171f97c04e14fb34","679c243359ab7d5053211f49","","null","<img     src='G_5.jpg' height='90'> <img     src='G_8.jpg' height='90'> <img     src='G_6.jpg' height='90'> <img      src='G_7.jpg' height='90'> <img   src='G_4.jpg' height='90'> <img       src='G_3.jpg' height='90'> <img  src='G_2.jpg' height='90'> <img src='G_1.jpg' height='90'>","null","Animation1",""
"","","","","","html-keyboard-response","135","272019","0.0-99.0","60","1","2025-01-31 01:17:26","af8d355d56820e421d246a7037deb6e6","75.248.89.36","Mozilla/5.0 (Windows NT 10.0; Win64; x64; rv:134.0) Gecko/20100101 Firefox/134.0","","Firefox","134.0","Windows","10.0","https://app.prolific.com/","en-US,en;q=0.5","5e8f53644b34ff22d9b3a1c5","67949641171f97c04e14fb34","679c243359ab7d5053211f49","","null","<img     src='G_5.jpg' height='90'> <img     src='G_8.jpg' height='90'> <img     src='G_6.jpg' height='90'> <img      src='G_7.jpg' height='90'> <img   src='G_4.jpg' height='90'> <img       src='G_3.jpg' height='90'> <img id='selected'  src='G_2.jpg' height='90'> <img src='G_1.jpg' height='90'>","null","Animation1",""
"","","","","","html-keyboard-response","136","272525","0.0-100.0","60","1","2025-01-31 01:17:26","af8d355d56820e421d246a7037deb6e6","75.248.89.36","Mozilla/5.0 (Windows NT 10.0; Win64; x64; rv:134.0) Gecko/20100101 Firefox/134.0","","Firefox","134.0","Windows","10.0","https://app.prolific.com/","en-US,en;q=0.5","5e8f53644b34ff22d9b3a1c5","67949641171f97c04e14fb34","679c243359ab7d5053211f49","","null","<img     src='G_5.jpg' height='90'> <img     src='G_8.jpg' height='90'> <img     src='G_6.jpg' height='90'> <img      src='G_7.jpg' height='90'> <img   src='G_4.jpg' height='90'> <img       src='G_3.jpg' height='90'> <img id='selected'  src='G_2.jpg' height='90'> <img id='selected' src='G_1.jpg' height='90'>","null","Animation1",""
"","","","","","html-keyboard-response","137","273046","0.0-101.0","60","1","2025-01-31 01:17:26","af8d355d56820e421d246a7037deb6e6","75.248.89.36","Mozilla/5.0 (Windows NT 10.0; Win64; x64; rv:134.0) Gecko/20100101 Firefox/134.0","","Firefox","134.0","Windows","10.0","https://app.prolific.com/","en-US,en;q=0.5","5e8f53644b34ff22d9b3a1c5","67949641171f97c04e14fb34","679c243359ab7d5053211f49","","null","<img     src='G_5.jpg' height='90'> <img     src='G_8.jpg' height='90'> <img     src='G_6.jpg' height='90'> <img      src='G_7.jpg' height='90'> <img   src='G_4.jpg' height='90'> <img       src='G_3.jpg' height='90'> <img id='swapped' src='G_1.jpg' height='90'> <img id='swapped'  src='G_2.jpg' height='90'>","null","Animation1",""
"","","","","","html-keyboard-response","138","273356","0.0-102.0","60","1","2025-01-31 01:17:26","af8d355d56820e421d246a7037deb6e6","75.248.89.36","Mozilla/5.0 (Windows NT 10.0; Win64; x64; rv:134.0) Gecko/20100101 Firefox/134.0","","Firefox","134.0","Windows","10.0","https://app.prolific.com/","en-US,en;q=0.5","5e8f53644b34ff22d9b3a1c5","67949641171f97c04e14fb34","679c243359ab7d5053211f49","","null","<img     src='G_5.jpg' height='90'> <img     src='G_8.jpg' height='90'> <img     src='G_6.jpg' height='90'> <img      src='G_7.jpg' height='90'> <img   src='G_4.jpg' height='90'> <img       src='G_3.jpg' height='90'> <img  src='G_1.jpg' height='90'> <img   src='G_2.jpg' height='90'>","null","Animation1",""
"","","","","","html-keyboard-response","139","273867","0.0-103.0","60","1","2025-01-31 01:17:26","af8d355d56820e421d246a7037deb6e6","75.248.89.36","Mozilla/5.0 (Windows NT 10.0; Win64; x64; rv:134.0) Gecko/20100101 Firefox/134.0","","Firefox","134.0","Windows","10.0","https://app.prolific.com/","en-US,en;q=0.5","5e8f53644b34ff22d9b3a1c5","67949641171f97c04e14fb34","679c243359ab7d5053211f49","","null","<img     src='G_5.jpg' height='90'> <img     src='G_8.jpg' height='90'> <img     src='G_6.jpg' height='90'> <img      src='G_7.jpg' height='90'> <img   src='G_4.jpg' height='90'> <img id='selected'       src='G_3.jpg' height='90'> <img  src='G_1.jpg' height='90'> <img   src='G_2.jpg' height='90'>","null","Animation1",""
"","","","","","html-keyboard-response","140","274381","0.0-104.0","60","1","2025-01-31 01:17:26","af8d355d56820e421d246a7037deb6e6","75.248.89.36","Mozilla/5.0 (Windows NT 10.0; Win64; x64; rv:134.0) Gecko/20100101 Firefox/134.0","","Firefox","134.0","Windows","10.0","https://app.prolific.com/","en-US,en;q=0.5","5e8f53644b34ff22d9b3a1c5","67949641171f97c04e14fb34","679c243359ab7d5053211f49","","null","<img     src='G_5.jpg' height='90'> <img     src='G_8.jpg' height='90'> <img     src='G_6.jpg' height='90'> <img      src='G_7.jpg' height='90'> <img   src='G_4.jpg' height='90'> <img id='selected'       src='G_3.jpg' height='90'> <img id='selected'  src='G_1.jpg' height='90'> <img   src='G_2.jpg' height='90'>","null","Animation1",""
"","","","","","html-keyboard-response","141","274905","0.0-105.0","60","1","2025-01-31 01:17:26","af8d355d56820e421d246a7037deb6e6","75.248.89.36","Mozilla/5.0 (Windows NT 10.0; Win64; x64; rv:134.0) Gecko/20100101 Firefox/134.0","","Firefox","134.0","Windows","10.0","https://app.prolific.com/","en-US,en;q=0.5","5e8f53644b34ff22d9b3a1c5","67949641171f97c04e14fb34","679c243359ab7d5053211f49","","null","<img     src='G_5.jpg' height='90'> <img     src='G_8.jpg' height='90'> <img     src='G_6.jpg' height='90'> <img      src='G_7.jpg' height='90'> <img   src='G_4.jpg' height='90'> <img id='selected'       src='G_3.jpg' height='90'> <img id='selected'  src='G_1.jpg' height='90'> <img   src='G_2.jpg' height='90'>","null","Animation1",""
"","","","","","html-keyboard-response","142","275214","0.0-106.0","60","1","2025-01-31 01:17:26","af8d355d56820e421d246a7037deb6e6","75.248.89.36","Mozilla/5.0 (Windows NT 10.0; Win64; x64; rv:134.0) Gecko/20100101 Firefox/134.0","","Firefox","134.0","Windows","10.0","https://app.prolific.com/","en-US,en;q=0.5","5e8f53644b34ff22d9b3a1c5","67949641171f97c04e14fb34","679c243359ab7d5053211f49","","null","<img     src='G_5.jpg' height='90'> <img     src='G_8.jpg' height='90'> <img     src='G_6.jpg' height='90'> <img      src='G_7.jpg' height='90'> <img   src='G_4.jpg' height='90'> <img        src='G_3.jpg' height='90'> <img   src='G_1.jpg' height='90'> <img   src='G_2.jpg' height='90'>","null","Animation1",""
"","","","","","html-keyboard-response","143","278103","0.0-107.0","60","1","2025-01-31 01:17:26","af8d355d56820e421d246a7037deb6e6","75.248.89.36","Mozilla/5.0 (Windows NT 10.0; Win64; x64; rv:134.0) Gecko/20100101 Firefox/134.0","","Firefox","134.0","Windows","10.0","https://app.prolific.com/","en-US,en;q=0.5","5e8f53644b34ff22d9b3a1c5","67949641171f97c04e14fb34","679c243359ab7d5053211f49","","2884","[""Did you notice any patterns? <br><br>Press Enter to watch that example again and follow the steps of Omgne Sort.""]","enter","",""
"","","","","","html-button-response","144","278510","0.0-108.0","60","1","2025-01-31 01:17:26","af8d355d56820e421d246a7037deb6e6","75.248.89.36","Mozilla/5.0 (Windows NT 10.0; Win64; x64; rv:134.0) Gecko/20100101 Firefox/134.0","","Firefox","134.0","Windows","10.0","https://app.prolific.com/","en-US,en;q=0.5","5e8f53644b34ff22d9b3a1c5","67949641171f97c04e14fb34","679c243359ab7d5053211f49","","null","<img id='selected' src='G_7.jpg' height='90'> <img src='G_3.jpg' height='90'> <img src='G_6.jpg' height='90'> <img src='G_5.jpg' height='90'> <img src='G_8.jpg' height='90'> <img src='G_4.jpg' height='90'> <img src='G_2.jpg' height='90'> <img src='G_1.jpg' height='90'>","null","Learning example 1",""
"","","","","","html-button-response","145","278831","0.0-109.0","60","1","2025-01-31 01:17:26","af8d355d56820e421d246a7037deb6e6","75.248.89.36","Mozilla/5.0 (Windows NT 10.0; Win64; x64; rv:134.0) Gecko/20100101 Firefox/134.0","","Firefox","134.0","Windows","10.0","https://app.prolific.com/","en-US,en;q=0.5","5e8f53644b34ff22d9b3a1c5","67949641171f97c04e14fb34","679c243359ab7d5053211f49","","null","<img id='selected' src='G_7.jpg' height='90'> <img id='selected' src='G_3.jpg' height='90'> <img src='G_6.jpg' height='90'> <img src='G_5.jpg' height='90'> <img src='G_8.jpg' height='90'> <img src='G_4.jpg' height='90'> <img src='G_2.jpg' height='90'> <img src='G_1.jpg' height='90'>","null","Learning example 1",""
"","","","","","html-button-response","146","279155","0.0-110.0","60","1","2025-01-31 01:17:26","af8d355d56820e421d246a7037deb6e6","75.248.89.36","Mozilla/5.0 (Windows NT 10.0; Win64; x64; rv:134.0) Gecko/20100101 Firefox/134.0","","Firefox","134.0","Windows","10.0","https://app.prolific.com/","en-US,en;q=0.5","5e8f53644b34ff22d9b3a1c5","67949641171f97c04e14fb34","679c243359ab7d5053211f49","","null","<img id='selected' src='G_7.jpg' height='90'> <img id='selected' src='G_3.jpg' height='90'> <img src='G_6.jpg' height='90'> <img src='G_5.jpg' height='90'> <img src='G_8.jpg' height='90'> <img src='G_4.jpg' height='90'> <img src='G_2.jpg' height='90'> <img src='G_1.jpg' height='90'>","null","Learning example 1",""
"","","","","","html-button-response","147","280801","0.0-111.0-0.0-0.0","60","1","2025-01-31 01:17:26","af8d355d56820e421d246a7037deb6e6","75.248.89.36","Mozilla/5.0 (Windows NT 10.0; Win64; x64; rv:134.0) Gecko/20100101 Firefox/134.0","","Firefox","134.0","Windows","10.0","https://app.prolific.com/","en-US,en;q=0.5","5e8f53644b34ff22d9b3a1c5","67949641171f97c04e14fb34","679c243359ab7d5053211f49","","1640","<img id='selected' src='G_7.jpg' height='90'> <img id='selected' src='G_3.jpg' height='90'> <img src='G_6.jpg' height='90'> <img src='G_5.jpg' height='90'> <img src='G_8.jpg' height='90'> <img src='G_4.jpg' height='90'> <img src='G_2.jpg' height='90'> <img src='G_1.jpg' height='90'>","0","Learning example 1",""
"","","","","","html-button-response","148","281381","0.0-111.1-0.1-0.1","60","1","2025-01-31 01:17:26","af8d355d56820e421d246a7037deb6e6","75.248.89.36","Mozilla/5.0 (Windows NT 10.0; Win64; x64; rv:134.0) Gecko/20100101 Firefox/134.0","","Firefox","134.0","Windows","10.0","https://app.prolific.com/","en-US,en;q=0.5","5e8f53644b34ff22d9b3a1c5","67949641171f97c04e14fb34","679c243359ab7d5053211f49","","576","<img id='selected' src='G_7.jpg' height='90'> <img id='selected' src='G_3.jpg' height='90'> <img src='G_6.jpg' height='90'> <img src='G_5.jpg' height='90'> <img src='G_8.jpg' height='90'> <img src='G_4.jpg' height='90'> <img src='G_2.jpg' height='90'> <img src='G_1.jpg' height='90'>","1","Learning example 1",""
"","","","","","html-button-response","149","281594","0.0-112.0","60","1","2025-01-31 01:17:26","af8d355d56820e421d246a7037deb6e6","75.248.89.36","Mozilla/5.0 (Windows NT 10.0; Win64; x64; rv:134.0) Gecko/20100101 Firefox/134.0","","Firefox","134.0","Windows","10.0","https://app.prolific.com/","en-US,en;q=0.5","5e8f53644b34ff22d9b3a1c5","67949641171f97c04e14fb34","679c243359ab7d5053211f49","","null","<img  src='G_7.jpg' height='90'> <img  src='G_3.jpg' height='90'> <img src='G_6.jpg' height='90'> <img src='G_5.jpg' height='90'> <img src='G_8.jpg' height='90'> <img src='G_4.jpg' height='90'> <img src='G_2.jpg' height='90'> <img src='G_1.jpg' height='90'>","null","Learning example 1",""
"","","","","","html-button-response","150","282011","0.0-113.0","60","1","2025-01-31 01:17:26","af8d355d56820e421d246a7037deb6e6","75.248.89.36","Mozilla/5.0 (Windows NT 10.0; Win64; x64; rv:134.0) Gecko/20100101 Firefox/134.0","","Firefox","134.0","Windows","10.0","https://app.prolific.com/","en-US,en;q=0.5","5e8f53644b34ff22d9b3a1c5","67949641171f97c04e14fb34","679c243359ab7d5053211f49","","null","<img  src='G_7.jpg' height='90'> <img id='selected'  src='G_3.jpg' height='90'> <img src='G_6.jpg' height='90'> <img src='G_5.jpg' height='90'> <img src='G_8.jpg' height='90'> <img src='G_4.jpg' height='90'> <img src='G_2.jpg' height='90'> <img src='G_1.jpg' height='90'>","null","Learning example 1",""
"","","","","","html-button-response","151","282323","0.0-114.0","60","1","2025-01-31 01:17:26","af8d355d56820e421d246a7037deb6e6","75.248.89.36","Mozilla/5.0 (Windows NT 10.0; Win64; x64; rv:134.0) Gecko/20100101 Firefox/134.0","","Firefox","134.0","Windows","10.0","https://app.prolific.com/","en-US,en;q=0.5","5e8f53644b34ff22d9b3a1c5","67949641171f97c04e14fb34","679c243359ab7d5053211f49","","null","<img  src='G_7.jpg' height='90'> <img id='selected'  src='G_3.jpg' height='90'> <img id='selected' src='G_6.jpg' height='90'> <img src='G_5.jpg' height='90'> <img src='G_8.jpg' height='90'> <img src='G_4.jpg' height='90'> <img src='G_2.jpg' height='90'> <img src='G_1.jpg' height='90'>","null","Learning example 1",""
"","","","","","html-button-response","152","282648","0.0-115.0","60","1","2025-01-31 01:17:26","af8d355d56820e421d246a7037deb6e6","75.248.89.36","Mozilla/5.0 (Windows NT 10.0; Win64; x64; rv:134.0) Gecko/20100101 Firefox/134.0","","Firefox","134.0","Windows","10.0","https://app.prolific.com/","en-US,en;q=0.5","5e8f53644b34ff22d9b3a1c5","67949641171f97c04e14fb34","679c243359ab7d5053211f49","","null","<img  src='G_7.jpg' height='90'> <img id='swapped' src='G_6.jpg' height='90'> <img id='swapped'  src='G_3.jpg' height='90'> <img src='G_5.jpg' height='90'> <img src='G_8.jpg' height='90'> <img src='G_4.jpg' height='90'> <img src='G_2.jpg' height='90'> <img src='G_1.jpg' height='90'>","null","Learning example 1",""
"","","","","","html-button-response","153","284274","0.0-116.0-0.0-0.0","60","1","2025-01-31 01:17:26","af8d355d56820e421d246a7037deb6e6","75.248.89.36","Mozilla/5.0 (Windows NT 10.0; Win64; x64; rv:134.0) Gecko/20100101 Firefox/134.0","","Firefox","134.0","Windows","10.0","https://app.prolific.com/","en-US,en;q=0.5","5e8f53644b34ff22d9b3a1c5","67949641171f97c04e14fb34","679c243359ab7d5053211f49","","1617","<img  src='G_7.jpg' height='90'> <img id='swapped' src='G_6.jpg' height='90'> <img id='swapped'  src='G_3.jpg' height='90'> <img src='G_5.jpg' height='90'> <img src='G_8.jpg' height='90'> <img src='G_4.jpg' height='90'> <img src='G_2.jpg' height='90'> <img src='G_1.jpg' height='90'>","1","Learning example 1",""
"","","","","","html-button-response","154","284826","0.0-116.1-0.1-0.1","60","1","2025-01-31 01:17:26","af8d355d56820e421d246a7037deb6e6","75.248.89.36","Mozilla/5.0 (Windows NT 10.0; Win64; x64; rv:134.0) Gecko/20100101 Firefox/134.0","","Firefox","134.0","Windows","10.0","https://app.prolific.com/","en-US,en;q=0.5","5e8f53644b34ff22d9b3a1c5","67949641171f97c04e14fb34","679c243359ab7d5053211f49","","545","<img  src='G_7.jpg' height='90'> <img id='swapped' src='G_6.jpg' height='90'> <img id='swapped'  src='G_3.jpg' height='90'> <img src='G_5.jpg' height='90'> <img src='G_8.jpg' height='90'> <img src='G_4.jpg' height='90'> <img src='G_2.jpg' height='90'> <img src='G_1.jpg' height='90'>","2","Learning example 1",""
"","","","","","html-button-response","155","285037","0.0-117.0","60","1","2025-01-31 01:17:26","af8d355d56820e421d246a7037deb6e6","75.248.89.36","Mozilla/5.0 (Windows NT 10.0; Win64; x64; rv:134.0) Gecko/20100101 Firefox/134.0","","Firefox","134.0","Windows","10.0","https://app.prolific.com/","en-US,en;q=0.5","5e8f53644b34ff22d9b3a1c5","67949641171f97c04e14fb34","679c243359ab7d5053211f49","","null","<img  src='G_7.jpg' height='90'> <img  src='G_6.jpg' height='90'> <img   src='G_3.jpg' height='90'> <img src='G_5.jpg' height='90'> <img src='G_8.jpg' height='90'> <img src='G_4.jpg' height='90'> <img src='G_2.jpg' height='90'> <img src='G_1.jpg' height='90'>","null","Learning example 1",""
"","","","","","html-button-response","156","285453","0.0-118.0","60","1","2025-01-31 01:17:26","af8d355d56820e421d246a7037deb6e6","75.248.89.36","Mozilla/5.0 (Windows NT 10.0; Win64; x64; rv:134.0) Gecko/20100101 Firefox/134.0","","Firefox","134.0","Windows","10.0","https://app.prolific.com/","en-US,en;q=0.5","5e8f53644b34ff22d9b3a1c5","67949641171f97c04e14fb34","679c243359ab7d5053211f49","","null","<img id='selected'  src='G_7.jpg' height='90'> <img  src='G_6.jpg' height='90'> <img   src='G_3.jpg' height='90'> <img src='G_5.jpg' height='90'> <img src='G_8.jpg' height='90'> <img src='G_4.jpg' height='90'> <img src='G_2.jpg' height='90'> <img src='G_1.jpg' height='90'>","null","Learning example 1",""
"","","","","","html-button-response","157","285761","0.0-119.0","60","1","2025-01-31 01:17:26","af8d355d56820e421d246a7037deb6e6","75.248.89.36","Mozilla/5.0 (Windows NT 10.0; Win64; x64; rv:134.0) Gecko/20100101 Firefox/134.0","","Firefox","134.0","Windows","10.0","https://app.prolific.com/","en-US,en;q=0.5","5e8f53644b34ff22d9b3a1c5","67949641171f97c04e14fb34","679c243359ab7d5053211f49","","null","<img id='selected'  src='G_7.jpg' height='90'> <img id='selected'  src='G_6.jpg' height='90'> <img   src='G_3.jpg' height='90'> <img src='G_5.jpg' height='90'> <img src='G_8.jpg' height='90'> <img src='G_4.jpg' height='90'> <img src='G_2.jpg' height='90'> <img src='G_1.jpg' height='90'>","null","Learning example 1",""
"","","","","","html-button-response","158","286068","0.0-120.0","60","1","2025-01-31 01:17:26","af8d355d56820e421d246a7037deb6e6","75.248.89.36","Mozilla/5.0 (Windows NT 10.0; Win64; x64; rv:134.0) Gecko/20100101 Firefox/134.0","","Firefox","134.0","Windows","10.0","https://app.prolific.com/","en-US,en;q=0.5","5e8f53644b34ff22d9b3a1c5","67949641171f97c04e14fb34","679c243359ab7d5053211f49","","null","<img id='swapped'  src='G_6.jpg' height='90'> <img id='swapped'  src='G_7.jpg' height='90'> <img   src='G_3.jpg' height='90'> <img src='G_5.jpg' height='90'> <img src='G_8.jpg' height='90'> <img src='G_4.jpg' height='90'> <img src='G_2.jpg' height='90'> <img src='G_1.jpg' height='90'>","null","Learning example 1",""
"","","","","","html-button-response","159","287175","0.0-121.0-0.0-0.0","60","1","2025-01-31 01:17:26","af8d355d56820e421d246a7037deb6e6","75.248.89.36","Mozilla/5.0 (Windows NT 10.0; Win64; x64; rv:134.0) Gecko/20100101 Firefox/134.0","","Firefox","134.0","Windows","10.0","https://app.prolific.com/","en-US,en;q=0.5","5e8f53644b34ff22d9b3a1c5","67949641171f97c04e14fb34","679c243359ab7d5053211f49","","1102","<img id='swapped'  src='G_6.jpg' height='90'> <img id='swapped'  src='G_7.jpg' height='90'> <img   src='G_3.jpg' height='90'> <img src='G_5.jpg' height='90'> <img src='G_8.jpg' height='90'> <img src='G_4.jpg' height='90'> <img src='G_2.jpg' height='90'> <img src='G_1.jpg' height='90'>","0","Learning example 1",""
