"success","timeout","failed_images","failed_audio","failed_video","trial_type","trial_index","time_elapsed","internal_node_id","run_id","condition","recorded_at","source_code_version","ip","user_agent","device","browser","browser_version","platform","platform_version","referer","accept_language","PROLIFIC_PID","STUDY_ID","SESSION_ID","view_history","rt","stimulus","response","phase","question_order"
"true","false","[]","[]","[]","preload","0","1770","0.0-0.0","61","1","2025-01-31 01:17:30","af8d355d56820e421d246a7037deb6e6","98.153.62.15","Mozilla/5.0 (Windows NT 10.0; Win64; x64) AppleWebKit/537.36 (KHTML, like Gecko) Chrome/132.0.0.0 Safari/537.36","WebKit","Chrome","132.0.0.0","Windows","10.0","null","en-US,en;q=0.9","5f2047f472c1fd2eaf643c64","67949641171f97c04e14fb34","679c245fd927f5906bd15d09","","","","","",""
"","","","","","instructions","1","4860","0.0-1.0","61","1","2025-01-31 01:17:30","af8d355d56820e421d246a7037deb6e6","98.153.62.15","Mozilla/5.0 (Windows NT 10.0; Win64; x64) AppleWebKit/537.36 (KHTML, like Gecko) Chrome/132.0.0.0 Safari/537.36","WebKit","Chrome","132.0.0.0","Windows","10.0","null","en-US,en;q=0.9","5f2047f472c1fd2eaf643c64","67949641171f97c04e14fb34","679c245fd927f5906bd15d09","[{""page_index"":0,""viewing_time"":3087}]","3088","","","",""
"","","","","","html-keyboard-response","2","5376","0.0-2.0","61","1","2025-01-31 01:17:30","af8d355d56820e421d246a7037deb6e6","98.153.62.15","Mozilla/5.0 (Windows NT 10.0; Win64; x64) AppleWebKit/537.36 (KHTML, like Gecko) Chrome/132.0.0.0 Safari/537.36","WebKit","Chrome","132.0.0.0","Windows","10.0","null","en-US,en;q=0.9","5f2047f472c1fd2eaf643c64","67949641171f97c04e14fb34","679c245fd927f5906bd15d09","","null","<p> + <p/>","null","",""
"","","","","","instructions","3","155424","0.0-3.0","61","1","2025-01-31 01:17:30","af8d355d56820e421d246a7037deb6e6","98.153.62.15","Mozilla/5.0 (Windows NT 10.0; Win64; x64) AppleWebKit/537.36 (KHTML, like Gecko) Chrome/132.0.0.0 Safari/537.36","WebKit","Chrome","132.0.0.0","Windows","10.0","null","en-US,en;q=0.9","5f2047f472c1fd2eaf643c64","67949641171f97c04e14fb34","679c245fd927f5906bd15d09","[{""page_index"":0,""viewing_time"":29008},{""page_index"":1,""viewing_time"":75599},{""page_index"":2,""viewing_time"":19560},{""page_index"":3,""viewing_time"":11769},{""page_index"":4,""viewing_time"":14111}]","150047","","","",""
"","","","","","html-button-response","4","185265","0.0-4.0-0.0-0.0","61","1","2025-01-31 01:17:30","af8d355d56820e421d246a7037deb6e6","98.153.62.15","Mozilla/5.0 (Windows NT 10.0; Win64; x64) AppleWebKit/537.36 (KHTML, like Gecko) Chrome/132.0.0.0 Safari/537.36","WebKit","Chrome","132.0.0.0","Windows","10.0","null","en-US,en;q=0.9","5f2047f472c1fd2eaf643c64","67949641171f97c04e14fb34","679c245fd927f5906bd15d09","","29838","","1","Intro Trial",""
"","","","","","html-button-response","5","185905","0.0-4.1-0.1-0.1","61","1","2025-01-31 01:17:30","af8d355d56820e421d246a7037deb6e6","98.153.62.15","Mozilla/5.0 (Windows NT 10.0; Win64; x64) AppleWebKit/537.36 (KHTML, like Gecko) Chrome/132.0.0.0 Safari/537.36","WebKit","Chrome","132.0.0.0","Windows","10.0","null","en-US,en;q=0.9","5f2047f472c1fd2eaf643c64","67949641171f97c04e14fb34","679c245fd927f5906bd15d09","","638","","0","Intro Trial",""
"","","","","","html-button-response","6","188827","0.0-4.2-0.2-0.2","61","1","2025-01-31 01:17:30","af8d355d56820e421d246a7037deb6e6","98.153.62.15","Mozilla/5.0 (Windows NT 10.0; Win64; x64) AppleWebKit/537.36 (KHTML, like Gecko) Chrome/132.0.0.0 Safari/537.36","WebKit","Chrome","132.0.0.0","Windows","10.0","null","en-US,en;q=0.9","5f2047f472c1fd2eaf643c64","67949641171f97c04e14fb34","679c245fd927f5906bd15d09","","2920","","1","Intro Trial",""
"","","","","","html-button-response","7","189348","0.0-4.3-0.3-0.3","61","1","2025-01-31 01:17:30","af8d355d56820e421d246a7037deb6e6","98.153.62.15","Mozilla/5.0 (Windows NT 10.0; Win64; x64) AppleWebKit/537.36 (KHTML, like Gecko) Chrome/132.0.0.0 Safari/537.36","WebKit","Chrome","132.0.0.0","Windows","10.0","null","en-US,en;q=0.9","5f2047f472c1fd2eaf643c64","67949641171f97c04e14fb34","679c245fd927f5906bd15d09","","519","","0","Intro Trial",""
"","","","","","html-button-response","8","191175","0.0-4.4-0.4-0.4","61","1","2025-01-31 01:17:30","af8d355d56820e421d246a7037deb6e6","98.153.62.15","Mozilla/5.0 (Windows NT 10.0; Win64; x64) AppleWebKit/537.36 (KHTML, like Gecko) Chrome/132.0.0.0 Safari/537.36","WebKit","Chrome","132.0.0.0","Windows","10.0","null","en-US,en;q=0.9","5f2047f472c1fd2eaf643c64","67949641171f97c04e14fb34","679c245fd927f5906bd15d09","","1825","","1","Intro Trial",""
"","","","","","html-button-response","9","191705","0.0-4.5-0.5-0.5","61","1","2025-01-31 01:17:30","af8d355d56820e421d246a7037deb6e6","98.153.62.15","Mozilla/5.0 (Windows NT 10.0; Win64; x64) AppleWebKit/537.36 (KHTML, like Gecko) Chrome/132.0.0.0 Safari/537.36","WebKit","Chrome","132.0.0.0","Windows","10.0","null","en-US,en;q=0.9","5f2047f472c1fd2eaf643c64","67949641171f97c04e14fb34","679c245fd927f5906bd15d09","","528","","0","Intro Trial",""
"","","","","","html-button-response","10","194368","0.0-4.6-0.6-0.6","61","1","2025-01-31 01:17:30","af8d355d56820e421d246a7037deb6e6","98.153.62.15","Mozilla/5.0 (Windows NT 10.0; Win64; x64) AppleWebKit/537.36 (KHTML, like Gecko) Chrome/132.0.0.0 Safari/537.36","WebKit","Chrome","132.0.0.0","Windows","10.0","null","en-US,en;q=0.9","5f2047f472c1fd2eaf643c64","67949641171f97c04e14fb34","679c245fd927f5906bd15d09","","2660","","3","Intro Trial",""
"","","","","","html-button-response","11","194968","0.0-4.7-0.7-0.7","61","1","2025-01-31 01:17:30","af8d355d56820e421d246a7037deb6e6","98.153.62.15","Mozilla/5.0 (Windows NT 10.0; Win64; x64) AppleWebKit/537.36 (KHTML, like Gecko) Chrome/132.0.0.0 Safari/537.36","WebKit","Chrome","132.0.0.0","Windows","10.0","null","en-US,en;q=0.9","5f2047f472c1fd2eaf643c64","67949641171f97c04e14fb34","679c245fd927f5906bd15d09","","598","","1","Intro Trial",""
"","","","","","html-button-response","12","195922","0.0-4.8-0.8-0.8","61","1","2025-01-31 01:17:30","af8d355d56820e421d246a7037deb6e6","98.153.62.15","Mozilla/5.0 (Windows NT 10.0; Win64; x64) AppleWebKit/537.36 (KHTML, like Gecko) Chrome/132.0.0.0 Safari/537.36","WebKit","Chrome","132.0.0.0","Windows","10.0","null","en-US,en;q=0.9","5f2047f472c1fd2eaf643c64","67949641171f97c04e14fb34","679c245fd927f5906bd15d09","","952","","2","Intro Trial",""
"","","","","","html-button-response","13","196323","0.0-4.9-0.9-0.9","61","1","2025-01-31 01:17:30","af8d355d56820e421d246a7037deb6e6","98.153.62.15","Mozilla/5.0 (Windows NT 10.0; Win64; x64) AppleWebKit/537.36 (KHTML, like Gecko) Chrome/132.0.0.0 Safari/537.36","WebKit","Chrome","132.0.0.0","Windows","10.0","null","en-US,en;q=0.9","5f2047f472c1fd2eaf643c64","67949641171f97c04e14fb34","679c245fd927f5906bd15d09","","399","","1","Intro Trial",""
"","","","","","html-button-response","14","198918","0.0-4.10-0.10-0.10","61","1","2025-01-31 01:17:30","af8d355d56820e421d246a7037deb6e6","98.153.62.15","Mozilla/5.0 (Windows NT 10.0; Win64; x64) AppleWebKit/537.36 (KHTML, like Gecko) Chrome/132.0.0.0 Safari/537.36","WebKit","Chrome","132.0.0.0","Windows","10.0","null","en-US,en;q=0.9","5f2047f472c1fd2eaf643c64","67949641171f97c04e14fb34","679c245fd927f5906bd15d09","","2592","","3","Intro Trial",""
"","","","","","html-button-response","15","199369","0.0-4.11-0.11-0.11","61","1","2025-01-31 01:17:30","af8d355d56820e421d246a7037deb6e6","98.153.62.15","Mozilla/5.0 (Windows NT 10.0; Win64; x64) AppleWebKit/537.36 (KHTML, like Gecko) Chrome/132.0.0.0 Safari/537.36","WebKit","Chrome","132.0.0.0","Windows","10.0","null","en-US,en;q=0.9","5f2047f472c1fd2eaf643c64","67949641171f97c04e14fb34","679c245fd927f5906bd15d09","","449","","2","Intro Trial",""
"","","","","","html-button-response","16","200352","0.0-4.12-0.12-0.12","61","1","2025-01-31 01:17:30","af8d355d56820e421d246a7037deb6e6","98.153.62.15","Mozilla/5.0 (Windows NT 10.0; Win64; x64) AppleWebKit/537.36 (KHTML, like Gecko) Chrome/132.0.0.0 Safari/537.36","WebKit","Chrome","132.0.0.0","Windows","10.0","null","en-US,en;q=0.9","5f2047f472c1fd2eaf643c64","67949641171f97c04e14fb34","679c245fd927f5906bd15d09","","981","","4","Intro Trial",""
"","","","","","html-button-response","17","200898","0.0-4.13-0.13-0.13","61","1","2025-01-31 01:17:30","af8d355d56820e421d246a7037deb6e6","98.153.62.15","Mozilla/5.0 (Windows NT 10.0; Win64; x64) AppleWebKit/537.36 (KHTML, like Gecko) Chrome/132.0.0.0 Safari/537.36","WebKit","Chrome","132.0.0.0","Windows","10.0","null","en-US,en;q=0.9","5f2047f472c1fd2eaf643c64","67949641171f97c04e14fb34","679c245fd927f5906bd15d09","","544","","2","Intro Trial",""
"","","","","","html-button-response","18","201828","0.0-4.14-0.14-0.14","61","1","2025-01-31 01:17:30","af8d355d56820e421d246a7037deb6e6","98.153.62.15","Mozilla/5.0 (Windows NT 10.0; Win64; x64) AppleWebKit/537.36 (KHTML, like Gecko) Chrome/132.0.0.0 Safari/537.36","WebKit","Chrome","132.0.0.0","Windows","10.0","null","en-US,en;q=0.9","5f2047f472c1fd2eaf643c64","67949641171f97c04e14fb34","679c245fd927f5906bd15d09","","928","","3","Intro Trial",""
"","","","","","html-button-response","19","202306","0.0-4.15-0.15-0.15","61","1","2025-01-31 01:17:30","af8d355d56820e421d246a7037deb6e6","98.153.62.15","Mozilla/5.0 (Windows NT 10.0; Win64; x64) AppleWebKit/537.36 (KHTML, like Gecko) Chrome/132.0.0.0 Safari/537.36","WebKit","Chrome","132.0.0.0","Windows","10.0","null","en-US,en;q=0.9","5f2047f472c1fd2eaf643c64","67949641171f97c04e14fb34","679c245fd927f5906bd15d09","","476","","4","Intro Trial",""
"","","","","","html-button-response","20","206557","0.0-4.16-0.16-0.16","61","1","2025-01-31 01:17:30","af8d355d56820e421d246a7037deb6e6","98.153.62.15","Mozilla/5.0 (Windows NT 10.0; Win64; x64) AppleWebKit/537.36 (KHTML, like Gecko) Chrome/132.0.0.0 Safari/537.36","WebKit","Chrome","132.0.0.0","Windows","10.0","null","en-US,en;q=0.9","5f2047f472c1fd2eaf643c64","67949641171f97c04e14fb34","679c245fd927f5906bd15d09","","4248","","0","Intro Trial",""
"","","","","","html-button-response","21","207009","0.0-4.17-0.17-0.17","61","1","2025-01-31 01:17:30","af8d355d56820e421d246a7037deb6e6","98.153.62.15","Mozilla/5.0 (Windows NT 10.0; Win64; x64) AppleWebKit/537.36 (KHTML, like Gecko) Chrome/132.0.0.0 Safari/537.36","WebKit","Chrome","132.0.0.0","Windows","10.0","null","en-US,en;q=0.9","5f2047f472c1fd2eaf643c64","67949641171f97c04e14fb34","679c245fd927f5906bd15d09","","451","","1","Intro Trial",""
"","","","","","html-button-response","22","207748","0.0-4.18-0.18-0.18","61","1","2025-01-31 01:17:30","af8d355d56820e421d246a7037deb6e6","98.153.62.15","Mozilla/5.0 (Windows NT 10.0; Win64; x64) AppleWebKit/537.36 (KHTML, like Gecko) Chrome/132.0.0.0 Safari/537.36","WebKit","Chrome","132.0.0.0","Windows","10.0","null","en-US,en;q=0.9","5f2047f472c1fd2eaf643c64","67949641171f97c04e14fb34","679c245fd927f5906bd15d09","","737","","0","Intro Trial",""
"","","","","","html-button-response","23","208166","0.0-4.19-0.19-0.19","61","1","2025-01-31 01:17:30","af8d355d56820e421d246a7037deb6e6","98.153.62.15","Mozilla/5.0 (Windows NT 10.0; Win64; x64) AppleWebKit/537.36 (KHTML, like Gecko) Chrome/132.0.0.0 Safari/537.36","WebKit","Chrome","132.0.0.0","Windows","10.0","null","en-US,en;q=0.9","5f2047f472c1fd2eaf643c64","67949641171f97c04e14fb34","679c245fd927f5906bd15d09","","416","","2","Intro Trial",""
"","","","","","html-button-response","24","217038","0.0-4.20-0.20-0.20","61","1","2025-01-31 01:17:30","af8d355d56820e421d246a7037deb6e6","98.153.62.15","Mozilla/5.0 (Windows NT 10.0; Win64; x64) AppleWebKit/537.36 (KHTML, like Gecko) Chrome/132.0.0.0 Safari/537.36","WebKit","Chrome","132.0.0.0","Windows","10.0","null","en-US,en;q=0.9","5f2047f472c1fd2eaf643c64","67949641171f97c04e14fb34","679c245fd927f5906bd15d09","","8870","","1","Intro Trial",""
"","","","","","html-button-response","25","217446","0.0-4.21-0.21-0.21","61","1","2025-01-31 01:17:30","af8d355d56820e421d246a7037deb6e6","98.153.62.15","Mozilla/5.0 (Windows NT 10.0; Win64; x64) AppleWebKit/537.36 (KHTML, like Gecko) Chrome/132.0.0.0 Safari/537.36","WebKit","Chrome","132.0.0.0","Windows","10.0","null","en-US,en;q=0.9","5f2047f472c1fd2eaf643c64","67949641171f97c04e14fb34","679c245fd927f5906bd15d09","","406","","0","Intro Trial",""
"","","","","","html-button-response","26","218419","0.0-4.22-0.22-0.22","61","1","2025-01-31 01:17:30","af8d355d56820e421d246a7037deb6e6","98.153.62.15","Mozilla/5.0 (Windows NT 10.0; Win64; x64) AppleWebKit/537.36 (KHTML, like Gecko) Chrome/132.0.0.0 Safari/537.36","WebKit","Chrome","132.0.0.0","Windows","10.0","null","en-US,en;q=0.9","5f2047f472c1fd2eaf643c64","67949641171f97c04e14fb34","679c245fd927f5906bd15d09","","972","","0","Intro Trial",""
"","","","","","html-button-response","27","218952","0.0-4.23-0.23-0.23","61","1","2025-01-31 01:17:30","af8d355d56820e421d246a7037deb6e6","98.153.62.15","Mozilla/5.0 (Windows NT 10.0; Win64; x64) AppleWebKit/537.36 (KHTML, like Gecko) Chrome/132.0.0.0 Safari/537.36","WebKit","Chrome","132.0.0.0","Windows","10.0","null","en-US,en;q=0.9","5f2047f472c1fd2eaf643c64","67949641171f97c04e14fb34","679c245fd927f5906bd15d09","","531","","1","Intro Trial",""
"","","","","","html-button-response","28","220226","0.0-4.24-0.24-0.24","61","1","2025-01-31 01:17:30","af8d355d56820e421d246a7037deb6e6","98.153.62.15","Mozilla/5.0 (Windows NT 10.0; Win64; x64) AppleWebKit/537.36 (KHTML, like Gecko) Chrome/132.0.0.0 Safari/537.36","WebKit","Chrome","132.0.0.0","Windows","10.0","null","en-US,en;q=0.9","5f2047f472c1fd2eaf643c64","67949641171f97c04e14fb34","679c245fd927f5906bd15d09","","1272","","2","Intro Trial",""
"","","","","","html-button-response","29","220588","0.0-4.25-0.25-0.25","61","1","2025-01-31 01:17:30","af8d355d56820e421d246a7037deb6e6","98.153.62.15","Mozilla/5.0 (Windows NT 10.0; Win64; x64) AppleWebKit/537.36 (KHTML, like Gecko) Chrome/132.0.0.0 Safari/537.36","WebKit","Chrome","132.0.0.0","Windows","10.0","null","en-US,en;q=0.9","5f2047f472c1fd2eaf643c64","67949641171f97c04e14fb34","679c245fd927f5906bd15d09","","360","","3","Intro Trial",""
"","","","","","html-button-response","30","222322","0.0-4.26-0.26-0.26","61","1","2025-01-31 01:17:30","af8d355d56820e421d246a7037deb6e6","98.153.62.15","Mozilla/5.0 (Windows NT 10.0; Win64; x64) AppleWebKit/537.36 (KHTML, like Gecko) Chrome/132.0.0.0 Safari/537.36","WebKit","Chrome","132.0.0.0","Windows","10.0","null","en-US,en;q=0.9","5f2047f472c1fd2eaf643c64","67949641171f97c04e14fb34","679c245fd927f5906bd15d09","","1731","","2","Intro Trial",""
"","","","","","html-button-response","31","223012","0.0-4.27-0.27-0.27","61","1","2025-01-31 01:17:30","af8d355d56820e421d246a7037deb6e6","98.153.62.15","Mozilla/5.0 (Windows NT 10.0; Win64; x64) AppleWebKit/537.36 (KHTML, like Gecko) Chrome/132.0.0.0 Safari/537.36","WebKit","Chrome","132.0.0.0","Windows","10.0","null","en-US,en;q=0.9","5f2047f472c1fd2eaf643c64","67949641171f97c04e14fb34","679c245fd927f5906bd15d09","","688","","4","Intro Trial",""
"","","","","","html-button-response","32","223652","0.0-4.28-0.28-0.28","61","1","2025-01-31 01:17:30","af8d355d56820e421d246a7037deb6e6","98.153.62.15","Mozilla/5.0 (Windows NT 10.0; Win64; x64) AppleWebKit/537.36 (KHTML, like Gecko) Chrome/132.0.0.0 Safari/537.36","WebKit","Chrome","132.0.0.0","Windows","10.0","null","en-US,en;q=0.9","5f2047f472c1fd2eaf643c64","67949641171f97c04e14fb34","679c245fd927f5906bd15d09","","638","","4","Intro Trial",""
"","","","","","html-button-response","33","224006","0.0-4.29-0.29-0.29","61","1","2025-01-31 01:17:30","af8d355d56820e421d246a7037deb6e6","98.153.62.15","Mozilla/5.0 (Windows NT 10.0; Win64; x64) AppleWebKit/537.36 (KHTML, like Gecko) Chrome/132.0.0.0 Safari/537.36","WebKit","Chrome","132.0.0.0","Windows","10.0","null","en-US,en;q=0.9","5f2047f472c1fd2eaf643c64","67949641171f97c04e14fb34","679c245fd927f5906bd15d09","","351","","3","Intro Trial",""
"","","","","","html-button-response","34","231866","0.0-4.30-0.30-0.30","61","1","2025-01-31 01:17:30","af8d355d56820e421d246a7037deb6e6","98.153.62.15","Mozilla/5.0 (Windows NT 10.0; Win64; x64) AppleWebKit/537.36 (KHTML, like Gecko) Chrome/132.0.0.0 Safari/537.36","WebKit","Chrome","132.0.0.0","Windows","10.0","null","en-US,en;q=0.9","5f2047f472c1fd2eaf643c64","67949641171f97c04e14fb34","679c245fd927f5906bd15d09","","7858","","5","Intro Trial",""
"","","","","","html-keyboard-response","35","244713","0.0-5.0","61","1","2025-01-31 01:17:30","af8d355d56820e421d246a7037deb6e6","98.153.62.15","Mozilla/5.0 (Windows NT 10.0; Win64; x64) AppleWebKit/537.36 (KHTML, like Gecko) Chrome/132.0.0.0 Safari/537.36","WebKit","Chrome","132.0.0.0","Windows","10.0","null","en-US,en;q=0.9","5f2047f472c1fd2eaf643c64","67949641171f97c04e14fb34","679c245fd927f5906bd15d09","","12844","[""You sorted incorrectly by using the balance 15 times. <br><br> <img src='G_5.jpg' height='90'><img src='G_3.jpg' height='90'><img src='G_2.jpg' height='90'><img src='G_1.jpg' height='90'><img src='G_4.jpg' height='90'><br><br> Your final order is 1,3,2,4,5<br><br><br>Omgne Sort in this game will allow you to sort correctly by using the balance 8 times. Press Enter to learn it!""]","enter","",""
"","","","","","html-keyboard-response","36","286265","0.0-6.0","61","1","2025-01-31 01:17:30","af8d355d56820e421d246a7037deb6e6","98.153.62.15","Mozilla/5.0 (Windows NT 10.0; Win64; x64) AppleWebKit/537.36 (KHTML, like Gecko) Chrome/132.0.0.0 Safari/537.36","WebKit","Chrome","132.0.0.0","Windows","10.0","null","en-US,en;q=0.9","5f2047f472c1fd2eaf643c64","67949641171f97c04e14fb34","679c245fd927f5906bd15d09","","41551","<p>Welcome to the learning phase! <br><br> You will learn by six examples. The following learning trials will not be used to calculate your performance. <br><br> Press Enter to continue.<p/>","enter","",""
"","","","","","html-keyboard-response","37","296856","0.0-7.0","61","1","2025-01-31 01:17:30","af8d355d56820e421d246a7037deb6e6","98.153.62.15","Mozilla/5.0 (Windows NT 10.0; Win64; x64) AppleWebKit/537.36 (KHTML, like Gecko) Chrome/132.0.0.0 Safari/537.36","WebKit","Chrome","132.0.0.0","Windows","10.0","null","en-US,en;q=0.9","5f2047f472c1fd2eaf643c64","67949641171f97c04e14fb34","679c245fd927f5906bd15d09","","10589","[""Example 1<br><br>You will watch Omnge Sort in action. Try to identify any patterns in the comparisons made by this method. <br><br>Press Enter to continue.""]","enter","",""
"","","","","","html-keyboard-response","38","297361","0.0-8.0","61","1","2025-01-31 01:17:30","af8d355d56820e421d246a7037deb6e6","98.153.62.15","Mozilla/5.0 (Windows NT 10.0; Win64; x64) AppleWebKit/537.36 (KHTML, like Gecko) Chrome/132.0.0.0 Safari/537.36","WebKit","Chrome","132.0.0.0","Windows","10.0","null","en-US,en;q=0.9","5f2047f472c1fd2eaf643c64","67949641171f97c04e14fb34","679c245fd927f5906bd15d09","","null","<img id='selected' src='G_1.jpg' height='90'> <img src='G_9.jpg' height='90'> <img src='G_7.jpg' height='90'> <img src='G_3.jpg' height='90'> <img src='G_5.jpg' height='90'>","null","Animation0",""
"","","","","","html-keyboard-response","39","297866","0.0-9.0","61","1","2025-01-31 01:17:30","af8d355d56820e421d246a7037deb6e6","98.153.62.15","Mozilla/5.0 (Windows NT 10.0; Win64; x64) AppleWebKit/537.36 (KHTML, like Gecko) Chrome/132.0.0.0 Safari/537.36","WebKit","Chrome","132.0.0.0","Windows","10.0","null","en-US,en;q=0.9","5f2047f472c1fd2eaf643c64","67949641171f97c04e14fb34","679c245fd927f5906bd15d09","","null","<img id='selected' src='G_1.jpg' height='90'> <img id='selected' src='G_9.jpg' height='90'> <img src='G_7.jpg' height='90'> <img src='G_3.jpg' height='90'> <img src='G_5.jpg' height='90'>","null","Animation0",""
"","","","","","html-keyboard-response","40","298374","0.0-10.0","61","1","2025-01-31 01:17:30","af8d355d56820e421d246a7037deb6e6","98.153.62.15","Mozilla/5.0 (Windows NT 10.0; Win64; x64) AppleWebKit/537.36 (KHTML, like Gecko) Chrome/132.0.0.0 Safari/537.36","WebKit","Chrome","132.0.0.0","Windows","10.0","null","en-US,en;q=0.9","5f2047f472c1fd2eaf643c64","67949641171f97c04e14fb34","679c245fd927f5906bd15d09","","null","<img id='swapped' src='G_9.jpg' height='90'> <img id='swapped' src='G_1.jpg' height='90'> <img src='G_7.jpg' height='90'> <img src='G_3.jpg' height='90'> <img src='G_5.jpg' height='90'>","null","Animation0",""
"","","","","","html-keyboard-response","41","298688","0.0-11.0","61","1","2025-01-31 01:17:30","af8d355d56820e421d246a7037deb6e6","98.153.62.15","Mozilla/5.0 (Windows NT 10.0; Win64; x64) AppleWebKit/537.36 (KHTML, like Gecko) Chrome/132.0.0.0 Safari/537.36","WebKit","Chrome","132.0.0.0","Windows","10.0","null","en-US,en;q=0.9","5f2047f472c1fd2eaf643c64","67949641171f97c04e14fb34","679c245fd927f5906bd15d09","","null","<img  src='G_9.jpg' height='90'> <img  src='G_1.jpg' height='90'> <img src='G_7.jpg' height='90'> <img src='G_3.jpg' height='90'> <img src='G_5.jpg' height='90'>","null","Animation0",""
"","","","","","html-keyboard-response","42","299192","0.0-12.0","61","1","2025-01-31 01:17:30","af8d355d56820e421d246a7037deb6e6","98.153.62.15","Mozilla/5.0 (Windows NT 10.0; Win64; x64) AppleWebKit/537.36 (KHTML, like Gecko) Chrome/132.0.0.0 Safari/537.36","WebKit","Chrome","132.0.0.0","Windows","10.0","null","en-US,en;q=0.9","5f2047f472c1fd2eaf643c64","67949641171f97c04e14fb34","679c245fd927f5906bd15d09","","null","<img  src='G_9.jpg' height='90'> <img id='selected'  src='G_1.jpg' height='90'> <img src='G_7.jpg' height='90'> <img src='G_3.jpg' height='90'> <img src='G_5.jpg' height='90'>","null","Animation0",""
"","","","","","html-keyboard-response","43","299709","0.0-13.0","61","1","2025-01-31 01:17:30","af8d355d56820e421d246a7037deb6e6","98.153.62.15","Mozilla/5.0 (Windows NT 10.0; Win64; x64) AppleWebKit/537.36 (KHTML, like Gecko) Chrome/132.0.0.0 Safari/537.36","WebKit","Chrome","132.0.0.0","Windows","10.0","null","en-US,en;q=0.9","5f2047f472c1fd2eaf643c64","67949641171f97c04e14fb34","679c245fd927f5906bd15d09","","null","<img  src='G_9.jpg' height='90'> <img id='selected'  src='G_1.jpg' height='90'> <img id='selected' src='G_7.jpg' height='90'> <img src='G_3.jpg' height='90'> <img src='G_5.jpg' height='90'>","null","Animation0",""
"","","","","","html-keyboard-response","44","300226","0.0-14.0","61","1","2025-01-31 01:17:30","af8d355d56820e421d246a7037deb6e6","98.153.62.15","Mozilla/5.0 (Windows NT 10.0; Win64; x64) AppleWebKit/537.36 (KHTML, like Gecko) Chrome/132.0.0.0 Safari/537.36","WebKit","Chrome","132.0.0.0","Windows","10.0","null","en-US,en;q=0.9","5f2047f472c1fd2eaf643c64","67949641171f97c04e14fb34","679c245fd927f5906bd15d09","","null","<img  src='G_9.jpg' height='90'> <img id='selected'  src='G_1.jpg' height='90'> <img id='selected' src='G_7.jpg' height='90'> <img src='G_3.jpg' height='90'> <img src='G_5.jpg' height='90'>","null","Animation0",""
"","","","","","html-keyboard-response","45","300529","0.0-15.0","61","1","2025-01-31 01:17:30","af8d355d56820e421d246a7037deb6e6","98.153.62.15","Mozilla/5.0 (Windows NT 10.0; Win64; x64) AppleWebKit/537.36 (KHTML, like Gecko) Chrome/132.0.0.0 Safari/537.36","WebKit","Chrome","132.0.0.0","Windows","10.0","null","en-US,en;q=0.9","5f2047f472c1fd2eaf643c64","67949641171f97c04e14fb34","679c245fd927f5906bd15d09","","null","<img  src='G_9.jpg' height='90'> <img   src='G_1.jpg' height='90'> <img  src='G_7.jpg' height='90'> <img src='G_3.jpg' height='90'> <img src='G_5.jpg' height='90'>","null","Animation0",""
"","","","","","html-keyboard-response","46","301045","0.0-16.0","61","1","2025-01-31 01:17:30","af8d355d56820e421d246a7037deb6e6","98.153.62.15","Mozilla/5.0 (Windows NT 10.0; Win64; x64) AppleWebKit/537.36 (KHTML, like Gecko) Chrome/132.0.0.0 Safari/537.36","WebKit","Chrome","132.0.0.0","Windows","10.0","null","en-US,en;q=0.9","5f2047f472c1fd2eaf643c64","67949641171f97c04e14fb34","679c245fd927f5906bd15d09","","null","<img  src='G_9.jpg' height='90'> <img   src='G_1.jpg' height='90'> <img id='selected'  src='G_7.jpg' height='90'> <img src='G_3.jpg' height='90'> <img src='G_5.jpg' height='90'>","null","Animation0",""
"","","","","","html-keyboard-response","47","301563","0.0-17.0","61","1","2025-01-31 01:17:30","af8d355d56820e421d246a7037deb6e6","98.153.62.15","Mozilla/5.0 (Windows NT 10.0; Win64; x64) AppleWebKit/537.36 (KHTML, like Gecko) Chrome/132.0.0.0 Safari/537.36","WebKit","Chrome","132.0.0.0","Windows","10.0","null","en-US,en;q=0.9","5f2047f472c1fd2eaf643c64","67949641171f97c04e14fb34","679c245fd927f5906bd15d09","","null","<img  src='G_9.jpg' height='90'> <img   src='G_1.jpg' height='90'> <img id='selected'  src='G_7.jpg' height='90'> <img id='selected' src='G_3.jpg' height='90'> <img src='G_5.jpg' height='90'>","null","Animation0",""
"","","","","","html-keyboard-response","48","302076","0.0-18.0","61","1","2025-01-31 01:17:30","af8d355d56820e421d246a7037deb6e6","98.153.62.15","Mozilla/5.0 (Windows NT 10.0; Win64; x64) AppleWebKit/537.36 (KHTML, like Gecko) Chrome/132.0.0.0 Safari/537.36","WebKit","Chrome","132.0.0.0","Windows","10.0","null","en-US,en;q=0.9","5f2047f472c1fd2eaf643c64","67949641171f97c04e14fb34","679c245fd927f5906bd15d09","","null","<img  src='G_9.jpg' height='90'> <img   src='G_1.jpg' height='90'> <img id='selected'  src='G_7.jpg' height='90'> <img id='selected' src='G_3.jpg' height='90'> <img src='G_5.jpg' height='90'>","null","Animation0",""
"","","","","","html-keyboard-response","49","302389","0.0-19.0","61","1","2025-01-31 01:17:30","af8d355d56820e421d246a7037deb6e6","98.153.62.15","Mozilla/5.0 (Windows NT 10.0; Win64; x64) AppleWebKit/537.36 (KHTML, like Gecko) Chrome/132.0.0.0 Safari/537.36","WebKit","Chrome","132.0.0.0","Windows","10.0","null","en-US,en;q=0.9","5f2047f472c1fd2eaf643c64","67949641171f97c04e14fb34","679c245fd927f5906bd15d09","","null","<img  src='G_9.jpg' height='90'> <img   src='G_1.jpg' height='90'> <img   src='G_7.jpg' height='90'> <img  src='G_3.jpg' height='90'> <img src='G_5.jpg' height='90'>","null","Animation0",""
"","","","","","html-keyboard-response","50","302899","0.0-20.0","61","1","2025-01-31 01:17:30","af8d355d56820e421d246a7037deb6e6","98.153.62.15","Mozilla/5.0 (Windows NT 10.0; Win64; x64) AppleWebKit/537.36 (KHTML, like Gecko) Chrome/132.0.0.0 Safari/537.36","WebKit","Chrome","132.0.0.0","Windows","10.0","null","en-US,en;q=0.9","5f2047f472c1fd2eaf643c64","67949641171f97c04e14fb34","679c245fd927f5906bd15d09","","null","<img  src='G_9.jpg' height='90'> <img   src='G_1.jpg' height='90'> <img   src='G_7.jpg' height='90'> <img id='selected'  src='G_3.jpg' height='90'> <img src='G_5.jpg' height='90'>","null","Animation0",""
"","","","","","html-keyboard-response","51","303411","0.0-21.0","61","1","2025-01-31 01:17:30","af8d355d56820e421d246a7037deb6e6","98.153.62.15","Mozilla/5.0 (Windows NT 10.0; Win64; x64) AppleWebKit/537.36 (KHTML, like Gecko) Chrome/132.0.0.0 Safari/537.36","WebKit","Chrome","132.0.0.0","Windows","10.0","null","en-US,en;q=0.9","5f2047f472c1fd2eaf643c64","67949641171f97c04e14fb34","679c245fd927f5906bd15d09","","null","<img  src='G_9.jpg' height='90'> <img   src='G_1.jpg' height='90'> <img   src='G_7.jpg' height='90'> <img id='selected'  src='G_3.jpg' height='90'> <img id='selected' src='G_5.jpg' height='90'>","null","Animation0",""
"","","","","","html-keyboard-response","52","303930","0.0-22.0","61","1","2025-01-31 01:17:30","af8d355d56820e421d246a7037deb6e6","98.153.62.15","Mozilla/5.0 (Windows NT 10.0; Win64; x64) AppleWebKit/537.36 (KHTML, like Gecko) Chrome/132.0.0.0 Safari/537.36","WebKit","Chrome","132.0.0.0","Windows","10.0","null","en-US,en;q=0.9","5f2047f472c1fd2eaf643c64","67949641171f97c04e14fb34","679c245fd927f5906bd15d09","","null","<img  src='G_9.jpg' height='90'> <img   src='G_1.jpg' height='90'> <img   src='G_7.jpg' height='90'> <img id='selected'  src='G_3.jpg' height='90'> <img id='selected' src='G_5.jpg' height='90'>","null","Animation0",""
"","","","","","html-keyboard-response","53","304240","0.0-23.0","61","1","2025-01-31 01:17:30","af8d355d56820e421d246a7037deb6e6","98.153.62.15","Mozilla/5.0 (Windows NT 10.0; Win64; x64) AppleWebKit/537.36 (KHTML, like Gecko) Chrome/132.0.0.0 Safari/537.36","WebKit","Chrome","132.0.0.0","Windows","10.0","null","en-US,en;q=0.9","5f2047f472c1fd2eaf643c64","67949641171f97c04e14fb34","679c245fd927f5906bd15d09","","null","<img  src='G_9.jpg' height='90'> <img   src='G_1.jpg' height='90'> <img   src='G_7.jpg' height='90'> <img   src='G_3.jpg' height='90'> <img  src='G_5.jpg' height='90'>","null","Animation0",""
"","","","","","html-keyboard-response","54","308128","0.0-24.0","61","1","2025-01-31 01:17:30","af8d355d56820e421d246a7037deb6e6","98.153.62.15","Mozilla/5.0 (Windows NT 10.0; Win64; x64) AppleWebKit/537.36 (KHTML, like Gecko) Chrome/132.0.0.0 Safari/537.36","WebKit","Chrome","132.0.0.0","Windows","10.0","null","en-US,en;q=0.9","5f2047f472c1fd2eaf643c64","67949641171f97c04e14fb34","679c245fd927f5906bd15d09","","3886","[""Did you notice any patterns? <br><br>Press Enter to watch that example again and follow the steps of Omgne Sort.""]","enter","",""
"","","","","","html-button-response","55","308534","0.0-25.0","61","1","2025-01-31 01:17:30","af8d355d56820e421d246a7037deb6e6","98.153.62.15","Mozilla/5.0 (Windows NT 10.0; Win64; x64) AppleWebKit/537.36 (KHTML, like Gecko) Chrome/132.0.0.0 Safari/537.36","WebKit","Chrome","132.0.0.0","Windows","10.0","null","en-US,en;q=0.9","5f2047f472c1fd2eaf643c64","67949641171f97c04e14fb34","679c245fd927f5906bd15d09","","null","<img id='selected' src='G_1.jpg' height='90'> <img src='G_9.jpg' height='90'> <img src='G_7.jpg' height='90'> <img src='G_3.jpg' height='90'> <img src='G_5.jpg' height='90'>","null","Learning example 0",""
"","","","","","html-button-response","56","308852","0.0-26.0","61","1","2025-01-31 01:17:30","af8d355d56820e421d246a7037deb6e6","98.153.62.15","Mozilla/5.0 (Windows NT 10.0; Win64; x64) AppleWebKit/537.36 (KHTML, like Gecko) Chrome/132.0.0.0 Safari/537.36","WebKit","Chrome","132.0.0.0","Windows","10.0","null","en-US,en;q=0.9","5f2047f472c1fd2eaf643c64","67949641171f97c04e14fb34","679c245fd927f5906bd15d09","","null","<img id='selected' src='G_1.jpg' height='90'> <img id='selected' src='G_9.jpg' height='90'> <img src='G_7.jpg' height='90'> <img src='G_3.jpg' height='90'> <img src='G_5.jpg' height='90'>","null","Learning example 0",""
"","","","","","html-button-response","57","309170","0.0-27.0","61","1","2025-01-31 01:17:30","af8d355d56820e421d246a7037deb6e6","98.153.62.15","Mozilla/5.0 (Windows NT 10.0; Win64; x64) AppleWebKit/537.36 (KHTML, like Gecko) Chrome/132.0.0.0 Safari/537.36","WebKit","Chrome","132.0.0.0","Windows","10.0","null","en-US,en;q=0.9","5f2047f472c1fd2eaf643c64","67949641171f97c04e14fb34","679c245fd927f5906bd15d09","","null","<img id='swapped' src='G_9.jpg' height='90'> <img id='swapped' src='G_1.jpg' height='90'> <img src='G_7.jpg' height='90'> <img src='G_3.jpg' height='90'> <img src='G_5.jpg' height='90'>","null","Learning example 0",""
"","","","","","html-button-response","58","321653","0.0-28.0-0.0-0.0","61","1","2025-01-31 01:17:30","af8d355d56820e421d246a7037deb6e6","98.153.62.15","Mozilla/5.0 (Windows NT 10.0; Win64; x64) AppleWebKit/537.36 (KHTML, like Gecko) Chrome/132.0.0.0 Safari/537.36","WebKit","Chrome","132.0.0.0","Windows","10.0","null","en-US,en;q=0.9","5f2047f472c1fd2eaf643c64","67949641171f97c04e14fb34","679c245fd927f5906bd15d09","","12479","<img id='swapped' src='G_9.jpg' height='90'> <img id='swapped' src='G_1.jpg' height='90'> <img src='G_7.jpg' height='90'> <img src='G_3.jpg' height='90'> <img src='G_5.jpg' height='90'>","0","Learning example 0",""
"","","","","","html-button-response","59","322215","0.0-28.1-0.1-0.1","61","1","2025-01-31 01:17:30","af8d355d56820e421d246a7037deb6e6","98.153.62.15","Mozilla/5.0 (Windows NT 10.0; Win64; x64) AppleWebKit/537.36 (KHTML, like Gecko) Chrome/132.0.0.0 Safari/537.36","WebKit","Chrome","132.0.0.0","Windows","10.0","null","en-US,en;q=0.9","5f2047f472c1fd2eaf643c64","67949641171f97c04e14fb34","679c245fd927f5906bd15d09","","559","<img id='swapped' src='G_9.jpg' height='90'> <img id='swapped' src='G_1.jpg' height='90'> <img src='G_7.jpg' height='90'> <img src='G_3.jpg' height='90'> <img src='G_5.jpg' height='90'>","1","Learning example 0",""
"","","","","","html-button-response","60","322425","0.0-29.0","61","1","2025-01-31 01:17:30","af8d355d56820e421d246a7037deb6e6","98.153.62.15","Mozilla/5.0 (Windows NT 10.0; Win64; x64) AppleWebKit/537.36 (KHTML, like Gecko) Chrome/132.0.0.0 Safari/537.36","WebKit","Chrome","132.0.0.0","Windows","10.0","null","en-US,en;q=0.9","5f2047f472c1fd2eaf643c64","67949641171f97c04e14fb34","679c245fd927f5906bd15d09","","null","<img  src='G_9.jpg' height='90'> <img  src='G_1.jpg' height='90'> <img src='G_7.jpg' height='90'> <img src='G_3.jpg' height='90'> <img src='G_5.jpg' height='90'>","null","Learning example 0",""
"","","","","","html-button-response","61","322830","0.0-30.0","61","1","2025-01-31 01:17:30","af8d355d56820e421d246a7037deb6e6","98.153.62.15","Mozilla/5.0 (Windows NT 10.0; Win64; x64) AppleWebKit/537.36 (KHTML, like Gecko) Chrome/132.0.0.0 Safari/537.36","WebKit","Chrome","132.0.0.0","Windows","10.0","null","en-US,en;q=0.9","5f2047f472c1fd2eaf643c64","67949641171f97c04e14fb34","679c245fd927f5906bd15d09","","null","<img  src='G_9.jpg' height='90'> <img id='selected'  src='G_1.jpg' height='90'> <img src='G_7.jpg' height='90'> <img src='G_3.jpg' height='90'> <img src='G_5.jpg' height='90'>","null","Learning example 0",""
"","","","","","html-button-response","62","323136","0.0-31.0","61","1","2025-01-31 01:17:30","af8d355d56820e421d246a7037deb6e6","98.153.62.15","Mozilla/5.0 (Windows NT 10.0; Win64; x64) AppleWebKit/537.36 (KHTML, like Gecko) Chrome/132.0.0.0 Safari/537.36","WebKit","Chrome","132.0.0.0","Windows","10.0","null","en-US,en;q=0.9","5f2047f472c1fd2eaf643c64","67949641171f97c04e14fb34","679c245fd927f5906bd15d09","","null","<img  src='G_9.jpg' height='90'> <img id='selected'  src='G_1.jpg' height='90'> <img id='selected' src='G_7.jpg' height='90'> <img src='G_3.jpg' height='90'> <img src='G_5.jpg' height='90'>","null","Learning example 0",""
"","","","","","html-button-response","63","323452","0.0-32.0","61","1","2025-01-31 01:17:30","af8d355d56820e421d246a7037deb6e6","98.153.62.15","Mozilla/5.0 (Windows NT 10.0; Win64; x64) AppleWebKit/537.36 (KHTML, like Gecko) Chrome/132.0.0.0 Safari/537.36","WebKit","Chrome","132.0.0.0","Windows","10.0","null","en-US,en;q=0.9","5f2047f472c1fd2eaf643c64","67949641171f97c04e14fb34","679c245fd927f5906bd15d09","","null","<img  src='G_9.jpg' height='90'> <img id='selected'  src='G_1.jpg' height='90'> <img id='selected' src='G_7.jpg' height='90'> <img src='G_3.jpg' height='90'> <img src='G_5.jpg' height='90'>","null","Learning example 0",""
"","","","","","html-button-response","64","327320","0.0-33.0-0.0-0.0","61","1","2025-01-31 01:17:30","af8d355d56820e421d246a7037deb6e6","98.153.62.15","Mozilla/5.0 (Windows NT 10.0; Win64; x64) AppleWebKit/537.36 (KHTML, like Gecko) Chrome/132.0.0.0 Safari/537.36","WebKit","Chrome","132.0.0.0","Windows","10.0","null","en-US,en;q=0.9","5f2047f472c1fd2eaf643c64","67949641171f97c04e14fb34","679c245fd927f5906bd15d09","","3863","<img  src='G_9.jpg' height='90'> <img id='selected'  src='G_1.jpg' height='90'> <img id='selected' src='G_7.jpg' height='90'> <img src='G_3.jpg' height='90'> <img src='G_5.jpg' height='90'>","1","Learning example 0",""
"","","","","","html-button-response","65","327409","0.0-33.1-0.1-0.1","61","1","2025-01-31 01:17:30","af8d355d56820e421d246a7037deb6e6","98.153.62.15","Mozilla/5.0 (Windows NT 10.0; Win64; x64) AppleWebKit/537.36 (KHTML, like Gecko) Chrome/132.0.0.0 Safari/537.36","WebKit","Chrome","132.0.0.0","Windows","10.0","null","en-US,en;q=0.9","5f2047f472c1fd2eaf643c64","67949641171f97c04e14fb34","679c245fd927f5906bd15d09","","86","<img  src='G_9.jpg' height='90'> <img id='selected'  src='G_1.jpg' height='90'> <img id='selected' src='G_7.jpg' height='90'> <img src='G_3.jpg' height='90'> <img src='G_5.jpg' height='90'>","1","Learning example 0",""
"","","","","","html-button-response","66","327843","0.0-33.2-0.2-0.2","61","1","2025-01-31 01:17:30","af8d355d56820e421d246a7037deb6e6","98.153.62.15","Mozilla/5.0 (Windows NT 10.0; Win64; x64) AppleWebKit/537.36 (KHTML, like Gecko) Chrome/132.0.0.0 Safari/537.36","WebKit","Chrome","132.0.0.0","Windows","10.0","null","en-US,en;q=0.9","5f2047f472c1fd2eaf643c64","67949641171f97c04e14fb34","679c245fd927f5906bd15d09","","430","<img  src='G_9.jpg' height='90'> <img id='selected'  src='G_1.jpg' height='90'> <img id='selected' src='G_7.jpg' height='90'> <img src='G_3.jpg' height='90'> <img src='G_5.jpg' height='90'>","2","Learning example 0",""
"","","","","","html-button-response","67","328049","0.0-34.0","61","1","2025-01-31 01:17:30","af8d355d56820e421d246a7037deb6e6","98.153.62.15","Mozilla/5.0 (Windows NT 10.0; Win64; x64) AppleWebKit/537.36 (KHTML, like Gecko) Chrome/132.0.0.0 Safari/537.36","WebKit","Chrome","132.0.0.0","Windows","10.0","null","en-US,en;q=0.9","5f2047f472c1fd2eaf643c64","67949641171f97c04e14fb34","679c245fd927f5906bd15d09","","null","<img  src='G_9.jpg' height='90'> <img   src='G_1.jpg' height='90'> <img  src='G_7.jpg' height='90'> <img src='G_3.jpg' height='90'> <img src='G_5.jpg' height='90'>","null","Learning example 0",""
"","","","","","html-button-response","68","328466","0.0-35.0","61","1","2025-01-31 01:17:30","af8d355d56820e421d246a7037deb6e6","98.153.62.15","Mozilla/5.0 (Windows NT 10.0; Win64; x64) AppleWebKit/537.36 (KHTML, like Gecko) Chrome/132.0.0.0 Safari/537.36","WebKit","Chrome","132.0.0.0","Windows","10.0","null","en-US,en;q=0.9","5f2047f472c1fd2eaf643c64","67949641171f97c04e14fb34","679c245fd927f5906bd15d09","","null","<img  src='G_9.jpg' height='90'> <img   src='G_1.jpg' height='90'> <img id='selected'  src='G_7.jpg' height='90'> <img src='G_3.jpg' height='90'> <img src='G_5.jpg' height='90'>","null","Learning example 0",""
"","","","","","html-button-response","69","328785","0.0-36.0","61","1","2025-01-31 01:17:30","af8d355d56820e421d246a7037deb6e6","98.153.62.15","Mozilla/5.0 (Windows NT 10.0; Win64; x64) AppleWebKit/537.36 (KHTML, like Gecko) Chrome/132.0.0.0 Safari/537.36","WebKit","Chrome","132.0.0.0","Windows","10.0","null","en-US,en;q=0.9","5f2047f472c1fd2eaf643c64","67949641171f97c04e14fb34","679c245fd927f5906bd15d09","","null","<img  src='G_9.jpg' height='90'> <img   src='G_1.jpg' height='90'> <img id='selected'  src='G_7.jpg' height='90'> <img id='selected' src='G_3.jpg' height='90'> <img src='G_5.jpg' height='90'>","null","Learning example 0",""
"","","","","","html-button-response","70","329101","0.0-37.0","61","1","2025-01-31 01:17:30","af8d355d56820e421d246a7037deb6e6","98.153.62.15","Mozilla/5.0 (Windows NT 10.0; Win64; x64) AppleWebKit/537.36 (KHTML, like Gecko) Chrome/132.0.0.0 Safari/537.36","WebKit","Chrome","132.0.0.0","Windows","10.0","null","en-US,en;q=0.9","5f2047f472c1fd2eaf643c64","67949641171f97c04e14fb34","679c245fd927f5906bd15d09","","null","<img  src='G_9.jpg' height='90'> <img   src='G_1.jpg' height='90'> <img id='selected'  src='G_7.jpg' height='90'> <img id='selected' src='G_3.jpg' height='90'> <img src='G_5.jpg' height='90'>","null","Learning example 0",""
"","","","","","html-button-response","71","329817","0.0-38.0-0.0-0.0","61","1","2025-01-31 01:17:30","af8d355d56820e421d246a7037deb6e6","98.153.62.15","Mozilla/5.0 (Windows NT 10.0; Win64; x64) AppleWebKit/537.36 (KHTML, like Gecko) Chrome/132.0.0.0 Safari/537.36","WebKit","Chrome","132.0.0.0","Windows","10.0","null","en-US,en;q=0.9","5f2047f472c1fd2eaf643c64","67949641171f97c04e14fb34","679c245fd927f5906bd15d09","","711","<img  src='G_9.jpg' height='90'> <img   src='G_1.jpg' height='90'> <img id='selected'  src='G_7.jpg' height='90'> <img id='selected' src='G_3.jpg' height='90'> <img src='G_5.jpg' height='90'>","2","Learning example 0",""
"","","","","","html-button-response","72","330203","0.0-38.1-0.1-0.1","61","1","2025-01-31 01:17:30","af8d355d56820e421d246a7037deb6e6","98.153.62.15","Mozilla/5.0 (Windows NT 10.0; Win64; x64) AppleWebKit/537.36 (KHTML, like Gecko) Chrome/132.0.0.0 Safari/537.36","WebKit","Chrome","132.0.0.0","Windows","10.0","null","en-US,en;q=0.9","5f2047f472c1fd2eaf643c64","67949641171f97c04e14fb34","679c245fd927f5906bd15d09","","382","<img  src='G_9.jpg' height='90'> <img   src='G_1.jpg' height='90'> <img id='selected'  src='G_7.jpg' height='90'> <img id='selected' src='G_3.jpg' height='90'> <img src='G_5.jpg' height='90'>","3","Learning example 0",""
"","","","","","html-button-response","73","330406","0.0-39.0","61","1","2025-01-31 01:17:30","af8d355d56820e421d246a7037deb6e6","98.153.62.15","Mozilla/5.0 (Windows NT 10.0; Win64; x64) AppleWebKit/537.36 (KHTML, like Gecko) Chrome/132.0.0.0 Safari/537.36","WebKit","Chrome","132.0.0.0","Windows","10.0","null","en-US,en;q=0.9","5f2047f472c1fd2eaf643c64","67949641171f97c04e14fb34","679c245fd927f5906bd15d09","","null","<img  src='G_9.jpg' height='90'> <img   src='G_1.jpg' height='90'> <img   src='G_7.jpg' height='90'> <img  src='G_3.jpg' height='90'> <img src='G_5.jpg' height='90'>","null","Learning example 0",""
"","","","","","html-button-response","74","330823","0.0-40.0","61","1","2025-01-31 01:17:30","af8d355d56820e421d246a7037deb6e6","98.153.62.15","Mozilla/5.0 (Windows NT 10.0; Win64; x64) AppleWebKit/537.36 (KHTML, like Gecko) Chrome/132.0.0.0 Safari/537.36","WebKit","Chrome","132.0.0.0","Windows","10.0","null","en-US,en;q=0.9","5f2047f472c1fd2eaf643c64","67949641171f97c04e14fb34","679c245fd927f5906bd15d09","","null","<img  src='G_9.jpg' height='90'> <img   src='G_1.jpg' height='90'> <img   src='G_7.jpg' height='90'> <img id='selected'  src='G_3.jpg' height='90'> <img src='G_5.jpg' height='90'>","null","Learning example 0",""
"","","","","","html-button-response","75","331133","0.0-41.0","61","1","2025-01-31 01:17:30","af8d355d56820e421d246a7037deb6e6","98.153.62.15","Mozilla/5.0 (Windows NT 10.0; Win64; x64) AppleWebKit/537.36 (KHTML, like Gecko) Chrome/132.0.0.0 Safari/537.36","WebKit","Chrome","132.0.0.0","Windows","10.0","null","en-US,en;q=0.9","5f2047f472c1fd2eaf643c64","67949641171f97c04e14fb34","679c245fd927f5906bd15d09","","null","<img  src='G_9.jpg' height='90'> <img   src='G_1.jpg' height='90'> <img   src='G_7.jpg' height='90'> <img id='selected'  src='G_3.jpg' height='90'> <img id='selected' src='G_5.jpg' height='90'>","null","Learning example 0",""
"","","","","","html-button-response","76","331449","0.0-42.0","61","1","2025-01-31 01:17:30","af8d355d56820e421d246a7037deb6e6","98.153.62.15","Mozilla/5.0 (Windows NT 10.0; Win64; x64) AppleWebKit/537.36 (KHTML, like Gecko) Chrome/132.0.0.0 Safari/537.36","WebKit","Chrome","132.0.0.0","Windows","10.0","null","en-US,en;q=0.9","5f2047f472c1fd2eaf643c64","67949641171f97c04e14fb34","679c245fd927f5906bd15d09","","null","<img  src='G_9.jpg' height='90'> <img   src='G_1.jpg' height='90'> <img   src='G_7.jpg' height='90'> <img id='selected'  src='G_3.jpg' height='90'> <img id='selected' src='G_5.jpg' height='90'>","null","Learning example 0",""
"","","","","","html-button-response","77","331950","0.0-43.0-0.0-0.0","61","1","2025-01-31 01:17:30","af8d355d56820e421d246a7037deb6e6","98.153.62.15","Mozilla/5.0 (Windows NT 10.0; Win64; x64) AppleWebKit/537.36 (KHTML, like Gecko) Chrome/132.0.0.0 Safari/537.36","WebKit","Chrome","132.0.0.0","Windows","10.0","null","en-US,en;q=0.9","5f2047f472c1fd2eaf643c64","67949641171f97c04e14fb34","679c245fd927f5906bd15d09","","497","<img  src='G_9.jpg' height='90'> <img   src='G_1.jpg' height='90'> <img   src='G_7.jpg' height='90'> <img id='selected'  src='G_3.jpg' height='90'> <img id='selected' src='G_5.jpg' height='90'>","4","Learning example 0",""
"","","","","","html-button-response","78","333482","0.0-43.1-0.1-0.1","61","1","2025-01-31 01:17:30","af8d355d56820e421d246a7037deb6e6","98.153.62.15","Mozilla/5.0 (Windows NT 10.0; Win64; x64) AppleWebKit/537.36 (KHTML, like Gecko) Chrome/132.0.0.0 Safari/537.36","WebKit","Chrome","132.0.0.0","Windows","10.0","null","en-US,en;q=0.9","5f2047f472c1fd2eaf643c64","67949641171f97c04e14fb34","679c245fd927f5906bd15d09","","1529","<img  src='G_9.jpg' height='90'> <img   src='G_1.jpg' height='90'> <img   src='G_7.jpg' height='90'> <img id='selected'  src='G_3.jpg' height='90'> <img id='selected' src='G_5.jpg' height='90'>","3","Learning example 0",""
"","","","","","html-button-response","79","333690","0.0-44.0","61","1","2025-01-31 01:17:30","af8d355d56820e421d246a7037deb6e6","98.153.62.15","Mozilla/5.0 (Windows NT 10.0; Win64; x64) AppleWebKit/537.36 (KHTML, like Gecko) Chrome/132.0.0.0 Safari/537.36","WebKit","Chrome","132.0.0.0","Windows","10.0","null","en-US,en;q=0.9","5f2047f472c1fd2eaf643c64","67949641171f97c04e14fb34","679c245fd927f5906bd15d09","","null","<img  src='G_9.jpg' height='90'> <img   src='G_1.jpg' height='90'> <img   src='G_7.jpg' height='90'> <img   src='G_3.jpg' height='90'> <img  src='G_5.jpg' height='90'>","null","Learning example 0",""
"","","","","","html-keyboard-response","80","348376","0.0-45.0","61","1","2025-01-31 01:17:30","af8d355d56820e421d246a7037deb6e6","98.153.62.15","Mozilla/5.0 (Windows NT 10.0; Win64; x64) AppleWebKit/537.36 (KHTML, like Gecko) Chrome/132.0.0.0 Safari/537.36","WebKit","Chrome","132.0.0.0","Windows","10.0","null","en-US,en;q=0.9","5f2047f472c1fd2eaf643c64","67949641171f97c04e14fb34","679c245fd927f5906bd15d09","","14682","[""Final order was 1,2,3,4,5. The initial order was 2,1,3,4,5.<br>It took 1 swaps to sort it correctly with Omgne Sort. <br><br>Press Enter to continue.""]","enter","",""
"","","","","","html-keyboard-response","81","353456","0.0-46.0","61","1","2025-01-31 01:17:30","af8d355d56820e421d246a7037deb6e6","98.153.62.15","Mozilla/5.0 (Windows NT 10.0; Win64; x64) AppleWebKit/537.36 (KHTML, like Gecko) Chrome/132.0.0.0 Safari/537.36","WebKit","Chrome","132.0.0.0","Windows","10.0","null","en-US,en;q=0.9","5f2047f472c1fd2eaf643c64","67949641171f97c04e14fb34","679c245fd927f5906bd15d09","","5078","[""Example 2<br><br>You will watch Omnge Sort in action. Try to identify any patterns in the comparisons made by this method. <br><br>Press Enter to continue.""]","enter","",""
"","","","","","html-keyboard-response","82","353960","0.0-47.0","61","1","2025-01-31 01:17:30","af8d355d56820e421d246a7037deb6e6","98.153.62.15","Mozilla/5.0 (Windows NT 10.0; Win64; x64) AppleWebKit/537.36 (KHTML, like Gecko) Chrome/132.0.0.0 Safari/537.36","WebKit","Chrome","132.0.0.0","Windows","10.0","null","en-US,en;q=0.9","5f2047f472c1fd2eaf643c64","67949641171f97c04e14fb34","679c245fd927f5906bd15d09","","null","<img id='selected' src='G_8.jpg' height='90'> <img src='G_6.jpg' height='90'> <img src='G_7.jpg' height='90'> <img src='G_4.jpg' height='90'> <img src='G_5.jpg' height='90'> <img src='G_2.jpg' height='90'> <img src='G_3.jpg' height='90'> <img src='G_1.jpg' height='90'>","null","Animation1",""
"","","","","","html-keyboard-response","83","354471","0.0-48.0","61","1","2025-01-31 01:17:30","af8d355d56820e421d246a7037deb6e6","98.153.62.15","Mozilla/5.0 (Windows NT 10.0; Win64; x64) AppleWebKit/537.36 (KHTML, like Gecko) Chrome/132.0.0.0 Safari/537.36","WebKit","Chrome","132.0.0.0","Windows","10.0","null","en-US,en;q=0.9","5f2047f472c1fd2eaf643c64","67949641171f97c04e14fb34","679c245fd927f5906bd15d09","","null","<img id='selected' src='G_8.jpg' height='90'> <img id='selected' src='G_6.jpg' height='90'> <img src='G_7.jpg' height='90'> <img src='G_4.jpg' height='90'> <img src='G_5.jpg' height='90'> <img src='G_2.jpg' height='90'> <img src='G_3.jpg' height='90'> <img src='G_1.jpg' height='90'>","null","Animation1",""
"","","","","","html-keyboard-response","84","354987","0.0-49.0","61","1","2025-01-31 01:17:30","af8d355d56820e421d246a7037deb6e6","98.153.62.15","Mozilla/5.0 (Windows NT 10.0; Win64; x64) AppleWebKit/537.36 (KHTML, like Gecko) Chrome/132.0.0.0 Safari/537.36","WebKit","Chrome","132.0.0.0","Windows","10.0","null","en-US,en;q=0.9","5f2047f472c1fd2eaf643c64","67949641171f97c04e14fb34","679c245fd927f5906bd15d09","","null","<img id='selected' src='G_8.jpg' height='90'> <img id='selected' src='G_6.jpg' height='90'> <img src='G_7.jpg' height='90'> <img src='G_4.jpg' height='90'> <img src='G_5.jpg' height='90'> <img src='G_2.jpg' height='90'> <img src='G_3.jpg' height='90'> <img src='G_1.jpg' height='90'>","null","Animation1",""
"","","","","","html-keyboard-response","85","355297","0.0-50.0","61","1","2025-01-31 01:17:30","af8d355d56820e421d246a7037deb6e6","98.153.62.15","Mozilla/5.0 (Windows NT 10.0; Win64; x64) AppleWebKit/537.36 (KHTML, like Gecko) Chrome/132.0.0.0 Safari/537.36","WebKit","Chrome","132.0.0.0","Windows","10.0","null","en-US,en;q=0.9","5f2047f472c1fd2eaf643c64","67949641171f97c04e14fb34","679c245fd927f5906bd15d09","","null","<img  src='G_8.jpg' height='90'> <img  src='G_6.jpg' height='90'> <img src='G_7.jpg' height='90'> <img src='G_4.jpg' height='90'> <img src='G_5.jpg' height='90'> <img src='G_2.jpg' height='90'> <img src='G_3.jpg' height='90'> <img src='G_1.jpg' height='90'>","null","Animation1",""
"","","","","","html-keyboard-response","86","355804","0.0-51.0","61","1","2025-01-31 01:17:30","af8d355d56820e421d246a7037deb6e6","98.153.62.15","Mozilla/5.0 (Windows NT 10.0; Win64; x64) AppleWebKit/537.36 (KHTML, like Gecko) Chrome/132.0.0.0 Safari/537.36","WebKit","Chrome","132.0.0.0","Windows","10.0","null","en-US,en;q=0.9","5f2047f472c1fd2eaf643c64","67949641171f97c04e14fb34","679c245fd927f5906bd15d09","","null","<img  src='G_8.jpg' height='90'> <img id='selected'  src='G_6.jpg' height='90'> <img src='G_7.jpg' height='90'> <img src='G_4.jpg' height='90'> <img src='G_5.jpg' height='90'> <img src='G_2.jpg' height='90'> <img src='G_3.jpg' height='90'> <img src='G_1.jpg' height='90'>","null","Animation1",""
"","","","","","html-keyboard-response","87","356317","0.0-52.0","61","1","2025-01-31 01:17:30","af8d355d56820e421d246a7037deb6e6","98.153.62.15","Mozilla/5.0 (Windows NT 10.0; Win64; x64) AppleWebKit/537.36 (KHTML, like Gecko) Chrome/132.0.0.0 Safari/537.36","WebKit","Chrome","132.0.0.0","Windows","10.0","null","en-US,en;q=0.9","5f2047f472c1fd2eaf643c64","67949641171f97c04e14fb34","679c245fd927f5906bd15d09","","null","<img  src='G_8.jpg' height='90'> <img id='selected'  src='G_6.jpg' height='90'> <img id='selected' src='G_7.jpg' height='90'> <img src='G_4.jpg' height='90'> <img src='G_5.jpg' height='90'> <img src='G_2.jpg' height='90'> <img src='G_3.jpg' height='90'> <img src='G_1.jpg' height='90'>","null","Animation1",""
"","","","","","html-keyboard-response","88","356835","0.0-53.0","61","1","2025-01-31 01:17:30","af8d355d56820e421d246a7037deb6e6","98.153.62.15","Mozilla/5.0 (Windows NT 10.0; Win64; x64) AppleWebKit/537.36 (KHTML, like Gecko) Chrome/132.0.0.0 Safari/537.36","WebKit","Chrome","132.0.0.0","Windows","10.0","null","en-US,en;q=0.9","5f2047f472c1fd2eaf643c64","67949641171f97c04e14fb34","679c245fd927f5906bd15d09","","null","<img  src='G_8.jpg' height='90'> <img id='swapped' src='G_7.jpg' height='90'> <img id='swapped'  src='G_6.jpg' height='90'> <img src='G_4.jpg' height='90'> <img src='G_5.jpg' height='90'> <img src='G_2.jpg' height='90'> <img src='G_3.jpg' height='90'> <img src='G_1.jpg' height='90'>","null","Animation1",""
"","","","","","html-keyboard-response","89","357149","0.0-54.0","61","1","2025-01-31 01:17:30","af8d355d56820e421d246a7037deb6e6","98.153.62.15","Mozilla/5.0 (Windows NT 10.0; Win64; x64) AppleWebKit/537.36 (KHTML, like Gecko) Chrome/132.0.0.0 Safari/537.36","WebKit","Chrome","132.0.0.0","Windows","10.0","null","en-US,en;q=0.9","5f2047f472c1fd2eaf643c64","67949641171f97c04e14fb34","679c245fd927f5906bd15d09","","null","<img  src='G_8.jpg' height='90'> <img  src='G_7.jpg' height='90'> <img   src='G_6.jpg' height='90'> <img src='G_4.jpg' height='90'> <img src='G_5.jpg' height='90'> <img src='G_2.jpg' height='90'> <img src='G_3.jpg' height='90'> <img src='G_1.jpg' height='90'>","null","Animation1",""
"","","","","","html-keyboard-response","90","357669","0.0-55.0","61","1","2025-01-31 01:17:30","af8d355d56820e421d246a7037deb6e6","98.153.62.15","Mozilla/5.0 (Windows NT 10.0; Win64; x64) AppleWebKit/537.36 (KHTML, like Gecko) Chrome/132.0.0.0 Safari/537.36","WebKit","Chrome","132.0.0.0","Windows","10.0","null","en-US,en;q=0.9","5f2047f472c1fd2eaf643c64","67949641171f97c04e14fb34","679c245fd927f5906bd15d09","","null","<img id='selected'  src='G_8.jpg' height='90'> <img  src='G_7.jpg' height='90'> <img   src='G_6.jpg' height='90'> <img src='G_4.jpg' height='90'> <img src='G_5.jpg' height='90'> <img src='G_2.jpg' height='90'> <img src='G_3.jpg' height='90'> <img src='G_1.jpg' height='90'>","null","Animation1",""
"","","","","","html-keyboard-response","91","358186","0.0-56.0","61","1","2025-01-31 01:17:30","af8d355d56820e421d246a7037deb6e6","98.153.62.15","Mozilla/5.0 (Windows NT 10.0; Win64; x64) AppleWebKit/537.36 (KHTML, like Gecko) Chrome/132.0.0.0 Safari/537.36","WebKit","Chrome","132.0.0.0","Windows","10.0","null","en-US,en;q=0.9","5f2047f472c1fd2eaf643c64","67949641171f97c04e14fb34","679c245fd927f5906bd15d09","","null","<img id='selected'  src='G_8.jpg' height='90'> <img id='selected'  src='G_7.jpg' height='90'> <img   src='G_6.jpg' height='90'> <img src='G_4.jpg' height='90'> <img src='G_5.jpg' height='90'> <img src='G_2.jpg' height='90'> <img src='G_3.jpg' height='90'> <img src='G_1.jpg' height='90'>","null","Animation1",""
"","","","","","html-keyboard-response","92","358704","0.0-57.0","61","1","2025-01-31 01:17:30","af8d355d56820e421d246a7037deb6e6","98.153.62.15","Mozilla/5.0 (Windows NT 10.0; Win64; x64) AppleWebKit/537.36 (KHTML, like Gecko) Chrome/132.0.0.0 Safari/537.36","WebKit","Chrome","132.0.0.0","Windows","10.0","null","en-US,en;q=0.9","5f2047f472c1fd2eaf643c64","67949641171f97c04e14fb34","679c245fd927f5906bd15d09","","null","<img id='swapped'  src='G_7.jpg' height='90'> <img id='swapped'  src='G_8.jpg' height='90'> <img   src='G_6.jpg' height='90'> <img src='G_4.jpg' height='90'> <img src='G_5.jpg' height='90'> <img src='G_2.jpg' height='90'> <img src='G_3.jpg' height='90'> <img src='G_1.jpg' height='90'>","null","Animation1",""
"","","","","","html-keyboard-response","93","359009","0.0-58.0","61","1","2025-01-31 01:17:30","af8d355d56820e421d246a7037deb6e6","98.153.62.15","Mozilla/5.0 (Windows NT 10.0; Win64; x64) AppleWebKit/537.36 (KHTML, like Gecko) Chrome/132.0.0.0 Safari/537.36","WebKit","Chrome","132.0.0.0","Windows","10.0","null","en-US,en;q=0.9","5f2047f472c1fd2eaf643c64","67949641171f97c04e14fb34","679c245fd927f5906bd15d09","","null","<img   src='G_7.jpg' height='90'> <img   src='G_8.jpg' height='90'> <img   src='G_6.jpg' height='90'> <img src='G_4.jpg' height='90'> <img src='G_5.jpg' height='90'> <img src='G_2.jpg' height='90'> <img src='G_3.jpg' height='90'> <img src='G_1.jpg' height='90'>","null","Animation1",""
"","","","","","html-keyboard-response","94","359520","0.0-59.0","61","1","2025-01-31 01:17:30","af8d355d56820e421d246a7037deb6e6","98.153.62.15","Mozilla/5.0 (Windows NT 10.0; Win64; x64) AppleWebKit/537.36 (KHTML, like Gecko) Chrome/132.0.0.0 Safari/537.36","WebKit","Chrome","132.0.0.0","Windows","10.0","null","en-US,en;q=0.9","5f2047f472c1fd2eaf643c64","67949641171f97c04e14fb34","679c245fd927f5906bd15d09","","null","<img   src='G_7.jpg' height='90'> <img   src='G_8.jpg' height='90'> <img id='selected'   src='G_6.jpg' height='90'> <img src='G_4.jpg' height='90'> <img src='G_5.jpg' height='90'> <img src='G_2.jpg' height='90'> <img src='G_3.jpg' height='90'> <img src='G_1.jpg' height='90'>","null","Animation1",""
"","","","","","html-keyboard-response","95","360035","0.0-60.0","61","1","2025-01-31 01:17:30","af8d355d56820e421d246a7037deb6e6","98.153.62.15","Mozilla/5.0 (Windows NT 10.0; Win64; x64) AppleWebKit/537.36 (KHTML, like Gecko) Chrome/132.0.0.0 Safari/537.36","WebKit","Chrome","132.0.0.0","Windows","10.0","null","en-US,en;q=0.9","5f2047f472c1fd2eaf643c64","67949641171f97c04e14fb34","679c245fd927f5906bd15d09","","null","<img   src='G_7.jpg' height='90'> <img   src='G_8.jpg' height='90'> <img id='selected'   src='G_6.jpg' height='90'> <img id='selected' src='G_4.jpg' height='90'> <img src='G_5.jpg' height='90'> <img src='G_2.jpg' height='90'> <img src='G_3.jpg' height='90'> <img src='G_1.jpg' height='90'>","null","Animation1",""
"","","","","","html-keyboard-response","96","360550","0.0-61.0","61","1","2025-01-31 01:17:30","af8d355d56820e421d246a7037deb6e6","98.153.62.15","Mozilla/5.0 (Windows NT 10.0; Win64; x64) AppleWebKit/537.36 (KHTML, like Gecko) Chrome/132.0.0.0 Safari/537.36","WebKit","Chrome","132.0.0.0","Windows","10.0","null","en-US,en;q=0.9","5f2047f472c1fd2eaf643c64","67949641171f97c04e14fb34","679c245fd927f5906bd15d09","","null","<img   src='G_7.jpg' height='90'> <img   src='G_8.jpg' height='90'> <img id='swapped' src='G_4.jpg' height='90'> <img id='swapped'   src='G_6.jpg' height='90'> <img src='G_5.jpg' height='90'> <img src='G_2.jpg' height='90'> <img src='G_3.jpg' height='90'> <img src='G_1.jpg' height='90'>","null","Animation1",""
"","","","","","html-keyboard-response","97","360861","0.0-62.0","61","1","2025-01-31 01:17:30","af8d355d56820e421d246a7037deb6e6","98.153.62.15","Mozilla/5.0 (Windows NT 10.0; Win64; x64) AppleWebKit/537.36 (KHTML, like Gecko) Chrome/132.0.0.0 Safari/537.36","WebKit","Chrome","132.0.0.0","Windows","10.0","null","en-US,en;q=0.9","5f2047f472c1fd2eaf643c64","67949641171f97c04e14fb34","679c245fd927f5906bd15d09","","null","<img   src='G_7.jpg' height='90'> <img   src='G_8.jpg' height='90'> <img  src='G_4.jpg' height='90'> <img    src='G_6.jpg' height='90'> <img src='G_5.jpg' height='90'> <img src='G_2.jpg' height='90'> <img src='G_3.jpg' height='90'> <img src='G_1.jpg' height='90'>","null","Animation1",""
"","","","","","html-keyboard-response","98","361368","0.0-63.0","61","1","2025-01-31 01:17:30","af8d355d56820e421d246a7037deb6e6","98.153.62.15","Mozilla/5.0 (Windows NT 10.0; Win64; x64) AppleWebKit/537.36 (KHTML, like Gecko) Chrome/132.0.0.0 Safari/537.36","WebKit","Chrome","132.0.0.0","Windows","10.0","null","en-US,en;q=0.9","5f2047f472c1fd2eaf643c64","67949641171f97c04e14fb34","679c245fd927f5906bd15d09","","null","<img   src='G_7.jpg' height='90'> <img id='selected'   src='G_8.jpg' height='90'> <img  src='G_4.jpg' height='90'> <img    src='G_6.jpg' height='90'> <img src='G_5.jpg' height='90'> <img src='G_2.jpg' height='90'> <img src='G_3.jpg' height='90'> <img src='G_1.jpg' height='90'>","null","Animation1",""
"","","","","","html-keyboard-response","99","361874","0.0-64.0","61","1","2025-01-31 01:17:30","af8d355d56820e421d246a7037deb6e6","98.153.62.15","Mozilla/5.0 (Windows NT 10.0; Win64; x64) AppleWebKit/537.36 (KHTML, like Gecko) Chrome/132.0.0.0 Safari/537.36","WebKit","Chrome","132.0.0.0","Windows","10.0","null","en-US,en;q=0.9","5f2047f472c1fd2eaf643c64","67949641171f97c04e14fb34","679c245fd927f5906bd15d09","","null","<img   src='G_7.jpg' height='90'> <img id='selected'   src='G_8.jpg' height='90'> <img id='selected'  src='G_4.jpg' height='90'> <img    src='G_6.jpg' height='90'> <img src='G_5.jpg' height='90'> <img src='G_2.jpg' height='90'> <img src='G_3.jpg' height='90'> <img src='G_1.jpg' height='90'>","null","Animation1",""
"","","","","","html-keyboard-response","100","362386","0.0-65.0","61","1","2025-01-31 01:17:30","af8d355d56820e421d246a7037deb6e6","98.153.62.15","Mozilla/5.0 (Windows NT 10.0; Win64; x64) AppleWebKit/537.36 (KHTML, like Gecko) Chrome/132.0.0.0 Safari/537.36","WebKit","Chrome","132.0.0.0","Windows","10.0","null","en-US,en;q=0.9","5f2047f472c1fd2eaf643c64","67949641171f97c04e14fb34","679c245fd927f5906bd15d09","","null","<img   src='G_7.jpg' height='90'> <img id='swapped'  src='G_4.jpg' height='90'> <img id='swapped'   src='G_8.jpg' height='90'> <img    src='G_6.jpg' height='90'> <img src='G_5.jpg' height='90'> <img src='G_2.jpg' height='90'> <img src='G_3.jpg' height='90'> <img src='G_1.jpg' height='90'>","null","Animation1",""
"","","","","","html-keyboard-response","101","362697","0.0-66.0","61","1","2025-01-31 01:17:30","af8d355d56820e421d246a7037deb6e6","98.153.62.15","Mozilla/5.0 (Windows NT 10.0; Win64; x64) AppleWebKit/537.36 (KHTML, like Gecko) Chrome/132.0.0.0 Safari/537.36","WebKit","Chrome","132.0.0.0","Windows","10.0","null","en-US,en;q=0.9","5f2047f472c1fd2eaf643c64","67949641171f97c04e14fb34","679c245fd927f5906bd15d09","","null","<img   src='G_7.jpg' height='90'> <img   src='G_4.jpg' height='90'> <img    src='G_8.jpg' height='90'> <img    src='G_6.jpg' height='90'> <img src='G_5.jpg' height='90'> <img src='G_2.jpg' height='90'> <img src='G_3.jpg' height='90'> <img src='G_1.jpg' height='90'>","null","Animation1",""
"","","","","","html-keyboard-response","102","363202","0.0-67.0","61","1","2025-01-31 01:17:30","af8d355d56820e421d246a7037deb6e6","98.153.62.15","Mozilla/5.0 (Windows NT 10.0; Win64; x64) AppleWebKit/537.36 (KHTML, like Gecko) Chrome/132.0.0.0 Safari/537.36","WebKit","Chrome","132.0.0.0","Windows","10.0","null","en-US,en;q=0.9","5f2047f472c1fd2eaf643c64","67949641171f97c04e14fb34","679c245fd927f5906bd15d09","","null","<img id='selected'   src='G_7.jpg' height='90'> <img   src='G_4.jpg' height='90'> <img    src='G_8.jpg' height='90'> <img    src='G_6.jpg' height='90'> <img src='G_5.jpg' height='90'> <img src='G_2.jpg' height='90'> <img src='G_3.jpg' height='90'> <img src='G_1.jpg' height='90'>","null","Animation1",""
"","","","","","html-keyboard-response","103","363718","0.0-68.0","61","1","2025-01-31 01:17:30","af8d355d56820e421d246a7037deb6e6","98.153.62.15","Mozilla/5.0 (Windows NT 10.0; Win64; x64) AppleWebKit/537.36 (KHTML, like Gecko) Chrome/132.0.0.0 Safari/537.36","WebKit","Chrome","132.0.0.0","Windows","10.0","null","en-US,en;q=0.9","5f2047f472c1fd2eaf643c64","67949641171f97c04e14fb34","679c245fd927f5906bd15d09","","null","<img id='selected'   src='G_7.jpg' height='90'> <img id='selected'   src='G_4.jpg' height='90'> <img    src='G_8.jpg' height='90'> <img    src='G_6.jpg' height='90'> <img src='G_5.jpg' height='90'> <img src='G_2.jpg' height='90'> <img src='G_3.jpg' height='90'> <img src='G_1.jpg' height='90'>","null","Animation1",""
"","","","","","html-keyboard-response","104","364236","0.0-69.0","61","1","2025-01-31 01:17:30","af8d355d56820e421d246a7037deb6e6","98.153.62.15","Mozilla/5.0 (Windows NT 10.0; Win64; x64) AppleWebKit/537.36 (KHTML, like Gecko) Chrome/132.0.0.0 Safari/537.36","WebKit","Chrome","132.0.0.0","Windows","10.0","null","en-US,en;q=0.9","5f2047f472c1fd2eaf643c64","67949641171f97c04e14fb34","679c245fd927f5906bd15d09","","null","<img id='swapped'   src='G_4.jpg' height='90'> <img id='swapped'   src='G_7.jpg' height='90'> <img    src='G_8.jpg' height='90'> <img    src='G_6.jpg' height='90'> <img src='G_5.jpg' height='90'> <img src='G_2.jpg' height='90'> <img src='G_3.jpg' height='90'> <img src='G_1.jpg' height='90'>","null","Animation1",""
"","","","","","html-keyboard-response","105","364546","0.0-70.0","61","1","2025-01-31 01:17:30","af8d355d56820e421d246a7037deb6e6","98.153.62.15","Mozilla/5.0 (Windows NT 10.0; Win64; x64) AppleWebKit/537.36 (KHTML, like Gecko) Chrome/132.0.0.0 Safari/537.36","WebKit","Chrome","132.0.0.0","Windows","10.0","null","en-US,en;q=0.9","5f2047f472c1fd2eaf643c64","67949641171f97c04e14fb34","679c245fd927f5906bd15d09","","null","<img    src='G_4.jpg' height='90'> <img    src='G_7.jpg' height='90'> <img    src='G_8.jpg' height='90'> <img    src='G_6.jpg' height='90'> <img src='G_5.jpg' height='90'> <img src='G_2.jpg' height='90'> <img src='G_3.jpg' height='90'> <img src='G_1.jpg' height='90'>","null","Animation1",""
"","","","","","html-keyboard-response","106","365052","0.0-71.0","61","1","2025-01-31 01:17:30","af8d355d56820e421d246a7037deb6e6","98.153.62.15","Mozilla/5.0 (Windows NT 10.0; Win64; x64) AppleWebKit/537.36 (KHTML, like Gecko) Chrome/132.0.0.0 Safari/537.36","WebKit","Chrome","132.0.0.0","Windows","10.0","null","en-US,en;q=0.9","5f2047f472c1fd2eaf643c64","67949641171f97c04e14fb34","679c245fd927f5906bd15d09","","null","<img    src='G_4.jpg' height='90'> <img    src='G_7.jpg' height='90'> <img    src='G_8.jpg' height='90'> <img id='selected'    src='G_6.jpg' height='90'> <img src='G_5.jpg' height='90'> <img src='G_2.jpg' height='90'> <img src='G_3.jpg' height='90'> <img src='G_1.jpg' height='90'>","null","Animation1",""
"","","","","","html-keyboard-response","107","365567","0.0-72.0","61","1","2025-01-31 01:17:30","af8d355d56820e421d246a7037deb6e6","98.153.62.15","Mozilla/5.0 (Windows NT 10.0; Win64; x64) AppleWebKit/537.36 (KHTML, like Gecko) Chrome/132.0.0.0 Safari/537.36","WebKit","Chrome","132.0.0.0","Windows","10.0","null","en-US,en;q=0.9","5f2047f472c1fd2eaf643c64","67949641171f97c04e14fb34","679c245fd927f5906bd15d09","","null","<img    src='G_4.jpg' height='90'> <img    src='G_7.jpg' height='90'> <img    src='G_8.jpg' height='90'> <img id='selected'    src='G_6.jpg' height='90'> <img id='selected' src='G_5.jpg' height='90'> <img src='G_2.jpg' height='90'> <img src='G_3.jpg' height='90'> <img src='G_1.jpg' height='90'>","null","Animation1",""
"","","","","","html-keyboard-response","108","366073","0.0-73.0","61","1","2025-01-31 01:17:30","af8d355d56820e421d246a7037deb6e6","98.153.62.15","Mozilla/5.0 (Windows NT 10.0; Win64; x64) AppleWebKit/537.36 (KHTML, like Gecko) Chrome/132.0.0.0 Safari/537.36","WebKit","Chrome","132.0.0.0","Windows","10.0","null","en-US,en;q=0.9","5f2047f472c1fd2eaf643c64","67949641171f97c04e14fb34","679c245fd927f5906bd15d09","","null","<img    src='G_4.jpg' height='90'> <img    src='G_7.jpg' height='90'> <img    src='G_8.jpg' height='90'> <img id='swapped' src='G_5.jpg' height='90'> <img id='swapped'    src='G_6.jpg' height='90'> <img src='G_2.jpg' height='90'> <img src='G_3.jpg' height='90'> <img src='G_1.jpg' height='90'>","null","Animation1",""
"","","","","","html-keyboard-response","109","366394","0.0-74.0","61","1","2025-01-31 01:17:30","af8d355d56820e421d246a7037deb6e6","98.153.62.15","Mozilla/5.0 (Windows NT 10.0; Win64; x64) AppleWebKit/537.36 (KHTML, like Gecko) Chrome/132.0.0.0 Safari/537.36","WebKit","Chrome","132.0.0.0","Windows","10.0","null","en-US,en;q=0.9","5f2047f472c1fd2eaf643c64","67949641171f97c04e14fb34","679c245fd927f5906bd15d09","","null","<img    src='G_4.jpg' height='90'> <img    src='G_7.jpg' height='90'> <img    src='G_8.jpg' height='90'> <img  src='G_5.jpg' height='90'> <img     src='G_6.jpg' height='90'> <img src='G_2.jpg' height='90'> <img src='G_3.jpg' height='90'> <img src='G_1.jpg' height='90'>","null","Animation1",""
"","","","","","html-keyboard-response","110","366903","0.0-75.0","61","1","2025-01-31 01:17:30","af8d355d56820e421d246a7037deb6e6","98.153.62.15","Mozilla/5.0 (Windows NT 10.0; Win64; x64) AppleWebKit/537.36 (KHTML, like Gecko) Chrome/132.0.0.0 Safari/537.36","WebKit","Chrome","132.0.0.0","Windows","10.0","null","en-US,en;q=0.9","5f2047f472c1fd2eaf643c64","67949641171f97c04e14fb34","679c245fd927f5906bd15d09","","null","<img    src='G_4.jpg' height='90'> <img    src='G_7.jpg' height='90'> <img id='selected'    src='G_8.jpg' height='90'> <img  src='G_5.jpg' height='90'> <img     src='G_6.jpg' height='90'> <img src='G_2.jpg' height='90'> <img src='G_3.jpg' height='90'> <img src='G_1.jpg' height='90'>","null","Animation1",""
"","","","","","html-keyboard-response","111","367418","0.0-76.0","61","1","2025-01-31 01:17:30","af8d355d56820e421d246a7037deb6e6","98.153.62.15","Mozilla/5.0 (Windows NT 10.0; Win64; x64) AppleWebKit/537.36 (KHTML, like Gecko) Chrome/132.0.0.0 Safari/537.36","WebKit","Chrome","132.0.0.0","Windows","10.0","null","en-US,en;q=0.9","5f2047f472c1fd2eaf643c64","67949641171f97c04e14fb34","679c245fd927f5906bd15d09","","null","<img    src='G_4.jpg' height='90'> <img    src='G_7.jpg' height='90'> <img id='selected'    src='G_8.jpg' height='90'> <img id='selected'  src='G_5.jpg' height='90'> <img     src='G_6.jpg' height='90'> <img src='G_2.jpg' height='90'> <img src='G_3.jpg' height='90'> <img src='G_1.jpg' height='90'>","null","Animation1",""
"","","","","","html-keyboard-response","112","367936","0.0-77.0","61","1","2025-01-31 01:17:30","af8d355d56820e421d246a7037deb6e6","98.153.62.15","Mozilla/5.0 (Windows NT 10.0; Win64; x64) AppleWebKit/537.36 (KHTML, like Gecko) Chrome/132.0.0.0 Safari/537.36","WebKit","Chrome","132.0.0.0","Windows","10.0","null","en-US,en;q=0.9","5f2047f472c1fd2eaf643c64","67949641171f97c04e14fb34","679c245fd927f5906bd15d09","","null","<img    src='G_4.jpg' height='90'> <img    src='G_7.jpg' height='90'> <img id='swapped'  src='G_5.jpg' height='90'> <img id='swapped'    src='G_8.jpg' height='90'> <img     src='G_6.jpg' height='90'> <img src='G_2.jpg' height='90'> <img src='G_3.jpg' height='90'> <img src='G_1.jpg' height='90'>","null","Animation1",""
"","","","","","html-keyboard-response","113","368248","0.0-78.0","61","1","2025-01-31 01:17:30","af8d355d56820e421d246a7037deb6e6","98.153.62.15","Mozilla/5.0 (Windows NT 10.0; Win64; x64) AppleWebKit/537.36 (KHTML, like Gecko) Chrome/132.0.0.0 Safari/537.36","WebKit","Chrome","132.0.0.0","Windows","10.0","null","en-US,en;q=0.9","5f2047f472c1fd2eaf643c64","67949641171f97c04e14fb34","679c245fd927f5906bd15d09","","null","<img    src='G_4.jpg' height='90'> <img    src='G_7.jpg' height='90'> <img   src='G_5.jpg' height='90'> <img     src='G_8.jpg' height='90'> <img     src='G_6.jpg' height='90'> <img src='G_2.jpg' height='90'> <img src='G_3.jpg' height='90'> <img src='G_1.jpg' height='90'>","null","Animation1",""
"","","","","","html-keyboard-response","114","368755","0.0-79.0","61","1","2025-01-31 01:17:30","af8d355d56820e421d246a7037deb6e6","98.153.62.15","Mozilla/5.0 (Windows NT 10.0; Win64; x64) AppleWebKit/537.36 (KHTML, like Gecko) Chrome/132.0.0.0 Safari/537.36","WebKit","Chrome","132.0.0.0","Windows","10.0","null","en-US,en;q=0.9","5f2047f472c1fd2eaf643c64","67949641171f97c04e14fb34","679c245fd927f5906bd15d09","","null","<img    src='G_4.jpg' height='90'> <img id='selected'    src='G_7.jpg' height='90'> <img   src='G_5.jpg' height='90'> <img     src='G_8.jpg' height='90'> <img     src='G_6.jpg' height='90'> <img src='G_2.jpg' height='90'> <img src='G_3.jpg' height='90'> <img src='G_1.jpg' height='90'>","null","Animation1",""
"","","","","","html-keyboard-response","115","369271","0.0-80.0","61","1","2025-01-31 01:17:30","af8d355d56820e421d246a7037deb6e6","98.153.62.15","Mozilla/5.0 (Windows NT 10.0; Win64; x64) AppleWebKit/537.36 (KHTML, like Gecko) Chrome/132.0.0.0 Safari/537.36","WebKit","Chrome","132.0.0.0","Windows","10.0","null","en-US,en;q=0.9","5f2047f472c1fd2eaf643c64","67949641171f97c04e14fb34","679c245fd927f5906bd15d09","","null","<img    src='G_4.jpg' height='90'> <img id='selected'    src='G_7.jpg' height='90'> <img id='selected'   src='G_5.jpg' height='90'> <img     src='G_8.jpg' height='90'> <img     src='G_6.jpg' height='90'> <img src='G_2.jpg' height='90'> <img src='G_3.jpg' height='90'> <img src='G_1.jpg' height='90'>","null","Animation1",""
"","","","","","html-keyboard-response","116","369784","0.0-81.0","61","1","2025-01-31 01:17:30","af8d355d56820e421d246a7037deb6e6","98.153.62.15","Mozilla/5.0 (Windows NT 10.0; Win64; x64) AppleWebKit/537.36 (KHTML, like Gecko) Chrome/132.0.0.0 Safari/537.36","WebKit","Chrome","132.0.0.0","Windows","10.0","null","en-US,en;q=0.9","5f2047f472c1fd2eaf643c64","67949641171f97c04e14fb34","679c245fd927f5906bd15d09","","null","<img    src='G_4.jpg' height='90'> <img id='swapped'   src='G_5.jpg' height='90'> <img id='swapped'    src='G_7.jpg' height='90'> <img     src='G_8.jpg' height='90'> <img     src='G_6.jpg' height='90'> <img src='G_2.jpg' height='90'> <img src='G_3.jpg' height='90'> <img src='G_1.jpg' height='90'>","null","Animation1",""
"","","","","","html-keyboard-response","117","370095","0.0-82.0","61","1","2025-01-31 01:17:30","af8d355d56820e421d246a7037deb6e6","98.153.62.15","Mozilla/5.0 (Windows NT 10.0; Win64; x64) AppleWebKit/537.36 (KHTML, like Gecko) Chrome/132.0.0.0 Safari/537.36","WebKit","Chrome","132.0.0.0","Windows","10.0","null","en-US,en;q=0.9","5f2047f472c1fd2eaf643c64","67949641171f97c04e14fb34","679c245fd927f5906bd15d09","","null","<img    src='G_4.jpg' height='90'> <img    src='G_5.jpg' height='90'> <img     src='G_7.jpg' height='90'> <img     src='G_8.jpg' height='90'> <img     src='G_6.jpg' height='90'> <img src='G_2.jpg' height='90'> <img src='G_3.jpg' height='90'> <img src='G_1.jpg' height='90'>","null","Animation1",""
"","","","","","html-keyboard-response","118","370602","0.0-83.0","61","1","2025-01-31 01:17:30","af8d355d56820e421d246a7037deb6e6","98.153.62.15","Mozilla/5.0 (Windows NT 10.0; Win64; x64) AppleWebKit/537.36 (KHTML, like Gecko) Chrome/132.0.0.0 Safari/537.36","WebKit","Chrome","132.0.0.0","Windows","10.0","null","en-US,en;q=0.9","5f2047f472c1fd2eaf643c64","67949641171f97c04e14fb34","679c245fd927f5906bd15d09","","null","<img id='selected'    src='G_4.jpg' height='90'> <img    src='G_5.jpg' height='90'> <img     src='G_7.jpg' height='90'> <img     src='G_8.jpg' height='90'> <img     src='G_6.jpg' height='90'> <img src='G_2.jpg' height='90'> <img src='G_3.jpg' height='90'> <img src='G_1.jpg' height='90'>","null","Animation1",""
"","","","","","html-keyboard-response","119","371117","0.0-84.0","61","1","2025-01-31 01:17:30","af8d355d56820e421d246a7037deb6e6","98.153.62.15","Mozilla/5.0 (Windows NT 10.0; Win64; x64) AppleWebKit/537.36 (KHTML, like Gecko) Chrome/132.0.0.0 Safari/537.36","WebKit","Chrome","132.0.0.0","Windows","10.0","null","en-US,en;q=0.9","5f2047f472c1fd2eaf643c64","67949641171f97c04e14fb34","679c245fd927f5906bd15d09","","null","<img id='selected'    src='G_4.jpg' height='90'> <img id='selected'    src='G_5.jpg' height='90'> <img     src='G_7.jpg' height='90'> <img     src='G_8.jpg' height='90'> <img     src='G_6.jpg' height='90'> <img src='G_2.jpg' height='90'> <img src='G_3.jpg' height='90'> <img src='G_1.jpg' height='90'>","null","Animation1",""
"","","","","","html-keyboard-response","120","371634","0.0-85.0","61","1","2025-01-31 01:17:30","af8d355d56820e421d246a7037deb6e6","98.153.62.15","Mozilla/5.0 (Windows NT 10.0; Win64; x64) AppleWebKit/537.36 (KHTML, like Gecko) Chrome/132.0.0.0 Safari/537.36","WebKit","Chrome","132.0.0.0","Windows","10.0","null","en-US,en;q=0.9","5f2047f472c1fd2eaf643c64","67949641171f97c04e14fb34","679c245fd927f5906bd15d09","","null","<img id='selected'    src='G_4.jpg' height='90'> <img id='selected'    src='G_5.jpg' height='90'> <img     src='G_7.jpg' height='90'> <img     src='G_8.jpg' height='90'> <img     src='G_6.jpg' height='90'> <img src='G_2.jpg' height='90'> <img src='G_3.jpg' height='90'> <img src='G_1.jpg' height='90'>","null","Animation1",""
"","","","","","html-keyboard-response","121","371946","0.0-86.0","61","1","2025-01-31 01:17:30","af8d355d56820e421d246a7037deb6e6","98.153.62.15","Mozilla/5.0 (Windows NT 10.0; Win64; x64) AppleWebKit/537.36 (KHTML, like Gecko) Chrome/132.0.0.0 Safari/537.36","WebKit","Chrome","132.0.0.0","Windows","10.0","null","en-US,en;q=0.9","5f2047f472c1fd2eaf643c64","67949641171f97c04e14fb34","679c245fd927f5906bd15d09","","null","<img     src='G_4.jpg' height='90'> <img     src='G_5.jpg' height='90'> <img     src='G_7.jpg' height='90'> <img     src='G_8.jpg' height='90'> <img     src='G_6.jpg' height='90'> <img src='G_2.jpg' height='90'> <img src='G_3.jpg' height='90'> <img src='G_1.jpg' height='90'>","null","Animation1",""
"","","","","","html-keyboard-response","122","372453","0.0-87.0","61","1","2025-01-31 01:17:30","af8d355d56820e421d246a7037deb6e6","98.153.62.15","Mozilla/5.0 (Windows NT 10.0; Win64; x64) AppleWebKit/537.36 (KHTML, like Gecko) Chrome/132.0.0.0 Safari/537.36","WebKit","Chrome","132.0.0.0","Windows","10.0","null","en-US,en;q=0.9","5f2047f472c1fd2eaf643c64","67949641171f97c04e14fb34","679c245fd927f5906bd15d09","","null","<img     src='G_4.jpg' height='90'> <img     src='G_5.jpg' height='90'> <img     src='G_7.jpg' height='90'> <img     src='G_8.jpg' height='90'> <img id='selected'     src='G_6.jpg' height='90'> <img src='G_2.jpg' height='90'> <img src='G_3.jpg' height='90'> <img src='G_1.jpg' height='90'>","null","Animation1",""
"","","","","","html-keyboard-response","123","372971","0.0-88.0","61","1","2025-01-31 01:17:30","af8d355d56820e421d246a7037deb6e6","98.153.62.15","Mozilla/5.0 (Windows NT 10.0; Win64; x64) AppleWebKit/537.36 (KHTML, like Gecko) Chrome/132.0.0.0 Safari/537.36","WebKit","Chrome","132.0.0.0","Windows","10.0","null","en-US,en;q=0.9","5f2047f472c1fd2eaf643c64","67949641171f97c04e14fb34","679c245fd927f5906bd15d09","","null","<img     src='G_4.jpg' height='90'> <img     src='G_5.jpg' height='90'> <img     src='G_7.jpg' height='90'> <img     src='G_8.jpg' height='90'> <img id='selected'     src='G_6.jpg' height='90'> <img id='selected' src='G_2.jpg' height='90'> <img src='G_3.jpg' height='90'> <img src='G_1.jpg' height='90'>","null","Animation1",""
"","","","","","html-keyboard-response","124","373486","0.0-89.0","61","1","2025-01-31 01:17:30","af8d355d56820e421d246a7037deb6e6","98.153.62.15","Mozilla/5.0 (Windows NT 10.0; Win64; x64) AppleWebKit/537.36 (KHTML, like Gecko) Chrome/132.0.0.0 Safari/537.36","WebKit","Chrome","132.0.0.0","Windows","10.0","null","en-US,en;q=0.9","5f2047f472c1fd2eaf643c64","67949641171f97c04e14fb34","679c245fd927f5906bd15d09","","null","<img     src='G_4.jpg' height='90'> <img     src='G_5.jpg' height='90'> <img     src='G_7.jpg' height='90'> <img     src='G_8.jpg' height='90'> <img id='swapped' src='G_2.jpg' height='90'> <img id='swapped'     src='G_6.jpg' height='90'> <img src='G_3.jpg' height='90'> <img src='G_1.jpg' height='90'>","null","Animation1",""
"","","","","","html-keyboard-response","125","373796","0.0-90.0","61","1","2025-01-31 01:17:30","af8d355d56820e421d246a7037deb6e6","98.153.62.15","Mozilla/5.0 (Windows NT 10.0; Win64; x64) AppleWebKit/537.36 (KHTML, like Gecko) Chrome/132.0.0.0 Safari/537.36","WebKit","Chrome","132.0.0.0","Windows","10.0","null","en-US,en;q=0.9","5f2047f472c1fd2eaf643c64","67949641171f97c04e14fb34","679c245fd927f5906bd15d09","","null","<img     src='G_4.jpg' height='90'> <img     src='G_5.jpg' height='90'> <img     src='G_7.jpg' height='90'> <img     src='G_8.jpg' height='90'> <img  src='G_2.jpg' height='90'> <img      src='G_6.jpg' height='90'> <img src='G_3.jpg' height='90'> <img src='G_1.jpg' height='90'>","null","Animation1",""
"","","","","","html-keyboard-response","126","374303","0.0-91.0","61","1","2025-01-31 01:17:30","af8d355d56820e421d246a7037deb6e6","98.153.62.15","Mozilla/5.0 (Windows NT 10.0; Win64; x64) AppleWebKit/537.36 (KHTML, like Gecko) Chrome/132.0.0.0 Safari/537.36","WebKit","Chrome","132.0.0.0","Windows","10.0","null","en-US,en;q=0.9","5f2047f472c1fd2eaf643c64","67949641171f97c04e14fb34","679c245fd927f5906bd15d09","","null","<img     src='G_4.jpg' height='90'> <img     src='G_5.jpg' height='90'> <img     src='G_7.jpg' height='90'> <img id='selected'     src='G_8.jpg' height='90'> <img  src='G_2.jpg' height='90'> <img      src='G_6.jpg' height='90'> <img src='G_3.jpg' height='90'> <img src='G_1.jpg' height='90'>","null","Animation1",""
"","","","","","html-keyboard-response","127","374817","0.0-92.0","61","1","2025-01-31 01:17:30","af8d355d56820e421d246a7037deb6e6","98.153.62.15","Mozilla/5.0 (Windows NT 10.0; Win64; x64) AppleWebKit/537.36 (KHTML, like Gecko) Chrome/132.0.0.0 Safari/537.36","WebKit","Chrome","132.0.0.0","Windows","10.0","null","en-US,en;q=0.9","5f2047f472c1fd2eaf643c64","67949641171f97c04e14fb34","679c245fd927f5906bd15d09","","null","<img     src='G_4.jpg' height='90'> <img     src='G_5.jpg' height='90'> <img     src='G_7.jpg' height='90'> <img id='selected'     src='G_8.jpg' height='90'> <img id='selected'  src='G_2.jpg' height='90'> <img      src='G_6.jpg' height='90'> <img src='G_3.jpg' height='90'> <img src='G_1.jpg' height='90'>","null","Animation1",""
"","","","","","html-keyboard-response","128","375336","0.0-93.0","61","1","2025-01-31 01:17:30","af8d355d56820e421d246a7037deb6e6","98.153.62.15","Mozilla/5.0 (Windows NT 10.0; Win64; x64) AppleWebKit/537.36 (KHTML, like Gecko) Chrome/132.0.0.0 Safari/537.36","WebKit","Chrome","132.0.0.0","Windows","10.0","null","en-US,en;q=0.9","5f2047f472c1fd2eaf643c64","67949641171f97c04e14fb34","679c245fd927f5906bd15d09","","null","<img     src='G_4.jpg' height='90'> <img     src='G_5.jpg' height='90'> <img     src='G_7.jpg' height='90'> <img id='selected'     src='G_8.jpg' height='90'> <img id='selected'  src='G_2.jpg' height='90'> <img      src='G_6.jpg' height='90'> <img src='G_3.jpg' height='90'> <img src='G_1.jpg' height='90'>","null","Animation1",""
"","","","","","html-keyboard-response","129","375646","0.0-94.0","61","1","2025-01-31 01:17:30","af8d355d56820e421d246a7037deb6e6","98.153.62.15","Mozilla/5.0 (Windows NT 10.0; Win64; x64) AppleWebKit/537.36 (KHTML, like Gecko) Chrome/132.0.0.0 Safari/537.36","WebKit","Chrome","132.0.0.0","Windows","10.0","null","en-US,en;q=0.9","5f2047f472c1fd2eaf643c64","67949641171f97c04e14fb34","679c245fd927f5906bd15d09","","null","<img     src='G_4.jpg' height='90'> <img     src='G_5.jpg' height='90'> <img     src='G_7.jpg' height='90'> <img      src='G_8.jpg' height='90'> <img   src='G_2.jpg' height='90'> <img      src='G_6.jpg' height='90'> <img src='G_3.jpg' height='90'> <img src='G_1.jpg' height='90'>","null","Animation1",""
"","","","","","html-keyboard-response","130","376152","0.0-95.0","61","1","2025-01-31 01:17:30","af8d355d56820e421d246a7037deb6e6","98.153.62.15","Mozilla/5.0 (Windows NT 10.0; Win64; x64) AppleWebKit/537.36 (KHTML, like Gecko) Chrome/132.0.0.0 Safari/537.36","WebKit","Chrome","132.0.0.0","Windows","10.0","null","en-US,en;q=0.9","5f2047f472c1fd2eaf643c64","67949641171f97c04e14fb34","679c245fd927f5906bd15d09","","null","<img     src='G_4.jpg' height='90'> <img     src='G_5.jpg' height='90'> <img     src='G_7.jpg' height='90'> <img      src='G_8.jpg' height='90'> <img   src='G_2.jpg' height='90'> <img id='selected'      src='G_6.jpg' height='90'> <img src='G_3.jpg' height='90'> <img src='G_1.jpg' height='90'>","null","Animation1",""
"","","","","","html-keyboard-response","131","376668","0.0-96.0","61","1","2025-01-31 01:17:30","af8d355d56820e421d246a7037deb6e6","98.153.62.15","Mozilla/5.0 (Windows NT 10.0; Win64; x64) AppleWebKit/537.36 (KHTML, like Gecko) Chrome/132.0.0.0 Safari/537.36","WebKit","Chrome","132.0.0.0","Windows","10.0","null","en-US,en;q=0.9","5f2047f472c1fd2eaf643c64","67949641171f97c04e14fb34","679c245fd927f5906bd15d09","","null","<img     src='G_4.jpg' height='90'> <img     src='G_5.jpg' height='90'> <img     src='G_7.jpg' height='90'> <img      src='G_8.jpg' height='90'> <img   src='G_2.jpg' height='90'> <img id='selected'      src='G_6.jpg' height='90'> <img id='selected' src='G_3.jpg' height='90'> <img src='G_1.jpg' height='90'>","null","Animation1",""
"","","","","","html-keyboard-response","132","377185","0.0-97.0","61","1","2025-01-31 01:17:30","af8d355d56820e421d246a7037deb6e6","98.153.62.15","Mozilla/5.0 (Windows NT 10.0; Win64; x64) AppleWebKit/537.36 (KHTML, like Gecko) Chrome/132.0.0.0 Safari/537.36","WebKit","Chrome","132.0.0.0","Windows","10.0","null","en-US,en;q=0.9","5f2047f472c1fd2eaf643c64","67949641171f97c04e14fb34","679c245fd927f5906bd15d09","","null","<img     src='G_4.jpg' height='90'> <img     src='G_5.jpg' height='90'> <img     src='G_7.jpg' height='90'> <img      src='G_8.jpg' height='90'> <img   src='G_2.jpg' height='90'> <img id='selected'      src='G_6.jpg' height='90'> <img id='selected' src='G_3.jpg' height='90'> <img src='G_1.jpg' height='90'>","null","Animation1",""
"","","","","","html-keyboard-response","133","377493","0.0-98.0","61","1","2025-01-31 01:17:30","af8d355d56820e421d246a7037deb6e6","98.153.62.15","Mozilla/5.0 (Windows NT 10.0; Win64; x64) AppleWebKit/537.36 (KHTML, like Gecko) Chrome/132.0.0.0 Safari/537.36","WebKit","Chrome","132.0.0.0","Windows","10.0","null","en-US,en;q=0.9","5f2047f472c1fd2eaf643c64","67949641171f97c04e14fb34","679c245fd927f5906bd15d09","","null","<img     src='G_4.jpg' height='90'> <img     src='G_5.jpg' height='90'> <img     src='G_7.jpg' height='90'> <img      src='G_8.jpg' height='90'> <img   src='G_2.jpg' height='90'> <img       src='G_6.jpg' height='90'> <img  src='G_3.jpg' height='90'> <img src='G_1.jpg' height='90'>","null","Animation1",""
"","","","","","html-keyboard-response","134","378001","0.0-99.0","61","1","2025-01-31 01:17:30","af8d355d56820e421d246a7037deb6e6","98.153.62.15","Mozilla/5.0 (Windows NT 10.0; Win64; x64) AppleWebKit/537.36 (KHTML, like Gecko) Chrome/132.0.0.0 Safari/537.36","WebKit","Chrome","132.0.0.0","Windows","10.0","null","en-US,en;q=0.9","5f2047f472c1fd2eaf643c64","67949641171f97c04e14fb34","679c245fd927f5906bd15d09","","null","<img     src='G_4.jpg' height='90'> <img     src='G_5.jpg' height='90'> <img     src='G_7.jpg' height='90'> <img      src='G_8.jpg' height='90'> <img   src='G_2.jpg' height='90'> <img       src='G_6.jpg' height='90'> <img id='selected'  src='G_3.jpg' height='90'> <img src='G_1.jpg' height='90'>","null","Animation1",""
"","","","","","html-keyboard-response","135","378518","0.0-100.0","61","1","2025-01-31 01:17:30","af8d355d56820e421d246a7037deb6e6","98.153.62.15","Mozilla/5.0 (Windows NT 10.0; Win64; x64) AppleWebKit/537.36 (KHTML, like Gecko) Chrome/132.0.0.0 Safari/537.36","WebKit","Chrome","132.0.0.0","Windows","10.0","null","en-US,en;q=0.9","5f2047f472c1fd2eaf643c64","67949641171f97c04e14fb34","679c245fd927f5906bd15d09","","null","<img     src='G_4.jpg' height='90'> <img     src='G_5.jpg' height='90'> <img     src='G_7.jpg' height='90'> <img      src='G_8.jpg' height='90'> <img   src='G_2.jpg' height='90'> <img       src='G_6.jpg' height='90'> <img id='selected'  src='G_3.jpg' height='90'> <img id='selected' src='G_1.jpg' height='90'>","null","Animation1",""
"","","","","","html-keyboard-response","136","379035","0.0-101.0","61","1","2025-01-31 01:17:30","af8d355d56820e421d246a7037deb6e6","98.153.62.15","Mozilla/5.0 (Windows NT 10.0; Win64; x64) AppleWebKit/537.36 (KHTML, like Gecko) Chrome/132.0.0.0 Safari/537.36","WebKit","Chrome","132.0.0.0","Windows","10.0","null","en-US,en;q=0.9","5f2047f472c1fd2eaf643c64","67949641171f97c04e14fb34","679c245fd927f5906bd15d09","","null","<img     src='G_4.jpg' height='90'> <img     src='G_5.jpg' height='90'> <img     src='G_7.jpg' height='90'> <img      src='G_8.jpg' height='90'> <img   src='G_2.jpg' height='90'> <img       src='G_6.jpg' height='90'> <img id='swapped' src='G_1.jpg' height='90'> <img id='swapped'  src='G_3.jpg' height='90'>","null","Animation1",""
"","","","","","html-keyboard-response","137","379347","0.0-102.0","61","1","2025-01-31 01:17:30","af8d355d56820e421d246a7037deb6e6","98.153.62.15","Mozilla/5.0 (Windows NT 10.0; Win64; x64) AppleWebKit/537.36 (KHTML, like Gecko) Chrome/132.0.0.0 Safari/537.36","WebKit","Chrome","132.0.0.0","Windows","10.0","null","en-US,en;q=0.9","5f2047f472c1fd2eaf643c64","67949641171f97c04e14fb34","679c245fd927f5906bd15d09","","null","<img     src='G_4.jpg' height='90'> <img     src='G_5.jpg' height='90'> <img     src='G_7.jpg' height='90'> <img      src='G_8.jpg' height='90'> <img   src='G_2.jpg' height='90'> <img       src='G_6.jpg' height='90'> <img  src='G_1.jpg' height='90'> <img   src='G_3.jpg' height='90'>","null","Animation1",""
"","","","","","html-keyboard-response","138","379867","0.0-103.0","61","1","2025-01-31 01:17:30","af8d355d56820e421d246a7037deb6e6","98.153.62.15","Mozilla/5.0 (Windows NT 10.0; Win64; x64) AppleWebKit/537.36 (KHTML, like Gecko) Chrome/132.0.0.0 Safari/537.36","WebKit","Chrome","132.0.0.0","Windows","10.0","null","en-US,en;q=0.9","5f2047f472c1fd2eaf643c64","67949641171f97c04e14fb34","679c245fd927f5906bd15d09","","null","<img     src='G_4.jpg' height='90'> <img     src='G_5.jpg' height='90'> <img     src='G_7.jpg' height='90'> <img      src='G_8.jpg' height='90'> <img   src='G_2.jpg' height='90'> <img id='selected'       src='G_6.jpg' height='90'> <img  src='G_1.jpg' height='90'> <img   src='G_3.jpg' height='90'>","null","Animation1",""
"","","","","","html-keyboard-response","139","380385","0.0-104.0","61","1","2025-01-31 01:17:30","af8d355d56820e421d246a7037deb6e6","98.153.62.15","Mozilla/5.0 (Windows NT 10.0; Win64; x64) AppleWebKit/537.36 (KHTML, like Gecko) Chrome/132.0.0.0 Safari/537.36","WebKit","Chrome","132.0.0.0","Windows","10.0","null","en-US,en;q=0.9","5f2047f472c1fd2eaf643c64","67949641171f97c04e14fb34","679c245fd927f5906bd15d09","","null","<img     src='G_4.jpg' height='90'> <img     src='G_5.jpg' height='90'> <img     src='G_7.jpg' height='90'> <img      src='G_8.jpg' height='90'> <img   src='G_2.jpg' height='90'> <img id='selected'       src='G_6.jpg' height='90'> <img id='selected'  src='G_1.jpg' height='90'> <img   src='G_3.jpg' height='90'>","null","Animation1",""
"","","","","","html-keyboard-response","140","380900","0.0-105.0","61","1","2025-01-31 01:17:30","af8d355d56820e421d246a7037deb6e6","98.153.62.15","Mozilla/5.0 (Windows NT 10.0; Win64; x64) AppleWebKit/537.36 (KHTML, like Gecko) Chrome/132.0.0.0 Safari/537.36","WebKit","Chrome","132.0.0.0","Windows","10.0","null","en-US,en;q=0.9","5f2047f472c1fd2eaf643c64","67949641171f97c04e14fb34","679c245fd927f5906bd15d09","","null","<img     src='G_4.jpg' height='90'> <img     src='G_5.jpg' height='90'> <img     src='G_7.jpg' height='90'> <img      src='G_8.jpg' height='90'> <img   src='G_2.jpg' height='90'> <img id='selected'       src='G_6.jpg' height='90'> <img id='selected'  src='G_1.jpg' height='90'> <img   src='G_3.jpg' height='90'>","null","Animation1",""
"","","","","","html-keyboard-response","141","381212","0.0-106.0","61","1","2025-01-31 01:17:30","af8d355d56820e421d246a7037deb6e6","98.153.62.15","Mozilla/5.0 (Windows NT 10.0; Win64; x64) AppleWebKit/537.36 (KHTML, like Gecko) Chrome/132.0.0.0 Safari/537.36","WebKit","Chrome","132.0.0.0","Windows","10.0","null","en-US,en;q=0.9","5f2047f472c1fd2eaf643c64","67949641171f97c04e14fb34","679c245fd927f5906bd15d09","","null","<img     src='G_4.jpg' height='90'> <img     src='G_5.jpg' height='90'> <img     src='G_7.jpg' height='90'> <img      src='G_8.jpg' height='90'> <img   src='G_2.jpg' height='90'> <img        src='G_6.jpg' height='90'> <img   src='G_1.jpg' height='90'> <img   src='G_3.jpg' height='90'>","null","Animation1",""
"","","","","","html-keyboard-response","142","383728","0.0-107.0","61","1","2025-01-31 01:17:30","af8d355d56820e421d246a7037deb6e6","98.153.62.15","Mozilla/5.0 (Windows NT 10.0; Win64; x64) AppleWebKit/537.36 (KHTML, like Gecko) Chrome/132.0.0.0 Safari/537.36","WebKit","Chrome","132.0.0.0","Windows","10.0","null","en-US,en;q=0.9","5f2047f472c1fd2eaf643c64","67949641171f97c04e14fb34","679c245fd927f5906bd15d09","","2510","[""Did you notice any patterns? <br><br>Press Enter to watch that example again and follow the steps of Omgne Sort.""]","enter","",""
"","","","","","html-button-response","143","384134","0.0-108.0","61","1","2025-01-31 01:17:30","af8d355d56820e421d246a7037deb6e6","98.153.62.15","Mozilla/5.0 (Windows NT 10.0; Win64; x64) AppleWebKit/537.36 (KHTML, like Gecko) Chrome/132.0.0.0 Safari/537.36","WebKit","Chrome","132.0.0.0","Windows","10.0","null","en-US,en;q=0.9","5f2047f472c1fd2eaf643c64","67949641171f97c04e14fb34","679c245fd927f5906bd15d09","","null","<img id='selected' src='G_8.jpg' height='90'> <img src='G_6.jpg' height='90'> <img src='G_7.jpg' height='90'> <img src='G_4.jpg' height='90'> <img src='G_5.jpg' height='90'> <img src='G_2.jpg' height='90'> <img src='G_3.jpg' height='90'> <img src='G_1.jpg' height='90'>","null","Learning example 1",""
"","","","","","html-button-response","144","384445","0.0-109.0","61","1","2025-01-31 01:17:30","af8d355d56820e421d246a7037deb6e6","98.153.62.15","Mozilla/5.0 (Windows NT 10.0; Win64; x64) AppleWebKit/537.36 (KHTML, like Gecko) Chrome/132.0.0.0 Safari/537.36","WebKit","Chrome","132.0.0.0","Windows","10.0","null","en-US,en;q=0.9","5f2047f472c1fd2eaf643c64","67949641171f97c04e14fb34","679c245fd927f5906bd15d09","","null","<img id='selected' src='G_8.jpg' height='90'> <img id='selected' src='G_6.jpg' height='90'> <img src='G_7.jpg' height='90'> <img src='G_4.jpg' height='90'> <img src='G_5.jpg' height='90'> <img src='G_2.jpg' height='90'> <img src='G_3.jpg' height='90'> <img src='G_1.jpg' height='90'>","null","Learning example 1",""
"","","","","","html-button-response","145","384759","0.0-110.0","61","1","2025-01-31 01:17:30","af8d355d56820e421d246a7037deb6e6","98.153.62.15","Mozilla/5.0 (Windows NT 10.0; Win64; x64) AppleWebKit/537.36 (KHTML, like Gecko) Chrome/132.0.0.0 Safari/537.36","WebKit","Chrome","132.0.0.0","Windows","10.0","null","en-US,en;q=0.9","5f2047f472c1fd2eaf643c64","67949641171f97c04e14fb34","679c245fd927f5906bd15d09","","null","<img id='selected' src='G_8.jpg' height='90'> <img id='selected' src='G_6.jpg' height='90'> <img src='G_7.jpg' height='90'> <img src='G_4.jpg' height='90'> <img src='G_5.jpg' height='90'> <img src='G_2.jpg' height='90'> <img src='G_3.jpg' height='90'> <img src='G_1.jpg' height='90'>","null","Learning example 1",""
"","","","","","html-button-response","146","386211","0.0-111.0-0.0-0.0","61","1","2025-01-31 01:17:30","af8d355d56820e421d246a7037deb6e6","98.153.62.15","Mozilla/5.0 (Windows NT 10.0; Win64; x64) AppleWebKit/537.36 (KHTML, like Gecko) Chrome/132.0.0.0 Safari/537.36","WebKit","Chrome","132.0.0.0","Windows","10.0","null","en-US,en;q=0.9","5f2047f472c1fd2eaf643c64","67949641171f97c04e14fb34","679c245fd927f5906bd15d09","","1447","<img id='selected' src='G_8.jpg' height='90'> <img id='selected' src='G_6.jpg' height='90'> <img src='G_7.jpg' height='90'> <img src='G_4.jpg' height='90'> <img src='G_5.jpg' height='90'> <img src='G_2.jpg' height='90'> <img src='G_3.jpg' height='90'> <img src='G_1.jpg' height='90'>","0","Learning example 1",""
"","","","","","html-button-response","147","386689","0.0-111.1-0.1-0.1","61","1","2025-01-31 01:17:30","af8d355d56820e421d246a7037deb6e6","98.153.62.15","Mozilla/5.0 (Windows NT 10.0; Win64; x64) AppleWebKit/537.36 (KHTML, like Gecko) Chrome/132.0.0.0 Safari/537.36","WebKit","Chrome","132.0.0.0","Windows","10.0","null","en-US,en;q=0.9","5f2047f472c1fd2eaf643c64","67949641171f97c04e14fb34","679c245fd927f5906bd15d09","","473","<img id='selected' src='G_8.jpg' height='90'> <img id='selected' src='G_6.jpg' height='90'> <img src='G_7.jpg' height='90'> <img src='G_4.jpg' height='90'> <img src='G_5.jpg' height='90'> <img src='G_2.jpg' height='90'> <img src='G_3.jpg' height='90'> <img src='G_1.jpg' height='90'>","1","Learning example 1",""
"","","","","","html-button-response","148","386901","0.0-112.0","61","1","2025-01-31 01:17:30","af8d355d56820e421d246a7037deb6e6","98.153.62.15","Mozilla/5.0 (Windows NT 10.0; Win64; x64) AppleWebKit/537.36 (KHTML, like Gecko) Chrome/132.0.0.0 Safari/537.36","WebKit","Chrome","132.0.0.0","Windows","10.0","null","en-US,en;q=0.9","5f2047f472c1fd2eaf643c64","67949641171f97c04e14fb34","679c245fd927f5906bd15d09","","null","<img  src='G_8.jpg' height='90'> <img  src='G_6.jpg' height='90'> <img src='G_7.jpg' height='90'> <img src='G_4.jpg' height='90'> <img src='G_5.jpg' height='90'> <img src='G_2.jpg' height='90'> <img src='G_3.jpg' height='90'> <img src='G_1.jpg' height='90'>","null","Learning example 1",""
"","","","","","html-button-response","149","387320","0.0-113.0","61","1","2025-01-31 01:17:30","af8d355d56820e421d246a7037deb6e6","98.153.62.15","Mozilla/5.0 (Windows NT 10.0; Win64; x64) AppleWebKit/537.36 (KHTML, like Gecko) Chrome/132.0.0.0 Safari/537.36","WebKit","Chrome","132.0.0.0","Windows","10.0","null","en-US,en;q=0.9","5f2047f472c1fd2eaf643c64","67949641171f97c04e14fb34","679c245fd927f5906bd15d09","","null","<img  src='G_8.jpg' height='90'> <img id='selected'  src='G_6.jpg' height='90'> <img src='G_7.jpg' height='90'> <img src='G_4.jpg' height='90'> <img src='G_5.jpg' height='90'> <img src='G_2.jpg' height='90'> <img src='G_3.jpg' height='90'> <img src='G_1.jpg' height='90'>","null","Learning example 1",""
"","","","","","html-button-response","150","387627","0.0-114.0","61","1","2025-01-31 01:17:30","af8d355d56820e421d246a7037deb6e6","98.153.62.15","Mozilla/5.0 (Windows NT 10.0; Win64; x64) AppleWebKit/537.36 (KHTML, like Gecko) Chrome/132.0.0.0 Safari/537.36","WebKit","Chrome","132.0.0.0","Windows","10.0","null","en-US,en;q=0.9","5f2047f472c1fd2eaf643c64","67949641171f97c04e14fb34","679c245fd927f5906bd15d09","","null","<img  src='G_8.jpg' height='90'> <img id='selected'  src='G_6.jpg' height='90'> <img id='selected' src='G_7.jpg' height='90'> <img src='G_4.jpg' height='90'> <img src='G_5.jpg' height='90'> <img src='G_2.jpg' height='90'> <img src='G_3.jpg' height='90'> <img src='G_1.jpg' height='90'>","null","Learning example 1",""
"","","","","","html-button-response","151","387944","0.0-115.0","61","1","2025-01-31 01:17:30","af8d355d56820e421d246a7037deb6e6","98.153.62.15","Mozilla/5.0 (Windows NT 10.0; Win64; x64) AppleWebKit/537.36 (KHTML, like Gecko) Chrome/132.0.0.0 Safari/537.36","WebKit","Chrome","132.0.0.0","Windows","10.0","null","en-US,en;q=0.9","5f2047f472c1fd2eaf643c64","67949641171f97c04e14fb34","679c245fd927f5906bd15d09","","null","<img  src='G_8.jpg' height='90'> <img id='swapped' src='G_7.jpg' height='90'> <img id='swapped'  src='G_6.jpg' height='90'> <img src='G_4.jpg' height='90'> <img src='G_5.jpg' height='90'> <img src='G_2.jpg' height='90'> <img src='G_3.jpg' height='90'> <img src='G_1.jpg' height='90'>","null","Learning example 1",""
"","","","","","html-button-response","152","389097","0.0-116.0-0.0-0.0","61","1","2025-01-31 01:17:30","af8d355d56820e421d246a7037deb6e6","98.153.62.15","Mozilla/5.0 (Windows NT 10.0; Win64; x64) AppleWebKit/537.36 (KHTML, like Gecko) Chrome/132.0.0.0 Safari/537.36","WebKit","Chrome","132.0.0.0","Windows","10.0","null","en-US,en;q=0.9","5f2047f472c1fd2eaf643c64","67949641171f97c04e14fb34","679c245fd927f5906bd15d09","","1145","<img  src='G_8.jpg' height='90'> <img id='swapped' src='G_7.jpg' height='90'> <img id='swapped'  src='G_6.jpg' height='90'> <img src='G_4.jpg' height='90'> <img src='G_5.jpg' height='90'> <img src='G_2.jpg' height='90'> <img src='G_3.jpg' height='90'> <img src='G_1.jpg' height='90'>","1","Learning example 1",""
"","","","","","html-button-response","153","389638","0.0-116.1-0.1-0.1","61","1","2025-01-31 01:17:30","af8d355d56820e421d246a7037deb6e6","98.153.62.15","Mozilla/5.0 (Windows NT 10.0; Win64; x64) AppleWebKit/537.36 (KHTML, like Gecko) Chrome/132.0.0.0 Safari/537.36","WebKit","Chrome","132.0.0.0","Windows","10.0","null","en-US,en;q=0.9","5f2047f472c1fd2eaf643c64","67949641171f97c04e14fb34","679c245fd927f5906bd15d09","","535","<img  src='G_8.jpg' height='90'> <img id='swapped' src='G_7.jpg' height='90'> <img id='swapped'  src='G_6.jpg' height='90'> <img src='G_4.jpg' height='90'> <img src='G_5.jpg' height='90'> <img src='G_2.jpg' height='90'> <img src='G_3.jpg' height='90'> <img src='G_1.jpg' height='90'>","2","Learning example 1",""
"","","","","","html-button-response","154","389850","0.0-117.0","61","1","2025-01-31 01:17:30","af8d355d56820e421d246a7037deb6e6","98.153.62.15","Mozilla/5.0 (Windows NT 10.0; Win64; x64) AppleWebKit/537.36 (KHTML, like Gecko) Chrome/132.0.0.0 Safari/537.36","WebKit","Chrome","132.0.0.0","Windows","10.0","null","en-US,en;q=0.9","5f2047f472c1fd2eaf643c64","67949641171f97c04e14fb34","679c245fd927f5906bd15d09","","null","<img  src='G_8.jpg' height='90'> <img  src='G_7.jpg' height='90'> <img   src='G_6.jpg' height='90'> <img src='G_4.jpg' height='90'> <img src='G_5.jpg' height='90'> <img src='G_2.jpg' height='90'> <img src='G_3.jpg' height='90'> <img src='G_1.jpg' height='90'>","null","Learning example 1",""
