"success","timeout","failed_images","failed_audio","failed_video","trial_type","trial_index","time_elapsed","internal_node_id","run_id","condition","recorded_at","source_code_version","ip","user_agent","device","browser","browser_version","platform","platform_version","referer","accept_language","PROLIFIC_PID","STUDY_ID","SESSION_ID","view_history","rt","stimulus","response","phase","question_order"
"true","false","[]","[]","[]","preload","0","346","0.0-0.0","62","1","2025-01-31 01:18:21","af8d355d56820e421d246a7037deb6e6","67.182.247.161","Mozilla/5.0 (Windows NT 10.0; Win64; x64) AppleWebKit/537.36 (KHTML, like Gecko) Chrome/131.0.0.0 Safari/537.36","WebKit","Chrome","131.0.0.0","Windows","10.0","https://app.prolific.com/","en-US,en;q=0.9","674934b4b6bd253249a72d63","67949641171f97c04e14fb34","679c23bc82d2811b834f00a0","","","","","",""
"","","","","","instructions","1","81234","0.0-1.0","62","1","2025-01-31 01:18:21","af8d355d56820e421d246a7037deb6e6","67.182.247.161","Mozilla/5.0 (Windows NT 10.0; Win64; x64) AppleWebKit/537.36 (KHTML, like Gecko) Chrome/131.0.0.0 Safari/537.36","WebKit","Chrome","131.0.0.0","Windows","10.0","https://app.prolific.com/","en-US,en;q=0.9","674934b4b6bd253249a72d63","67949641171f97c04e14fb34","679c23bc82d2811b834f00a0","[{""page_index"":0,""viewing_time"":80886}]","80887","","","",""
"","","","","","html-keyboard-response","2","81743","0.0-2.0","62","1","2025-01-31 01:18:21","af8d355d56820e421d246a7037deb6e6","67.182.247.161","Mozilla/5.0 (Windows NT 10.0; Win64; x64) AppleWebKit/537.36 (KHTML, like Gecko) Chrome/131.0.0.0 Safari/537.36","WebKit","Chrome","131.0.0.0","Windows","10.0","https://app.prolific.com/","en-US,en;q=0.9","674934b4b6bd253249a72d63","67949641171f97c04e14fb34","679c23bc82d2811b834f00a0","","null","<p> + <p/>","null","",""
"","","","","","instructions","3","157148","0.0-3.0","62","1","2025-01-31 01:18:21","af8d355d56820e421d246a7037deb6e6","67.182.247.161","Mozilla/5.0 (Windows NT 10.0; Win64; x64) AppleWebKit/537.36 (KHTML, like Gecko) Chrome/131.0.0.0 Safari/537.36","WebKit","Chrome","131.0.0.0","Windows","10.0","https://app.prolific.com/","en-US,en;q=0.9","674934b4b6bd253249a72d63","67949641171f97c04e14fb34","679c23bc82d2811b834f00a0","[{""page_index"":0,""viewing_time"":3797},{""page_index"":1,""viewing_time"":33071},{""page_index"":2,""viewing_time"":16059},{""page_index"":3,""viewing_time"":10261},{""page_index"":4,""viewing_time"":12215}]","75404","","","",""
"","","","","","html-button-response","4","303808","0.0-4.0-0.0-0.0","62","1","2025-01-31 01:18:21","af8d355d56820e421d246a7037deb6e6","67.182.247.161","Mozilla/5.0 (Windows NT 10.0; Win64; x64) AppleWebKit/537.36 (KHTML, like Gecko) Chrome/131.0.0.0 Safari/537.36","WebKit","Chrome","131.0.0.0","Windows","10.0","https://app.prolific.com/","en-US,en;q=0.9","674934b4b6bd253249a72d63","67949641171f97c04e14fb34","679c23bc82d2811b834f00a0","","146656","","2","Intro Trial",""
"","","","","","html-button-response","5","306477","0.0-4.1-0.1-0.1","62","1","2025-01-31 01:18:21","af8d355d56820e421d246a7037deb6e6","67.182.247.161","Mozilla/5.0 (Windows NT 10.0; Win64; x64) AppleWebKit/537.36 (KHTML, like Gecko) Chrome/131.0.0.0 Safari/537.36","WebKit","Chrome","131.0.0.0","Windows","10.0","https://app.prolific.com/","en-US,en;q=0.9","674934b4b6bd253249a72d63","67949641171f97c04e14fb34","679c23bc82d2811b834f00a0","","2664","","4","Intro Trial",""
"","","","","","html-button-response","6","311854","0.0-4.2-0.2-0.2","62","1","2025-01-31 01:18:21","af8d355d56820e421d246a7037deb6e6","67.182.247.161","Mozilla/5.0 (Windows NT 10.0; Win64; x64) AppleWebKit/537.36 (KHTML, like Gecko) Chrome/131.0.0.0 Safari/537.36","WebKit","Chrome","131.0.0.0","Windows","10.0","https://app.prolific.com/","en-US,en;q=0.9","674934b4b6bd253249a72d63","67949641171f97c04e14fb34","679c23bc82d2811b834f00a0","","5372","","5","Intro Trial",""
"","","","","","html-keyboard-response","7","364114","0.0-5.0","62","1","2025-01-31 01:18:21","af8d355d56820e421d246a7037deb6e6","67.182.247.161","Mozilla/5.0 (Windows NT 10.0; Win64; x64) AppleWebKit/537.36 (KHTML, like Gecko) Chrome/131.0.0.0 Safari/537.36","WebKit","Chrome","131.0.0.0","Windows","10.0","https://app.prolific.com/","en-US,en;q=0.9","674934b4b6bd253249a72d63","67949641171f97c04e14fb34","679c23bc82d2811b834f00a0","","52257","[""You sorted incorrectly by using the balance 1 times. <br><br> <img src='G_1.jpg' height='90'><img src='G_2.jpg' height='90'><img src='G_5.jpg' height='90'><img src='G_4.jpg' height='90'><img src='G_3.jpg' height='90'><br><br> Your final order is 4,2,1,5,3<br><br><br>Omgne Sort in this game will allow you to sort correctly by using the balance 8 times. Press Enter to learn it!""]","enter","",""
"","","","","","html-keyboard-response","8","377359","0.0-6.0","62","1","2025-01-31 01:18:21","af8d355d56820e421d246a7037deb6e6","67.182.247.161","Mozilla/5.0 (Windows NT 10.0; Win64; x64) AppleWebKit/537.36 (KHTML, like Gecko) Chrome/131.0.0.0 Safari/537.36","WebKit","Chrome","131.0.0.0","Windows","10.0","https://app.prolific.com/","en-US,en;q=0.9","674934b4b6bd253249a72d63","67949641171f97c04e14fb34","679c23bc82d2811b834f00a0","","13244","<p>Welcome to the learning phase! <br><br> You will learn by six examples. The following learning trials will not be used to calculate your performance. <br><br> Press Enter to continue.<p/>","enter","",""
"","","","","","html-keyboard-response","9","489015","0.0-7.0","62","1","2025-01-31 01:18:21","af8d355d56820e421d246a7037deb6e6","67.182.247.161","Mozilla/5.0 (Windows NT 10.0; Win64; x64) AppleWebKit/537.36 (KHTML, like Gecko) Chrome/131.0.0.0 Safari/537.36","WebKit","Chrome","131.0.0.0","Windows","10.0","https://app.prolific.com/","en-US,en;q=0.9","674934b4b6bd253249a72d63","67949641171f97c04e14fb34","679c23bc82d2811b834f00a0","","111655","[""Example 1<br><br>You will watch Omnge Sort in action. Try to identify any patterns in the comparisons made by this method. <br><br>Press Enter to continue.""]","enter","",""
"","","","","","html-keyboard-response","10","489526","0.0-8.0","62","1","2025-01-31 01:18:21","af8d355d56820e421d246a7037deb6e6","67.182.247.161","Mozilla/5.0 (Windows NT 10.0; Win64; x64) AppleWebKit/537.36 (KHTML, like Gecko) Chrome/131.0.0.0 Safari/537.36","WebKit","Chrome","131.0.0.0","Windows","10.0","https://app.prolific.com/","en-US,en;q=0.9","674934b4b6bd253249a72d63","67949641171f97c04e14fb34","679c23bc82d2811b834f00a0","","null","<img id='selected' src='G_9.jpg' height='90'> <img src='G_7.jpg' height='90'> <img src='G_1.jpg' height='90'> <img src='G_5.jpg' height='90'> <img src='G_3.jpg' height='90'>","null","Animation0",""
"","","","","","html-keyboard-response","11","490043","0.0-9.0","62","1","2025-01-31 01:18:21","af8d355d56820e421d246a7037deb6e6","67.182.247.161","Mozilla/5.0 (Windows NT 10.0; Win64; x64) AppleWebKit/537.36 (KHTML, like Gecko) Chrome/131.0.0.0 Safari/537.36","WebKit","Chrome","131.0.0.0","Windows","10.0","https://app.prolific.com/","en-US,en;q=0.9","674934b4b6bd253249a72d63","67949641171f97c04e14fb34","679c23bc82d2811b834f00a0","","null","<img id='selected' src='G_9.jpg' height='90'> <img id='selected' src='G_7.jpg' height='90'> <img src='G_1.jpg' height='90'> <img src='G_5.jpg' height='90'> <img src='G_3.jpg' height='90'>","null","Animation0",""
"","","","","","html-keyboard-response","12","490549","0.0-10.0","62","1","2025-01-31 01:18:21","af8d355d56820e421d246a7037deb6e6","67.182.247.161","Mozilla/5.0 (Windows NT 10.0; Win64; x64) AppleWebKit/537.36 (KHTML, like Gecko) Chrome/131.0.0.0 Safari/537.36","WebKit","Chrome","131.0.0.0","Windows","10.0","https://app.prolific.com/","en-US,en;q=0.9","674934b4b6bd253249a72d63","67949641171f97c04e14fb34","679c23bc82d2811b834f00a0","","null","<img id='swapped' src='G_7.jpg' height='90'> <img id='swapped' src='G_9.jpg' height='90'> <img src='G_1.jpg' height='90'> <img src='G_5.jpg' height='90'> <img src='G_3.jpg' height='90'>","null","Animation0",""
"","","","","","html-keyboard-response","13","490867","0.0-11.0","62","1","2025-01-31 01:18:21","af8d355d56820e421d246a7037deb6e6","67.182.247.161","Mozilla/5.0 (Windows NT 10.0; Win64; x64) AppleWebKit/537.36 (KHTML, like Gecko) Chrome/131.0.0.0 Safari/537.36","WebKit","Chrome","131.0.0.0","Windows","10.0","https://app.prolific.com/","en-US,en;q=0.9","674934b4b6bd253249a72d63","67949641171f97c04e14fb34","679c23bc82d2811b834f00a0","","null","<img  src='G_7.jpg' height='90'> <img  src='G_9.jpg' height='90'> <img src='G_1.jpg' height='90'> <img src='G_5.jpg' height='90'> <img src='G_3.jpg' height='90'>","null","Animation0",""
"","","","","","html-keyboard-response","14","491370","0.0-12.0","62","1","2025-01-31 01:18:21","af8d355d56820e421d246a7037deb6e6","67.182.247.161","Mozilla/5.0 (Windows NT 10.0; Win64; x64) AppleWebKit/537.36 (KHTML, like Gecko) Chrome/131.0.0.0 Safari/537.36","WebKit","Chrome","131.0.0.0","Windows","10.0","https://app.prolific.com/","en-US,en;q=0.9","674934b4b6bd253249a72d63","67949641171f97c04e14fb34","679c23bc82d2811b834f00a0","","null","<img  src='G_7.jpg' height='90'> <img id='selected'  src='G_9.jpg' height='90'> <img src='G_1.jpg' height='90'> <img src='G_5.jpg' height='90'> <img src='G_3.jpg' height='90'>","null","Animation0",""
"","","","","","html-keyboard-response","15","491881","0.0-13.0","62","1","2025-01-31 01:18:21","af8d355d56820e421d246a7037deb6e6","67.182.247.161","Mozilla/5.0 (Windows NT 10.0; Win64; x64) AppleWebKit/537.36 (KHTML, like Gecko) Chrome/131.0.0.0 Safari/537.36","WebKit","Chrome","131.0.0.0","Windows","10.0","https://app.prolific.com/","en-US,en;q=0.9","674934b4b6bd253249a72d63","67949641171f97c04e14fb34","679c23bc82d2811b834f00a0","","null","<img  src='G_7.jpg' height='90'> <img id='selected'  src='G_9.jpg' height='90'> <img id='selected' src='G_1.jpg' height='90'> <img src='G_5.jpg' height='90'> <img src='G_3.jpg' height='90'>","null","Animation0",""
"","","","","","html-keyboard-response","16","492386","0.0-14.0","62","1","2025-01-31 01:18:21","af8d355d56820e421d246a7037deb6e6","67.182.247.161","Mozilla/5.0 (Windows NT 10.0; Win64; x64) AppleWebKit/537.36 (KHTML, like Gecko) Chrome/131.0.0.0 Safari/537.36","WebKit","Chrome","131.0.0.0","Windows","10.0","https://app.prolific.com/","en-US,en;q=0.9","674934b4b6bd253249a72d63","67949641171f97c04e14fb34","679c23bc82d2811b834f00a0","","null","<img  src='G_7.jpg' height='90'> <img id='selected'  src='G_9.jpg' height='90'> <img id='selected' src='G_1.jpg' height='90'> <img src='G_5.jpg' height='90'> <img src='G_3.jpg' height='90'>","null","Animation0",""
"","","","","","html-keyboard-response","17","492697","0.0-15.0","62","1","2025-01-31 01:18:21","af8d355d56820e421d246a7037deb6e6","67.182.247.161","Mozilla/5.0 (Windows NT 10.0; Win64; x64) AppleWebKit/537.36 (KHTML, like Gecko) Chrome/131.0.0.0 Safari/537.36","WebKit","Chrome","131.0.0.0","Windows","10.0","https://app.prolific.com/","en-US,en;q=0.9","674934b4b6bd253249a72d63","67949641171f97c04e14fb34","679c23bc82d2811b834f00a0","","null","<img  src='G_7.jpg' height='90'> <img   src='G_9.jpg' height='90'> <img  src='G_1.jpg' height='90'> <img src='G_5.jpg' height='90'> <img src='G_3.jpg' height='90'>","null","Animation0",""
"","","","","","html-keyboard-response","18","493204","0.0-16.0","62","1","2025-01-31 01:18:21","af8d355d56820e421d246a7037deb6e6","67.182.247.161","Mozilla/5.0 (Windows NT 10.0; Win64; x64) AppleWebKit/537.36 (KHTML, like Gecko) Chrome/131.0.0.0 Safari/537.36","WebKit","Chrome","131.0.0.0","Windows","10.0","https://app.prolific.com/","en-US,en;q=0.9","674934b4b6bd253249a72d63","67949641171f97c04e14fb34","679c23bc82d2811b834f00a0","","null","<img  src='G_7.jpg' height='90'> <img   src='G_9.jpg' height='90'> <img id='selected'  src='G_1.jpg' height='90'> <img src='G_5.jpg' height='90'> <img src='G_3.jpg' height='90'>","null","Animation0",""
"","","","","","html-keyboard-response","19","493723","0.0-17.0","62","1","2025-01-31 01:18:21","af8d355d56820e421d246a7037deb6e6","67.182.247.161","Mozilla/5.0 (Windows NT 10.0; Win64; x64) AppleWebKit/537.36 (KHTML, like Gecko) Chrome/131.0.0.0 Safari/537.36","WebKit","Chrome","131.0.0.0","Windows","10.0","https://app.prolific.com/","en-US,en;q=0.9","674934b4b6bd253249a72d63","67949641171f97c04e14fb34","679c23bc82d2811b834f00a0","","null","<img  src='G_7.jpg' height='90'> <img   src='G_9.jpg' height='90'> <img id='selected'  src='G_1.jpg' height='90'> <img id='selected' src='G_5.jpg' height='90'> <img src='G_3.jpg' height='90'>","null","Animation0",""
"","","","","","html-keyboard-response","20","494233","0.0-18.0","62","1","2025-01-31 01:18:21","af8d355d56820e421d246a7037deb6e6","67.182.247.161","Mozilla/5.0 (Windows NT 10.0; Win64; x64) AppleWebKit/537.36 (KHTML, like Gecko) Chrome/131.0.0.0 Safari/537.36","WebKit","Chrome","131.0.0.0","Windows","10.0","https://app.prolific.com/","en-US,en;q=0.9","674934b4b6bd253249a72d63","67949641171f97c04e14fb34","679c23bc82d2811b834f00a0","","null","<img  src='G_7.jpg' height='90'> <img   src='G_9.jpg' height='90'> <img id='selected'  src='G_1.jpg' height='90'> <img id='selected' src='G_5.jpg' height='90'> <img src='G_3.jpg' height='90'>","null","Animation0",""
"","","","","","html-keyboard-response","21","494544","0.0-19.0","62","1","2025-01-31 01:18:21","af8d355d56820e421d246a7037deb6e6","67.182.247.161","Mozilla/5.0 (Windows NT 10.0; Win64; x64) AppleWebKit/537.36 (KHTML, like Gecko) Chrome/131.0.0.0 Safari/537.36","WebKit","Chrome","131.0.0.0","Windows","10.0","https://app.prolific.com/","en-US,en;q=0.9","674934b4b6bd253249a72d63","67949641171f97c04e14fb34","679c23bc82d2811b834f00a0","","null","<img  src='G_7.jpg' height='90'> <img   src='G_9.jpg' height='90'> <img   src='G_1.jpg' height='90'> <img  src='G_5.jpg' height='90'> <img src='G_3.jpg' height='90'>","null","Animation0",""
"","","","","","html-keyboard-response","22","495051","0.0-20.0","62","1","2025-01-31 01:18:21","af8d355d56820e421d246a7037deb6e6","67.182.247.161","Mozilla/5.0 (Windows NT 10.0; Win64; x64) AppleWebKit/537.36 (KHTML, like Gecko) Chrome/131.0.0.0 Safari/537.36","WebKit","Chrome","131.0.0.0","Windows","10.0","https://app.prolific.com/","en-US,en;q=0.9","674934b4b6bd253249a72d63","67949641171f97c04e14fb34","679c23bc82d2811b834f00a0","","null","<img  src='G_7.jpg' height='90'> <img   src='G_9.jpg' height='90'> <img   src='G_1.jpg' height='90'> <img id='selected'  src='G_5.jpg' height='90'> <img src='G_3.jpg' height='90'>","null","Animation0",""
"","","","","","html-keyboard-response","23","495560","0.0-21.0","62","1","2025-01-31 01:18:21","af8d355d56820e421d246a7037deb6e6","67.182.247.161","Mozilla/5.0 (Windows NT 10.0; Win64; x64) AppleWebKit/537.36 (KHTML, like Gecko) Chrome/131.0.0.0 Safari/537.36","WebKit","Chrome","131.0.0.0","Windows","10.0","https://app.prolific.com/","en-US,en;q=0.9","674934b4b6bd253249a72d63","67949641171f97c04e14fb34","679c23bc82d2811b834f00a0","","null","<img  src='G_7.jpg' height='90'> <img   src='G_9.jpg' height='90'> <img   src='G_1.jpg' height='90'> <img id='selected'  src='G_5.jpg' height='90'> <img id='selected' src='G_3.jpg' height='90'>","null","Animation0",""
"","","","","","html-keyboard-response","24","496062","0.0-22.0","62","1","2025-01-31 01:18:21","af8d355d56820e421d246a7037deb6e6","67.182.247.161","Mozilla/5.0 (Windows NT 10.0; Win64; x64) AppleWebKit/537.36 (KHTML, like Gecko) Chrome/131.0.0.0 Safari/537.36","WebKit","Chrome","131.0.0.0","Windows","10.0","https://app.prolific.com/","en-US,en;q=0.9","674934b4b6bd253249a72d63","67949641171f97c04e14fb34","679c23bc82d2811b834f00a0","","null","<img  src='G_7.jpg' height='90'> <img   src='G_9.jpg' height='90'> <img   src='G_1.jpg' height='90'> <img id='selected'  src='G_5.jpg' height='90'> <img id='selected' src='G_3.jpg' height='90'>","null","Animation0",""
"","","","","","html-keyboard-response","25","496372","0.0-23.0","62","1","2025-01-31 01:18:21","af8d355d56820e421d246a7037deb6e6","67.182.247.161","Mozilla/5.0 (Windows NT 10.0; Win64; x64) AppleWebKit/537.36 (KHTML, like Gecko) Chrome/131.0.0.0 Safari/537.36","WebKit","Chrome","131.0.0.0","Windows","10.0","https://app.prolific.com/","en-US,en;q=0.9","674934b4b6bd253249a72d63","67949641171f97c04e14fb34","679c23bc82d2811b834f00a0","","null","<img  src='G_7.jpg' height='90'> <img   src='G_9.jpg' height='90'> <img   src='G_1.jpg' height='90'> <img   src='G_5.jpg' height='90'> <img  src='G_3.jpg' height='90'>","null","Animation0",""
"","","","","","html-keyboard-response","26","503654","0.0-24.0","62","1","2025-01-31 01:18:21","af8d355d56820e421d246a7037deb6e6","67.182.247.161","Mozilla/5.0 (Windows NT 10.0; Win64; x64) AppleWebKit/537.36 (KHTML, like Gecko) Chrome/131.0.0.0 Safari/537.36","WebKit","Chrome","131.0.0.0","Windows","10.0","https://app.prolific.com/","en-US,en;q=0.9","674934b4b6bd253249a72d63","67949641171f97c04e14fb34","679c23bc82d2811b834f00a0","","7281","[""Did you notice any patterns? <br><br>Press Enter to watch that example again and follow the steps of Omgne Sort.""]","enter","",""
"","","","","","html-button-response","27","504059","0.0-25.0","62","1","2025-01-31 01:18:21","af8d355d56820e421d246a7037deb6e6","67.182.247.161","Mozilla/5.0 (Windows NT 10.0; Win64; x64) AppleWebKit/537.36 (KHTML, like Gecko) Chrome/131.0.0.0 Safari/537.36","WebKit","Chrome","131.0.0.0","Windows","10.0","https://app.prolific.com/","en-US,en;q=0.9","674934b4b6bd253249a72d63","67949641171f97c04e14fb34","679c23bc82d2811b834f00a0","","null","<img id='selected' src='G_9.jpg' height='90'> <img src='G_7.jpg' height='90'> <img src='G_1.jpg' height='90'> <img src='G_5.jpg' height='90'> <img src='G_3.jpg' height='90'>","null","Learning example 0",""
"","","","","","html-button-response","28","504376","0.0-26.0","62","1","2025-01-31 01:18:21","af8d355d56820e421d246a7037deb6e6","67.182.247.161","Mozilla/5.0 (Windows NT 10.0; Win64; x64) AppleWebKit/537.36 (KHTML, like Gecko) Chrome/131.0.0.0 Safari/537.36","WebKit","Chrome","131.0.0.0","Windows","10.0","https://app.prolific.com/","en-US,en;q=0.9","674934b4b6bd253249a72d63","67949641171f97c04e14fb34","679c23bc82d2811b834f00a0","","null","<img id='selected' src='G_9.jpg' height='90'> <img id='selected' src='G_7.jpg' height='90'> <img src='G_1.jpg' height='90'> <img src='G_5.jpg' height='90'> <img src='G_3.jpg' height='90'>","null","Learning example 0",""
"","","","","","html-button-response","29","504689","0.0-27.0","62","1","2025-01-31 01:18:21","af8d355d56820e421d246a7037deb6e6","67.182.247.161","Mozilla/5.0 (Windows NT 10.0; Win64; x64) AppleWebKit/537.36 (KHTML, like Gecko) Chrome/131.0.0.0 Safari/537.36","WebKit","Chrome","131.0.0.0","Windows","10.0","https://app.prolific.com/","en-US,en;q=0.9","674934b4b6bd253249a72d63","67949641171f97c04e14fb34","679c23bc82d2811b834f00a0","","null","<img id='swapped' src='G_7.jpg' height='90'> <img id='swapped' src='G_9.jpg' height='90'> <img src='G_1.jpg' height='90'> <img src='G_5.jpg' height='90'> <img src='G_3.jpg' height='90'>","null","Learning example 0",""
"","","","","","html-button-response","30","530526","0.0-28.0-0.0-0.0","62","1","2025-01-31 01:18:21","af8d355d56820e421d246a7037deb6e6","67.182.247.161","Mozilla/5.0 (Windows NT 10.0; Win64; x64) AppleWebKit/537.36 (KHTML, like Gecko) Chrome/131.0.0.0 Safari/537.36","WebKit","Chrome","131.0.0.0","Windows","10.0","https://app.prolific.com/","en-US,en;q=0.9","674934b4b6bd253249a72d63","67949641171f97c04e14fb34","679c23bc82d2811b834f00a0","","25834","<img id='swapped' src='G_7.jpg' height='90'> <img id='swapped' src='G_9.jpg' height='90'> <img src='G_1.jpg' height='90'> <img src='G_5.jpg' height='90'> <img src='G_3.jpg' height='90'>","0","Learning example 0",""
"","","","","","html-button-response","31","532139","0.0-28.1-0.1-0.1","62","1","2025-01-31 01:18:21","af8d355d56820e421d246a7037deb6e6","67.182.247.161","Mozilla/5.0 (Windows NT 10.0; Win64; x64) AppleWebKit/537.36 (KHTML, like Gecko) Chrome/131.0.0.0 Safari/537.36","WebKit","Chrome","131.0.0.0","Windows","10.0","https://app.prolific.com/","en-US,en;q=0.9","674934b4b6bd253249a72d63","67949641171f97c04e14fb34","679c23bc82d2811b834f00a0","","1608","<img id='swapped' src='G_7.jpg' height='90'> <img id='swapped' src='G_9.jpg' height='90'> <img src='G_1.jpg' height='90'> <img src='G_5.jpg' height='90'> <img src='G_3.jpg' height='90'>","1","Learning example 0",""
"","","","","","html-button-response","32","532352","0.0-29.0","62","1","2025-01-31 01:18:21","af8d355d56820e421d246a7037deb6e6","67.182.247.161","Mozilla/5.0 (Windows NT 10.0; Win64; x64) AppleWebKit/537.36 (KHTML, like Gecko) Chrome/131.0.0.0 Safari/537.36","WebKit","Chrome","131.0.0.0","Windows","10.0","https://app.prolific.com/","en-US,en;q=0.9","674934b4b6bd253249a72d63","67949641171f97c04e14fb34","679c23bc82d2811b834f00a0","","null","<img  src='G_7.jpg' height='90'> <img  src='G_9.jpg' height='90'> <img src='G_1.jpg' height='90'> <img src='G_5.jpg' height='90'> <img src='G_3.jpg' height='90'>","null","Learning example 0",""
"","","","","","html-button-response","33","532772","0.0-30.0","62","1","2025-01-31 01:18:21","af8d355d56820e421d246a7037deb6e6","67.182.247.161","Mozilla/5.0 (Windows NT 10.0; Win64; x64) AppleWebKit/537.36 (KHTML, like Gecko) Chrome/131.0.0.0 Safari/537.36","WebKit","Chrome","131.0.0.0","Windows","10.0","https://app.prolific.com/","en-US,en;q=0.9","674934b4b6bd253249a72d63","67949641171f97c04e14fb34","679c23bc82d2811b834f00a0","","null","<img  src='G_7.jpg' height='90'> <img id='selected'  src='G_9.jpg' height='90'> <img src='G_1.jpg' height='90'> <img src='G_5.jpg' height='90'> <img src='G_3.jpg' height='90'>","null","Learning example 0",""
"","","","","","html-button-response","34","533078","0.0-31.0","62","1","2025-01-31 01:18:21","af8d355d56820e421d246a7037deb6e6","67.182.247.161","Mozilla/5.0 (Windows NT 10.0; Win64; x64) AppleWebKit/537.36 (KHTML, like Gecko) Chrome/131.0.0.0 Safari/537.36","WebKit","Chrome","131.0.0.0","Windows","10.0","https://app.prolific.com/","en-US,en;q=0.9","674934b4b6bd253249a72d63","67949641171f97c04e14fb34","679c23bc82d2811b834f00a0","","null","<img  src='G_7.jpg' height='90'> <img id='selected'  src='G_9.jpg' height='90'> <img id='selected' src='G_1.jpg' height='90'> <img src='G_5.jpg' height='90'> <img src='G_3.jpg' height='90'>","null","Learning example 0",""
"","","","","","html-button-response","35","533392","0.0-32.0","62","1","2025-01-31 01:18:21","af8d355d56820e421d246a7037deb6e6","67.182.247.161","Mozilla/5.0 (Windows NT 10.0; Win64; x64) AppleWebKit/537.36 (KHTML, like Gecko) Chrome/131.0.0.0 Safari/537.36","WebKit","Chrome","131.0.0.0","Windows","10.0","https://app.prolific.com/","en-US,en;q=0.9","674934b4b6bd253249a72d63","67949641171f97c04e14fb34","679c23bc82d2811b834f00a0","","null","<img  src='G_7.jpg' height='90'> <img id='selected'  src='G_9.jpg' height='90'> <img id='selected' src='G_1.jpg' height='90'> <img src='G_5.jpg' height='90'> <img src='G_3.jpg' height='90'>","null","Learning example 0",""
"","","","","","html-button-response","36","539015","0.0-33.0-0.0-0.0","62","1","2025-01-31 01:18:21","af8d355d56820e421d246a7037deb6e6","67.182.247.161","Mozilla/5.0 (Windows NT 10.0; Win64; x64) AppleWebKit/537.36 (KHTML, like Gecko) Chrome/131.0.0.0 Safari/537.36","WebKit","Chrome","131.0.0.0","Windows","10.0","https://app.prolific.com/","en-US,en;q=0.9","674934b4b6bd253249a72d63","67949641171f97c04e14fb34","679c23bc82d2811b834f00a0","","5619","<img  src='G_7.jpg' height='90'> <img id='selected'  src='G_9.jpg' height='90'> <img id='selected' src='G_1.jpg' height='90'> <img src='G_5.jpg' height='90'> <img src='G_3.jpg' height='90'>","1","Learning example 0",""
"","","","","","html-button-response","37","540727","0.0-33.1-0.1-0.1","62","1","2025-01-31 01:18:21","af8d355d56820e421d246a7037deb6e6","67.182.247.161","Mozilla/5.0 (Windows NT 10.0; Win64; x64) AppleWebKit/537.36 (KHTML, like Gecko) Chrome/131.0.0.0 Safari/537.36","WebKit","Chrome","131.0.0.0","Windows","10.0","https://app.prolific.com/","en-US,en;q=0.9","674934b4b6bd253249a72d63","67949641171f97c04e14fb34","679c23bc82d2811b834f00a0","","1708","<img  src='G_7.jpg' height='90'> <img id='selected'  src='G_9.jpg' height='90'> <img id='selected' src='G_1.jpg' height='90'> <img src='G_5.jpg' height='90'> <img src='G_3.jpg' height='90'>","2","Learning example 0",""
"","","","","","html-button-response","38","540945","0.0-34.0","62","1","2025-01-31 01:18:21","af8d355d56820e421d246a7037deb6e6","67.182.247.161","Mozilla/5.0 (Windows NT 10.0; Win64; x64) AppleWebKit/537.36 (KHTML, like Gecko) Chrome/131.0.0.0 Safari/537.36","WebKit","Chrome","131.0.0.0","Windows","10.0","https://app.prolific.com/","en-US,en;q=0.9","674934b4b6bd253249a72d63","67949641171f97c04e14fb34","679c23bc82d2811b834f00a0","","null","<img  src='G_7.jpg' height='90'> <img   src='G_9.jpg' height='90'> <img  src='G_1.jpg' height='90'> <img src='G_5.jpg' height='90'> <img src='G_3.jpg' height='90'>","null","Learning example 0",""
"","","","","","html-button-response","39","541351","0.0-35.0","62","1","2025-01-31 01:18:21","af8d355d56820e421d246a7037deb6e6","67.182.247.161","Mozilla/5.0 (Windows NT 10.0; Win64; x64) AppleWebKit/537.36 (KHTML, like Gecko) Chrome/131.0.0.0 Safari/537.36","WebKit","Chrome","131.0.0.0","Windows","10.0","https://app.prolific.com/","en-US,en;q=0.9","674934b4b6bd253249a72d63","67949641171f97c04e14fb34","679c23bc82d2811b834f00a0","","null","<img  src='G_7.jpg' height='90'> <img   src='G_9.jpg' height='90'> <img id='selected'  src='G_1.jpg' height='90'> <img src='G_5.jpg' height='90'> <img src='G_3.jpg' height='90'>","null","Learning example 0",""
"","","","","","html-button-response","40","541664","0.0-36.0","62","1","2025-01-31 01:18:21","af8d355d56820e421d246a7037deb6e6","67.182.247.161","Mozilla/5.0 (Windows NT 10.0; Win64; x64) AppleWebKit/537.36 (KHTML, like Gecko) Chrome/131.0.0.0 Safari/537.36","WebKit","Chrome","131.0.0.0","Windows","10.0","https://app.prolific.com/","en-US,en;q=0.9","674934b4b6bd253249a72d63","67949641171f97c04e14fb34","679c23bc82d2811b834f00a0","","null","<img  src='G_7.jpg' height='90'> <img   src='G_9.jpg' height='90'> <img id='selected'  src='G_1.jpg' height='90'> <img id='selected' src='G_5.jpg' height='90'> <img src='G_3.jpg' height='90'>","null","Learning example 0",""
"","","","","","html-button-response","41","541970","0.0-37.0","62","1","2025-01-31 01:18:21","af8d355d56820e421d246a7037deb6e6","67.182.247.161","Mozilla/5.0 (Windows NT 10.0; Win64; x64) AppleWebKit/537.36 (KHTML, like Gecko) Chrome/131.0.0.0 Safari/537.36","WebKit","Chrome","131.0.0.0","Windows","10.0","https://app.prolific.com/","en-US,en;q=0.9","674934b4b6bd253249a72d63","67949641171f97c04e14fb34","679c23bc82d2811b834f00a0","","null","<img  src='G_7.jpg' height='90'> <img   src='G_9.jpg' height='90'> <img id='selected'  src='G_1.jpg' height='90'> <img id='selected' src='G_5.jpg' height='90'> <img src='G_3.jpg' height='90'>","null","Learning example 0",""
"","","","","","html-button-response","42","548653","0.0-38.0-0.0-0.0","62","1","2025-01-31 01:18:21","af8d355d56820e421d246a7037deb6e6","67.182.247.161","Mozilla/5.0 (Windows NT 10.0; Win64; x64) AppleWebKit/537.36 (KHTML, like Gecko) Chrome/131.0.0.0 Safari/537.36","WebKit","Chrome","131.0.0.0","Windows","10.0","https://app.prolific.com/","en-US,en;q=0.9","674934b4b6bd253249a72d63","67949641171f97c04e14fb34","679c23bc82d2811b834f00a0","","6679","<img  src='G_7.jpg' height='90'> <img   src='G_9.jpg' height='90'> <img id='selected'  src='G_1.jpg' height='90'> <img id='selected' src='G_5.jpg' height='90'> <img src='G_3.jpg' height='90'>","2","Learning example 0",""
"","","","","","html-button-response","43","550705","0.0-38.1-0.1-0.1","62","1","2025-01-31 01:18:21","af8d355d56820e421d246a7037deb6e6","67.182.247.161","Mozilla/5.0 (Windows NT 10.0; Win64; x64) AppleWebKit/537.36 (KHTML, like Gecko) Chrome/131.0.0.0 Safari/537.36","WebKit","Chrome","131.0.0.0","Windows","10.0","https://app.prolific.com/","en-US,en;q=0.9","674934b4b6bd253249a72d63","67949641171f97c04e14fb34","679c23bc82d2811b834f00a0","","2049","<img  src='G_7.jpg' height='90'> <img   src='G_9.jpg' height='90'> <img id='selected'  src='G_1.jpg' height='90'> <img id='selected' src='G_5.jpg' height='90'> <img src='G_3.jpg' height='90'>","3","Learning example 0",""
"","","","","","html-button-response","44","550916","0.0-39.0","62","1","2025-01-31 01:18:21","af8d355d56820e421d246a7037deb6e6","67.182.247.161","Mozilla/5.0 (Windows NT 10.0; Win64; x64) AppleWebKit/537.36 (KHTML, like Gecko) Chrome/131.0.0.0 Safari/537.36","WebKit","Chrome","131.0.0.0","Windows","10.0","https://app.prolific.com/","en-US,en;q=0.9","674934b4b6bd253249a72d63","67949641171f97c04e14fb34","679c23bc82d2811b834f00a0","","null","<img  src='G_7.jpg' height='90'> <img   src='G_9.jpg' height='90'> <img   src='G_1.jpg' height='90'> <img  src='G_5.jpg' height='90'> <img src='G_3.jpg' height='90'>","null","Learning example 0",""
"","","","","","html-button-response","45","551321","0.0-40.0","62","1","2025-01-31 01:18:21","af8d355d56820e421d246a7037deb6e6","67.182.247.161","Mozilla/5.0 (Windows NT 10.0; Win64; x64) AppleWebKit/537.36 (KHTML, like Gecko) Chrome/131.0.0.0 Safari/537.36","WebKit","Chrome","131.0.0.0","Windows","10.0","https://app.prolific.com/","en-US,en;q=0.9","674934b4b6bd253249a72d63","67949641171f97c04e14fb34","679c23bc82d2811b834f00a0","","null","<img  src='G_7.jpg' height='90'> <img   src='G_9.jpg' height='90'> <img   src='G_1.jpg' height='90'> <img id='selected'  src='G_5.jpg' height='90'> <img src='G_3.jpg' height='90'>","null","Learning example 0",""
"","","","","","html-button-response","46","551628","0.0-41.0","62","1","2025-01-31 01:18:21","af8d355d56820e421d246a7037deb6e6","67.182.247.161","Mozilla/5.0 (Windows NT 10.0; Win64; x64) AppleWebKit/537.36 (KHTML, like Gecko) Chrome/131.0.0.0 Safari/537.36","WebKit","Chrome","131.0.0.0","Windows","10.0","https://app.prolific.com/","en-US,en;q=0.9","674934b4b6bd253249a72d63","67949641171f97c04e14fb34","679c23bc82d2811b834f00a0","","null","<img  src='G_7.jpg' height='90'> <img   src='G_9.jpg' height='90'> <img   src='G_1.jpg' height='90'> <img id='selected'  src='G_5.jpg' height='90'> <img id='selected' src='G_3.jpg' height='90'>","null","Learning example 0",""
"","","","","","html-button-response","47","551944","0.0-42.0","62","1","2025-01-31 01:18:21","af8d355d56820e421d246a7037deb6e6","67.182.247.161","Mozilla/5.0 (Windows NT 10.0; Win64; x64) AppleWebKit/537.36 (KHTML, like Gecko) Chrome/131.0.0.0 Safari/537.36","WebKit","Chrome","131.0.0.0","Windows","10.0","https://app.prolific.com/","en-US,en;q=0.9","674934b4b6bd253249a72d63","67949641171f97c04e14fb34","679c23bc82d2811b834f00a0","","null","<img  src='G_7.jpg' height='90'> <img   src='G_9.jpg' height='90'> <img   src='G_1.jpg' height='90'> <img id='selected'  src='G_5.jpg' height='90'> <img id='selected' src='G_3.jpg' height='90'>","null","Learning example 0",""
"","","","","","html-button-response","48","553590","0.0-43.0-0.0-0.0","62","1","2025-01-31 01:18:21","af8d355d56820e421d246a7037deb6e6","67.182.247.161","Mozilla/5.0 (Windows NT 10.0; Win64; x64) AppleWebKit/537.36 (KHTML, like Gecko) Chrome/131.0.0.0 Safari/537.36","WebKit","Chrome","131.0.0.0","Windows","10.0","https://app.prolific.com/","en-US,en;q=0.9","674934b4b6bd253249a72d63","67949641171f97c04e14fb34","679c23bc82d2811b834f00a0","","1642","<img  src='G_7.jpg' height='90'> <img   src='G_9.jpg' height='90'> <img   src='G_1.jpg' height='90'> <img id='selected'  src='G_5.jpg' height='90'> <img id='selected' src='G_3.jpg' height='90'>","3","Learning example 0",""
"","","","","","html-button-response","49","554556","0.0-43.1-0.1-0.1","62","1","2025-01-31 01:18:21","af8d355d56820e421d246a7037deb6e6","67.182.247.161","Mozilla/5.0 (Windows NT 10.0; Win64; x64) AppleWebKit/537.36 (KHTML, like Gecko) Chrome/131.0.0.0 Safari/537.36","WebKit","Chrome","131.0.0.0","Windows","10.0","https://app.prolific.com/","en-US,en;q=0.9","674934b4b6bd253249a72d63","67949641171f97c04e14fb34","679c23bc82d2811b834f00a0","","961","<img  src='G_7.jpg' height='90'> <img   src='G_9.jpg' height='90'> <img   src='G_1.jpg' height='90'> <img id='selected'  src='G_5.jpg' height='90'> <img id='selected' src='G_3.jpg' height='90'>","4","Learning example 0",""
"","","","","","html-button-response","50","554767","0.0-44.0","62","1","2025-01-31 01:18:21","af8d355d56820e421d246a7037deb6e6","67.182.247.161","Mozilla/5.0 (Windows NT 10.0; Win64; x64) AppleWebKit/537.36 (KHTML, like Gecko) Chrome/131.0.0.0 Safari/537.36","WebKit","Chrome","131.0.0.0","Windows","10.0","https://app.prolific.com/","en-US,en;q=0.9","674934b4b6bd253249a72d63","67949641171f97c04e14fb34","679c23bc82d2811b834f00a0","","null","<img  src='G_7.jpg' height='90'> <img   src='G_9.jpg' height='90'> <img   src='G_1.jpg' height='90'> <img   src='G_5.jpg' height='90'> <img  src='G_3.jpg' height='90'>","null","Learning example 0",""
"","","","","","html-keyboard-response","51","590470","0.0-45.0","62","1","2025-01-31 01:18:21","af8d355d56820e421d246a7037deb6e6","67.182.247.161","Mozilla/5.0 (Windows NT 10.0; Win64; x64) AppleWebKit/537.36 (KHTML, like Gecko) Chrome/131.0.0.0 Safari/537.36","WebKit","Chrome","131.0.0.0","Windows","10.0","https://app.prolific.com/","en-US,en;q=0.9","674934b4b6bd253249a72d63","67949641171f97c04e14fb34","679c23bc82d2811b834f00a0","","35701","[""Final order was 1,2,3,4,5. The initial order was 2,1,3,4,5.<br>It took 1 swaps to sort it correctly with Omgne Sort. <br><br>Press Enter to continue.""]","enter","",""
"","","","","","html-keyboard-response","52","602995","0.0-46.0","62","1","2025-01-31 01:18:21","af8d355d56820e421d246a7037deb6e6","67.182.247.161","Mozilla/5.0 (Windows NT 10.0; Win64; x64) AppleWebKit/537.36 (KHTML, like Gecko) Chrome/131.0.0.0 Safari/537.36","WebKit","Chrome","131.0.0.0","Windows","10.0","https://app.prolific.com/","en-US,en;q=0.9","674934b4b6bd253249a72d63","67949641171f97c04e14fb34","679c23bc82d2811b834f00a0","","12522","[""Example 2<br><br>You will watch Omnge Sort in action. Try to identify any patterns in the comparisons made by this method. <br><br>Press Enter to continue.""]","enter","",""
"","","","","","html-keyboard-response","53","603503","0.0-47.0","62","1","2025-01-31 01:18:21","af8d355d56820e421d246a7037deb6e6","67.182.247.161","Mozilla/5.0 (Windows NT 10.0; Win64; x64) AppleWebKit/537.36 (KHTML, like Gecko) Chrome/131.0.0.0 Safari/537.36","WebKit","Chrome","131.0.0.0","Windows","10.0","https://app.prolific.com/","en-US,en;q=0.9","674934b4b6bd253249a72d63","67949641171f97c04e14fb34","679c23bc82d2811b834f00a0","","null","<img id='selected' src='G_7.jpg' height='90'> <img src='G_3.jpg' height='90'> <img src='G_1.jpg' height='90'> <img src='G_5.jpg' height='90'> <img src='G_4.jpg' height='90'> <img src='G_6.jpg' height='90'> <img src='G_8.jpg' height='90'> <img src='G_2.jpg' height='90'>","null","Animation1",""
"","","","","","html-keyboard-response","54","604019","0.0-48.0","62","1","2025-01-31 01:18:21","af8d355d56820e421d246a7037deb6e6","67.182.247.161","Mozilla/5.0 (Windows NT 10.0; Win64; x64) AppleWebKit/537.36 (KHTML, like Gecko) Chrome/131.0.0.0 Safari/537.36","WebKit","Chrome","131.0.0.0","Windows","10.0","https://app.prolific.com/","en-US,en;q=0.9","674934b4b6bd253249a72d63","67949641171f97c04e14fb34","679c23bc82d2811b834f00a0","","null","<img id='selected' src='G_7.jpg' height='90'> <img id='selected' src='G_3.jpg' height='90'> <img src='G_1.jpg' height='90'> <img src='G_5.jpg' height='90'> <img src='G_4.jpg' height='90'> <img src='G_6.jpg' height='90'> <img src='G_8.jpg' height='90'> <img src='G_2.jpg' height='90'>","null","Animation1",""
"","","","","","html-keyboard-response","55","604528","0.0-49.0","62","1","2025-01-31 01:18:21","af8d355d56820e421d246a7037deb6e6","67.182.247.161","Mozilla/5.0 (Windows NT 10.0; Win64; x64) AppleWebKit/537.36 (KHTML, like Gecko) Chrome/131.0.0.0 Safari/537.36","WebKit","Chrome","131.0.0.0","Windows","10.0","https://app.prolific.com/","en-US,en;q=0.9","674934b4b6bd253249a72d63","67949641171f97c04e14fb34","679c23bc82d2811b834f00a0","","null","<img id='selected' src='G_7.jpg' height='90'> <img id='selected' src='G_3.jpg' height='90'> <img src='G_1.jpg' height='90'> <img src='G_5.jpg' height='90'> <img src='G_4.jpg' height='90'> <img src='G_6.jpg' height='90'> <img src='G_8.jpg' height='90'> <img src='G_2.jpg' height='90'>","null","Animation1",""
"","","","","","html-keyboard-response","56","604843","0.0-50.0","62","1","2025-01-31 01:18:21","af8d355d56820e421d246a7037deb6e6","67.182.247.161","Mozilla/5.0 (Windows NT 10.0; Win64; x64) AppleWebKit/537.36 (KHTML, like Gecko) Chrome/131.0.0.0 Safari/537.36","WebKit","Chrome","131.0.0.0","Windows","10.0","https://app.prolific.com/","en-US,en;q=0.9","674934b4b6bd253249a72d63","67949641171f97c04e14fb34","679c23bc82d2811b834f00a0","","null","<img  src='G_7.jpg' height='90'> <img  src='G_3.jpg' height='90'> <img src='G_1.jpg' height='90'> <img src='G_5.jpg' height='90'> <img src='G_4.jpg' height='90'> <img src='G_6.jpg' height='90'> <img src='G_8.jpg' height='90'> <img src='G_2.jpg' height='90'>","null","Animation1",""
"","","","","","html-keyboard-response","57","605350","0.0-51.0","62","1","2025-01-31 01:18:21","af8d355d56820e421d246a7037deb6e6","67.182.247.161","Mozilla/5.0 (Windows NT 10.0; Win64; x64) AppleWebKit/537.36 (KHTML, like Gecko) Chrome/131.0.0.0 Safari/537.36","WebKit","Chrome","131.0.0.0","Windows","10.0","https://app.prolific.com/","en-US,en;q=0.9","674934b4b6bd253249a72d63","67949641171f97c04e14fb34","679c23bc82d2811b834f00a0","","null","<img  src='G_7.jpg' height='90'> <img id='selected'  src='G_3.jpg' height='90'> <img src='G_1.jpg' height='90'> <img src='G_5.jpg' height='90'> <img src='G_4.jpg' height='90'> <img src='G_6.jpg' height='90'> <img src='G_8.jpg' height='90'> <img src='G_2.jpg' height='90'>","null","Animation1",""
"","","","","","html-keyboard-response","58","605854","0.0-52.0","62","1","2025-01-31 01:18:21","af8d355d56820e421d246a7037deb6e6","67.182.247.161","Mozilla/5.0 (Windows NT 10.0; Win64; x64) AppleWebKit/537.36 (KHTML, like Gecko) Chrome/131.0.0.0 Safari/537.36","WebKit","Chrome","131.0.0.0","Windows","10.0","https://app.prolific.com/","en-US,en;q=0.9","674934b4b6bd253249a72d63","67949641171f97c04e14fb34","679c23bc82d2811b834f00a0","","null","<img  src='G_7.jpg' height='90'> <img id='selected'  src='G_3.jpg' height='90'> <img id='selected' src='G_1.jpg' height='90'> <img src='G_5.jpg' height='90'> <img src='G_4.jpg' height='90'> <img src='G_6.jpg' height='90'> <img src='G_8.jpg' height='90'> <img src='G_2.jpg' height='90'>","null","Animation1",""
"","","","","","html-keyboard-response","59","606373","0.0-53.0","62","1","2025-01-31 01:18:21","af8d355d56820e421d246a7037deb6e6","67.182.247.161","Mozilla/5.0 (Windows NT 10.0; Win64; x64) AppleWebKit/537.36 (KHTML, like Gecko) Chrome/131.0.0.0 Safari/537.36","WebKit","Chrome","131.0.0.0","Windows","10.0","https://app.prolific.com/","en-US,en;q=0.9","674934b4b6bd253249a72d63","67949641171f97c04e14fb34","679c23bc82d2811b834f00a0","","null","<img  src='G_7.jpg' height='90'> <img id='swapped' src='G_1.jpg' height='90'> <img id='swapped'  src='G_3.jpg' height='90'> <img src='G_5.jpg' height='90'> <img src='G_4.jpg' height='90'> <img src='G_6.jpg' height='90'> <img src='G_8.jpg' height='90'> <img src='G_2.jpg' height='90'>","null","Animation1",""
"","","","","","html-keyboard-response","60","606690","0.0-54.0","62","1","2025-01-31 01:18:21","af8d355d56820e421d246a7037deb6e6","67.182.247.161","Mozilla/5.0 (Windows NT 10.0; Win64; x64) AppleWebKit/537.36 (KHTML, like Gecko) Chrome/131.0.0.0 Safari/537.36","WebKit","Chrome","131.0.0.0","Windows","10.0","https://app.prolific.com/","en-US,en;q=0.9","674934b4b6bd253249a72d63","67949641171f97c04e14fb34","679c23bc82d2811b834f00a0","","null","<img  src='G_7.jpg' height='90'> <img  src='G_1.jpg' height='90'> <img   src='G_3.jpg' height='90'> <img src='G_5.jpg' height='90'> <img src='G_4.jpg' height='90'> <img src='G_6.jpg' height='90'> <img src='G_8.jpg' height='90'> <img src='G_2.jpg' height='90'>","null","Animation1",""
"","","","","","html-keyboard-response","61","607197","0.0-55.0","62","1","2025-01-31 01:18:21","af8d355d56820e421d246a7037deb6e6","67.182.247.161","Mozilla/5.0 (Windows NT 10.0; Win64; x64) AppleWebKit/537.36 (KHTML, like Gecko) Chrome/131.0.0.0 Safari/537.36","WebKit","Chrome","131.0.0.0","Windows","10.0","https://app.prolific.com/","en-US,en;q=0.9","674934b4b6bd253249a72d63","67949641171f97c04e14fb34","679c23bc82d2811b834f00a0","","null","<img id='selected'  src='G_7.jpg' height='90'> <img  src='G_1.jpg' height='90'> <img   src='G_3.jpg' height='90'> <img src='G_5.jpg' height='90'> <img src='G_4.jpg' height='90'> <img src='G_6.jpg' height='90'> <img src='G_8.jpg' height='90'> <img src='G_2.jpg' height='90'>","null","Animation1",""
"","","","","","html-keyboard-response","62","607708","0.0-56.0","62","1","2025-01-31 01:18:21","af8d355d56820e421d246a7037deb6e6","67.182.247.161","Mozilla/5.0 (Windows NT 10.0; Win64; x64) AppleWebKit/537.36 (KHTML, like Gecko) Chrome/131.0.0.0 Safari/537.36","WebKit","Chrome","131.0.0.0","Windows","10.0","https://app.prolific.com/","en-US,en;q=0.9","674934b4b6bd253249a72d63","67949641171f97c04e14fb34","679c23bc82d2811b834f00a0","","null","<img id='selected'  src='G_7.jpg' height='90'> <img id='selected'  src='G_1.jpg' height='90'> <img   src='G_3.jpg' height='90'> <img src='G_5.jpg' height='90'> <img src='G_4.jpg' height='90'> <img src='G_6.jpg' height='90'> <img src='G_8.jpg' height='90'> <img src='G_2.jpg' height='90'>","null","Animation1",""
"","","","","","html-keyboard-response","63","608227","0.0-57.0","62","1","2025-01-31 01:18:21","af8d355d56820e421d246a7037deb6e6","67.182.247.161","Mozilla/5.0 (Windows NT 10.0; Win64; x64) AppleWebKit/537.36 (KHTML, like Gecko) Chrome/131.0.0.0 Safari/537.36","WebKit","Chrome","131.0.0.0","Windows","10.0","https://app.prolific.com/","en-US,en;q=0.9","674934b4b6bd253249a72d63","67949641171f97c04e14fb34","679c23bc82d2811b834f00a0","","null","<img id='swapped'  src='G_1.jpg' height='90'> <img id='swapped'  src='G_7.jpg' height='90'> <img   src='G_3.jpg' height='90'> <img src='G_5.jpg' height='90'> <img src='G_4.jpg' height='90'> <img src='G_6.jpg' height='90'> <img src='G_8.jpg' height='90'> <img src='G_2.jpg' height='90'>","null","Animation1",""
"","","","","","html-keyboard-response","64","608541","0.0-58.0","62","1","2025-01-31 01:18:21","af8d355d56820e421d246a7037deb6e6","67.182.247.161","Mozilla/5.0 (Windows NT 10.0; Win64; x64) AppleWebKit/537.36 (KHTML, like Gecko) Chrome/131.0.0.0 Safari/537.36","WebKit","Chrome","131.0.0.0","Windows","10.0","https://app.prolific.com/","en-US,en;q=0.9","674934b4b6bd253249a72d63","67949641171f97c04e14fb34","679c23bc82d2811b834f00a0","","null","<img   src='G_1.jpg' height='90'> <img   src='G_7.jpg' height='90'> <img   src='G_3.jpg' height='90'> <img src='G_5.jpg' height='90'> <img src='G_4.jpg' height='90'> <img src='G_6.jpg' height='90'> <img src='G_8.jpg' height='90'> <img src='G_2.jpg' height='90'>","null","Animation1",""
"","","","","","html-keyboard-response","65","609058","0.0-59.0","62","1","2025-01-31 01:18:21","af8d355d56820e421d246a7037deb6e6","67.182.247.161","Mozilla/5.0 (Windows NT 10.0; Win64; x64) AppleWebKit/537.36 (KHTML, like Gecko) Chrome/131.0.0.0 Safari/537.36","WebKit","Chrome","131.0.0.0","Windows","10.0","https://app.prolific.com/","en-US,en;q=0.9","674934b4b6bd253249a72d63","67949641171f97c04e14fb34","679c23bc82d2811b834f00a0","","null","<img   src='G_1.jpg' height='90'> <img   src='G_7.jpg' height='90'> <img id='selected'   src='G_3.jpg' height='90'> <img src='G_5.jpg' height='90'> <img src='G_4.jpg' height='90'> <img src='G_6.jpg' height='90'> <img src='G_8.jpg' height='90'> <img src='G_2.jpg' height='90'>","null","Animation1",""
"","","","","","html-keyboard-response","66","609576","0.0-60.0","62","1","2025-01-31 01:18:21","af8d355d56820e421d246a7037deb6e6","67.182.247.161","Mozilla/5.0 (Windows NT 10.0; Win64; x64) AppleWebKit/537.36 (KHTML, like Gecko) Chrome/131.0.0.0 Safari/537.36","WebKit","Chrome","131.0.0.0","Windows","10.0","https://app.prolific.com/","en-US,en;q=0.9","674934b4b6bd253249a72d63","67949641171f97c04e14fb34","679c23bc82d2811b834f00a0","","null","<img   src='G_1.jpg' height='90'> <img   src='G_7.jpg' height='90'> <img id='selected'   src='G_3.jpg' height='90'> <img id='selected' src='G_5.jpg' height='90'> <img src='G_4.jpg' height='90'> <img src='G_6.jpg' height='90'> <img src='G_8.jpg' height='90'> <img src='G_2.jpg' height='90'>","null","Animation1",""
"","","","","","html-keyboard-response","67","610080","0.0-61.0","62","1","2025-01-31 01:18:21","af8d355d56820e421d246a7037deb6e6","67.182.247.161","Mozilla/5.0 (Windows NT 10.0; Win64; x64) AppleWebKit/537.36 (KHTML, like Gecko) Chrome/131.0.0.0 Safari/537.36","WebKit","Chrome","131.0.0.0","Windows","10.0","https://app.prolific.com/","en-US,en;q=0.9","674934b4b6bd253249a72d63","67949641171f97c04e14fb34","679c23bc82d2811b834f00a0","","null","<img   src='G_1.jpg' height='90'> <img   src='G_7.jpg' height='90'> <img id='swapped' src='G_5.jpg' height='90'> <img id='swapped'   src='G_3.jpg' height='90'> <img src='G_4.jpg' height='90'> <img src='G_6.jpg' height='90'> <img src='G_8.jpg' height='90'> <img src='G_2.jpg' height='90'>","null","Animation1",""
"","","","","","html-keyboard-response","68","610387","0.0-62.0","62","1","2025-01-31 01:18:21","af8d355d56820e421d246a7037deb6e6","67.182.247.161","Mozilla/5.0 (Windows NT 10.0; Win64; x64) AppleWebKit/537.36 (KHTML, like Gecko) Chrome/131.0.0.0 Safari/537.36","WebKit","Chrome","131.0.0.0","Windows","10.0","https://app.prolific.com/","en-US,en;q=0.9","674934b4b6bd253249a72d63","67949641171f97c04e14fb34","679c23bc82d2811b834f00a0","","null","<img   src='G_1.jpg' height='90'> <img   src='G_7.jpg' height='90'> <img  src='G_5.jpg' height='90'> <img    src='G_3.jpg' height='90'> <img src='G_4.jpg' height='90'> <img src='G_6.jpg' height='90'> <img src='G_8.jpg' height='90'> <img src='G_2.jpg' height='90'>","null","Animation1",""
"","","","","","html-keyboard-response","69","610903","0.0-63.0","62","1","2025-01-31 01:18:21","af8d355d56820e421d246a7037deb6e6","67.182.247.161","Mozilla/5.0 (Windows NT 10.0; Win64; x64) AppleWebKit/537.36 (KHTML, like Gecko) Chrome/131.0.0.0 Safari/537.36","WebKit","Chrome","131.0.0.0","Windows","10.0","https://app.prolific.com/","en-US,en;q=0.9","674934b4b6bd253249a72d63","67949641171f97c04e14fb34","679c23bc82d2811b834f00a0","","null","<img   src='G_1.jpg' height='90'> <img id='selected'   src='G_7.jpg' height='90'> <img  src='G_5.jpg' height='90'> <img    src='G_3.jpg' height='90'> <img src='G_4.jpg' height='90'> <img src='G_6.jpg' height='90'> <img src='G_8.jpg' height='90'> <img src='G_2.jpg' height='90'>","null","Animation1",""
"","","","","","html-keyboard-response","70","611409","0.0-64.0","62","1","2025-01-31 01:18:21","af8d355d56820e421d246a7037deb6e6","67.182.247.161","Mozilla/5.0 (Windows NT 10.0; Win64; x64) AppleWebKit/537.36 (KHTML, like Gecko) Chrome/131.0.0.0 Safari/537.36","WebKit","Chrome","131.0.0.0","Windows","10.0","https://app.prolific.com/","en-US,en;q=0.9","674934b4b6bd253249a72d63","67949641171f97c04e14fb34","679c23bc82d2811b834f00a0","","null","<img   src='G_1.jpg' height='90'> <img id='selected'   src='G_7.jpg' height='90'> <img id='selected'  src='G_5.jpg' height='90'> <img    src='G_3.jpg' height='90'> <img src='G_4.jpg' height='90'> <img src='G_6.jpg' height='90'> <img src='G_8.jpg' height='90'> <img src='G_2.jpg' height='90'>","null","Animation1",""
"","","","","","html-keyboard-response","71","611917","0.0-65.0","62","1","2025-01-31 01:18:21","af8d355d56820e421d246a7037deb6e6","67.182.247.161","Mozilla/5.0 (Windows NT 10.0; Win64; x64) AppleWebKit/537.36 (KHTML, like Gecko) Chrome/131.0.0.0 Safari/537.36","WebKit","Chrome","131.0.0.0","Windows","10.0","https://app.prolific.com/","en-US,en;q=0.9","674934b4b6bd253249a72d63","67949641171f97c04e14fb34","679c23bc82d2811b834f00a0","","null","<img   src='G_1.jpg' height='90'> <img id='swapped'  src='G_5.jpg' height='90'> <img id='swapped'   src='G_7.jpg' height='90'> <img    src='G_3.jpg' height='90'> <img src='G_4.jpg' height='90'> <img src='G_6.jpg' height='90'> <img src='G_8.jpg' height='90'> <img src='G_2.jpg' height='90'>","null","Animation1",""
"","","","","","html-keyboard-response","72","612231","0.0-66.0","62","1","2025-01-31 01:18:21","af8d355d56820e421d246a7037deb6e6","67.182.247.161","Mozilla/5.0 (Windows NT 10.0; Win64; x64) AppleWebKit/537.36 (KHTML, like Gecko) Chrome/131.0.0.0 Safari/537.36","WebKit","Chrome","131.0.0.0","Windows","10.0","https://app.prolific.com/","en-US,en;q=0.9","674934b4b6bd253249a72d63","67949641171f97c04e14fb34","679c23bc82d2811b834f00a0","","null","<img   src='G_1.jpg' height='90'> <img   src='G_5.jpg' height='90'> <img    src='G_7.jpg' height='90'> <img    src='G_3.jpg' height='90'> <img src='G_4.jpg' height='90'> <img src='G_6.jpg' height='90'> <img src='G_8.jpg' height='90'> <img src='G_2.jpg' height='90'>","null","Animation1",""
"","","","","","html-keyboard-response","73","612737","0.0-67.0","62","1","2025-01-31 01:18:21","af8d355d56820e421d246a7037deb6e6","67.182.247.161","Mozilla/5.0 (Windows NT 10.0; Win64; x64) AppleWebKit/537.36 (KHTML, like Gecko) Chrome/131.0.0.0 Safari/537.36","WebKit","Chrome","131.0.0.0","Windows","10.0","https://app.prolific.com/","en-US,en;q=0.9","674934b4b6bd253249a72d63","67949641171f97c04e14fb34","679c23bc82d2811b834f00a0","","null","<img id='selected'   src='G_1.jpg' height='90'> <img   src='G_5.jpg' height='90'> <img    src='G_7.jpg' height='90'> <img    src='G_3.jpg' height='90'> <img src='G_4.jpg' height='90'> <img src='G_6.jpg' height='90'> <img src='G_8.jpg' height='90'> <img src='G_2.jpg' height='90'>","null","Animation1",""
"","","","","","html-keyboard-response","74","613254","0.0-68.0","62","1","2025-01-31 01:18:21","af8d355d56820e421d246a7037deb6e6","67.182.247.161","Mozilla/5.0 (Windows NT 10.0; Win64; x64) AppleWebKit/537.36 (KHTML, like Gecko) Chrome/131.0.0.0 Safari/537.36","WebKit","Chrome","131.0.0.0","Windows","10.0","https://app.prolific.com/","en-US,en;q=0.9","674934b4b6bd253249a72d63","67949641171f97c04e14fb34","679c23bc82d2811b834f00a0","","null","<img id='selected'   src='G_1.jpg' height='90'> <img id='selected'   src='G_5.jpg' height='90'> <img    src='G_7.jpg' height='90'> <img    src='G_3.jpg' height='90'> <img src='G_4.jpg' height='90'> <img src='G_6.jpg' height='90'> <img src='G_8.jpg' height='90'> <img src='G_2.jpg' height='90'>","null","Animation1",""
"","","","","","html-keyboard-response","75","613760","0.0-69.0","62","1","2025-01-31 01:18:21","af8d355d56820e421d246a7037deb6e6","67.182.247.161","Mozilla/5.0 (Windows NT 10.0; Win64; x64) AppleWebKit/537.36 (KHTML, like Gecko) Chrome/131.0.0.0 Safari/537.36","WebKit","Chrome","131.0.0.0","Windows","10.0","https://app.prolific.com/","en-US,en;q=0.9","674934b4b6bd253249a72d63","67949641171f97c04e14fb34","679c23bc82d2811b834f00a0","","null","<img id='swapped'   src='G_5.jpg' height='90'> <img id='swapped'   src='G_1.jpg' height='90'> <img    src='G_7.jpg' height='90'> <img    src='G_3.jpg' height='90'> <img src='G_4.jpg' height='90'> <img src='G_6.jpg' height='90'> <img src='G_8.jpg' height='90'> <img src='G_2.jpg' height='90'>","null","Animation1",""
"","","","","","html-keyboard-response","76","614074","0.0-70.0","62","1","2025-01-31 01:18:21","af8d355d56820e421d246a7037deb6e6","67.182.247.161","Mozilla/5.0 (Windows NT 10.0; Win64; x64) AppleWebKit/537.36 (KHTML, like Gecko) Chrome/131.0.0.0 Safari/537.36","WebKit","Chrome","131.0.0.0","Windows","10.0","https://app.prolific.com/","en-US,en;q=0.9","674934b4b6bd253249a72d63","67949641171f97c04e14fb34","679c23bc82d2811b834f00a0","","null","<img    src='G_5.jpg' height='90'> <img    src='G_1.jpg' height='90'> <img    src='G_7.jpg' height='90'> <img    src='G_3.jpg' height='90'> <img src='G_4.jpg' height='90'> <img src='G_6.jpg' height='90'> <img src='G_8.jpg' height='90'> <img src='G_2.jpg' height='90'>","null","Animation1",""
"","","","","","html-keyboard-response","77","614580","0.0-71.0","62","1","2025-01-31 01:18:21","af8d355d56820e421d246a7037deb6e6","67.182.247.161","Mozilla/5.0 (Windows NT 10.0; Win64; x64) AppleWebKit/537.36 (KHTML, like Gecko) Chrome/131.0.0.0 Safari/537.36","WebKit","Chrome","131.0.0.0","Windows","10.0","https://app.prolific.com/","en-US,en;q=0.9","674934b4b6bd253249a72d63","67949641171f97c04e14fb34","679c23bc82d2811b834f00a0","","null","<img    src='G_5.jpg' height='90'> <img    src='G_1.jpg' height='90'> <img    src='G_7.jpg' height='90'> <img id='selected'    src='G_3.jpg' height='90'> <img src='G_4.jpg' height='90'> <img src='G_6.jpg' height='90'> <img src='G_8.jpg' height='90'> <img src='G_2.jpg' height='90'>","null","Animation1",""
"","","","","","html-keyboard-response","78","615097","0.0-72.0","62","1","2025-01-31 01:18:21","af8d355d56820e421d246a7037deb6e6","67.182.247.161","Mozilla/5.0 (Windows NT 10.0; Win64; x64) AppleWebKit/537.36 (KHTML, like Gecko) Chrome/131.0.0.0 Safari/537.36","WebKit","Chrome","131.0.0.0","Windows","10.0","https://app.prolific.com/","en-US,en;q=0.9","674934b4b6bd253249a72d63","67949641171f97c04e14fb34","679c23bc82d2811b834f00a0","","null","<img    src='G_5.jpg' height='90'> <img    src='G_1.jpg' height='90'> <img    src='G_7.jpg' height='90'> <img id='selected'    src='G_3.jpg' height='90'> <img id='selected' src='G_4.jpg' height='90'> <img src='G_6.jpg' height='90'> <img src='G_8.jpg' height='90'> <img src='G_2.jpg' height='90'>","null","Animation1",""
"","","","","","html-keyboard-response","79","615612","0.0-73.0","62","1","2025-01-31 01:18:21","af8d355d56820e421d246a7037deb6e6","67.182.247.161","Mozilla/5.0 (Windows NT 10.0; Win64; x64) AppleWebKit/537.36 (KHTML, like Gecko) Chrome/131.0.0.0 Safari/537.36","WebKit","Chrome","131.0.0.0","Windows","10.0","https://app.prolific.com/","en-US,en;q=0.9","674934b4b6bd253249a72d63","67949641171f97c04e14fb34","679c23bc82d2811b834f00a0","","null","<img    src='G_5.jpg' height='90'> <img    src='G_1.jpg' height='90'> <img    src='G_7.jpg' height='90'> <img id='swapped' src='G_4.jpg' height='90'> <img id='swapped'    src='G_3.jpg' height='90'> <img src='G_6.jpg' height='90'> <img src='G_8.jpg' height='90'> <img src='G_2.jpg' height='90'>","null","Animation1",""
"","","","","","html-keyboard-response","80","615927","0.0-74.0","62","1","2025-01-31 01:18:21","af8d355d56820e421d246a7037deb6e6","67.182.247.161","Mozilla/5.0 (Windows NT 10.0; Win64; x64) AppleWebKit/537.36 (KHTML, like Gecko) Chrome/131.0.0.0 Safari/537.36","WebKit","Chrome","131.0.0.0","Windows","10.0","https://app.prolific.com/","en-US,en;q=0.9","674934b4b6bd253249a72d63","67949641171f97c04e14fb34","679c23bc82d2811b834f00a0","","null","<img    src='G_5.jpg' height='90'> <img    src='G_1.jpg' height='90'> <img    src='G_7.jpg' height='90'> <img  src='G_4.jpg' height='90'> <img     src='G_3.jpg' height='90'> <img src='G_6.jpg' height='90'> <img src='G_8.jpg' height='90'> <img src='G_2.jpg' height='90'>","null","Animation1",""
"","","","","","html-keyboard-response","81","616431","0.0-75.0","62","1","2025-01-31 01:18:21","af8d355d56820e421d246a7037deb6e6","67.182.247.161","Mozilla/5.0 (Windows NT 10.0; Win64; x64) AppleWebKit/537.36 (KHTML, like Gecko) Chrome/131.0.0.0 Safari/537.36","WebKit","Chrome","131.0.0.0","Windows","10.0","https://app.prolific.com/","en-US,en;q=0.9","674934b4b6bd253249a72d63","67949641171f97c04e14fb34","679c23bc82d2811b834f00a0","","null","<img    src='G_5.jpg' height='90'> <img    src='G_1.jpg' height='90'> <img id='selected'    src='G_7.jpg' height='90'> <img  src='G_4.jpg' height='90'> <img     src='G_3.jpg' height='90'> <img src='G_6.jpg' height='90'> <img src='G_8.jpg' height='90'> <img src='G_2.jpg' height='90'>","null","Animation1",""
"","","","","","html-keyboard-response","82","616942","0.0-76.0","62","1","2025-01-31 01:18:21","af8d355d56820e421d246a7037deb6e6","67.182.247.161","Mozilla/5.0 (Windows NT 10.0; Win64; x64) AppleWebKit/537.36 (KHTML, like Gecko) Chrome/131.0.0.0 Safari/537.36","WebKit","Chrome","131.0.0.0","Windows","10.0","https://app.prolific.com/","en-US,en;q=0.9","674934b4b6bd253249a72d63","67949641171f97c04e14fb34","679c23bc82d2811b834f00a0","","null","<img    src='G_5.jpg' height='90'> <img    src='G_1.jpg' height='90'> <img id='selected'    src='G_7.jpg' height='90'> <img id='selected'  src='G_4.jpg' height='90'> <img     src='G_3.jpg' height='90'> <img src='G_6.jpg' height='90'> <img src='G_8.jpg' height='90'> <img src='G_2.jpg' height='90'>","null","Animation1",""
"","","","","","html-keyboard-response","83","617460","0.0-77.0","62","1","2025-01-31 01:18:21","af8d355d56820e421d246a7037deb6e6","67.182.247.161","Mozilla/5.0 (Windows NT 10.0; Win64; x64) AppleWebKit/537.36 (KHTML, like Gecko) Chrome/131.0.0.0 Safari/537.36","WebKit","Chrome","131.0.0.0","Windows","10.0","https://app.prolific.com/","en-US,en;q=0.9","674934b4b6bd253249a72d63","67949641171f97c04e14fb34","679c23bc82d2811b834f00a0","","null","<img    src='G_5.jpg' height='90'> <img    src='G_1.jpg' height='90'> <img id='swapped'  src='G_4.jpg' height='90'> <img id='swapped'    src='G_7.jpg' height='90'> <img     src='G_3.jpg' height='90'> <img src='G_6.jpg' height='90'> <img src='G_8.jpg' height='90'> <img src='G_2.jpg' height='90'>","null","Animation1",""
"","","","","","html-keyboard-response","84","617776","0.0-78.0","62","1","2025-01-31 01:18:21","af8d355d56820e421d246a7037deb6e6","67.182.247.161","Mozilla/5.0 (Windows NT 10.0; Win64; x64) AppleWebKit/537.36 (KHTML, like Gecko) Chrome/131.0.0.0 Safari/537.36","WebKit","Chrome","131.0.0.0","Windows","10.0","https://app.prolific.com/","en-US,en;q=0.9","674934b4b6bd253249a72d63","67949641171f97c04e14fb34","679c23bc82d2811b834f00a0","","null","<img    src='G_5.jpg' height='90'> <img    src='G_1.jpg' height='90'> <img   src='G_4.jpg' height='90'> <img     src='G_7.jpg' height='90'> <img     src='G_3.jpg' height='90'> <img src='G_6.jpg' height='90'> <img src='G_8.jpg' height='90'> <img src='G_2.jpg' height='90'>","null","Animation1",""
"","","","","","html-keyboard-response","85","618286","0.0-79.0","62","1","2025-01-31 01:18:21","af8d355d56820e421d246a7037deb6e6","67.182.247.161","Mozilla/5.0 (Windows NT 10.0; Win64; x64) AppleWebKit/537.36 (KHTML, like Gecko) Chrome/131.0.0.0 Safari/537.36","WebKit","Chrome","131.0.0.0","Windows","10.0","https://app.prolific.com/","en-US,en;q=0.9","674934b4b6bd253249a72d63","67949641171f97c04e14fb34","679c23bc82d2811b834f00a0","","null","<img    src='G_5.jpg' height='90'> <img id='selected'    src='G_1.jpg' height='90'> <img   src='G_4.jpg' height='90'> <img     src='G_7.jpg' height='90'> <img     src='G_3.jpg' height='90'> <img src='G_6.jpg' height='90'> <img src='G_8.jpg' height='90'> <img src='G_2.jpg' height='90'>","null","Animation1",""
"","","","","","html-keyboard-response","86","618796","0.0-80.0","62","1","2025-01-31 01:18:21","af8d355d56820e421d246a7037deb6e6","67.182.247.161","Mozilla/5.0 (Windows NT 10.0; Win64; x64) AppleWebKit/537.36 (KHTML, like Gecko) Chrome/131.0.0.0 Safari/537.36","WebKit","Chrome","131.0.0.0","Windows","10.0","https://app.prolific.com/","en-US,en;q=0.9","674934b4b6bd253249a72d63","67949641171f97c04e14fb34","679c23bc82d2811b834f00a0","","null","<img    src='G_5.jpg' height='90'> <img id='selected'    src='G_1.jpg' height='90'> <img id='selected'   src='G_4.jpg' height='90'> <img     src='G_7.jpg' height='90'> <img     src='G_3.jpg' height='90'> <img src='G_6.jpg' height='90'> <img src='G_8.jpg' height='90'> <img src='G_2.jpg' height='90'>","null","Animation1",""
"","","","","","html-keyboard-response","87","619313","0.0-81.0","62","1","2025-01-31 01:18:21","af8d355d56820e421d246a7037deb6e6","67.182.247.161","Mozilla/5.0 (Windows NT 10.0; Win64; x64) AppleWebKit/537.36 (KHTML, like Gecko) Chrome/131.0.0.0 Safari/537.36","WebKit","Chrome","131.0.0.0","Windows","10.0","https://app.prolific.com/","en-US,en;q=0.9","674934b4b6bd253249a72d63","67949641171f97c04e14fb34","679c23bc82d2811b834f00a0","","null","<img    src='G_5.jpg' height='90'> <img id='swapped'   src='G_4.jpg' height='90'> <img id='swapped'    src='G_1.jpg' height='90'> <img     src='G_7.jpg' height='90'> <img     src='G_3.jpg' height='90'> <img src='G_6.jpg' height='90'> <img src='G_8.jpg' height='90'> <img src='G_2.jpg' height='90'>","null","Animation1",""
"","","","","","html-keyboard-response","88","619620","0.0-82.0","62","1","2025-01-31 01:18:21","af8d355d56820e421d246a7037deb6e6","67.182.247.161","Mozilla/5.0 (Windows NT 10.0; Win64; x64) AppleWebKit/537.36 (KHTML, like Gecko) Chrome/131.0.0.0 Safari/537.36","WebKit","Chrome","131.0.0.0","Windows","10.0","https://app.prolific.com/","en-US,en;q=0.9","674934b4b6bd253249a72d63","67949641171f97c04e14fb34","679c23bc82d2811b834f00a0","","null","<img    src='G_5.jpg' height='90'> <img    src='G_4.jpg' height='90'> <img     src='G_1.jpg' height='90'> <img     src='G_7.jpg' height='90'> <img     src='G_3.jpg' height='90'> <img src='G_6.jpg' height='90'> <img src='G_8.jpg' height='90'> <img src='G_2.jpg' height='90'>","null","Animation1",""
"","","","","","html-keyboard-response","89","620130","0.0-83.0","62","1","2025-01-31 01:18:21","af8d355d56820e421d246a7037deb6e6","67.182.247.161","Mozilla/5.0 (Windows NT 10.0; Win64; x64) AppleWebKit/537.36 (KHTML, like Gecko) Chrome/131.0.0.0 Safari/537.36","WebKit","Chrome","131.0.0.0","Windows","10.0","https://app.prolific.com/","en-US,en;q=0.9","674934b4b6bd253249a72d63","67949641171f97c04e14fb34","679c23bc82d2811b834f00a0","","null","<img id='selected'    src='G_5.jpg' height='90'> <img    src='G_4.jpg' height='90'> <img     src='G_1.jpg' height='90'> <img     src='G_7.jpg' height='90'> <img     src='G_3.jpg' height='90'> <img src='G_6.jpg' height='90'> <img src='G_8.jpg' height='90'> <img src='G_2.jpg' height='90'>","null","Animation1",""
"","","","","","html-keyboard-response","90","620642","0.0-84.0","62","1","2025-01-31 01:18:21","af8d355d56820e421d246a7037deb6e6","67.182.247.161","Mozilla/5.0 (Windows NT 10.0; Win64; x64) AppleWebKit/537.36 (KHTML, like Gecko) Chrome/131.0.0.0 Safari/537.36","WebKit","Chrome","131.0.0.0","Windows","10.0","https://app.prolific.com/","en-US,en;q=0.9","674934b4b6bd253249a72d63","67949641171f97c04e14fb34","679c23bc82d2811b834f00a0","","null","<img id='selected'    src='G_5.jpg' height='90'> <img id='selected'    src='G_4.jpg' height='90'> <img     src='G_1.jpg' height='90'> <img     src='G_7.jpg' height='90'> <img     src='G_3.jpg' height='90'> <img src='G_6.jpg' height='90'> <img src='G_8.jpg' height='90'> <img src='G_2.jpg' height='90'>","null","Animation1",""
"","","","","","html-keyboard-response","91","621258","0.0-85.0","62","1","2025-01-31 01:18:21","af8d355d56820e421d246a7037deb6e6","67.182.247.161","Mozilla/5.0 (Windows NT 10.0; Win64; x64) AppleWebKit/537.36 (KHTML, like Gecko) Chrome/131.0.0.0 Safari/537.36","WebKit","Chrome","131.0.0.0","Windows","10.0","https://app.prolific.com/","en-US,en;q=0.9","674934b4b6bd253249a72d63","67949641171f97c04e14fb34","679c23bc82d2811b834f00a0","","null","<img id='selected'    src='G_5.jpg' height='90'> <img id='selected'    src='G_4.jpg' height='90'> <img     src='G_1.jpg' height='90'> <img     src='G_7.jpg' height='90'> <img     src='G_3.jpg' height='90'> <img src='G_6.jpg' height='90'> <img src='G_8.jpg' height='90'> <img src='G_2.jpg' height='90'>","null","Animation1",""
"","","","","","html-keyboard-response","92","622271","0.0-86.0","62","1","2025-01-31 01:18:21","af8d355d56820e421d246a7037deb6e6","67.182.247.161","Mozilla/5.0 (Windows NT 10.0; Win64; x64) AppleWebKit/537.36 (KHTML, like Gecko) Chrome/131.0.0.0 Safari/537.36","WebKit","Chrome","131.0.0.0","Windows","10.0","https://app.prolific.com/","en-US,en;q=0.9","674934b4b6bd253249a72d63","67949641171f97c04e14fb34","679c23bc82d2811b834f00a0","","null","<img     src='G_5.jpg' height='90'> <img     src='G_4.jpg' height='90'> <img     src='G_1.jpg' height='90'> <img     src='G_7.jpg' height='90'> <img     src='G_3.jpg' height='90'> <img src='G_6.jpg' height='90'> <img src='G_8.jpg' height='90'> <img src='G_2.jpg' height='90'>","null","Animation1",""
"","","","","","html-keyboard-response","93","623258","0.0-87.0","62","1","2025-01-31 01:18:21","af8d355d56820e421d246a7037deb6e6","67.182.247.161","Mozilla/5.0 (Windows NT 10.0; Win64; x64) AppleWebKit/537.36 (KHTML, like Gecko) Chrome/131.0.0.0 Safari/537.36","WebKit","Chrome","131.0.0.0","Windows","10.0","https://app.prolific.com/","en-US,en;q=0.9","674934b4b6bd253249a72d63","67949641171f97c04e14fb34","679c23bc82d2811b834f00a0","","null","<img     src='G_5.jpg' height='90'> <img     src='G_4.jpg' height='90'> <img     src='G_1.jpg' height='90'> <img     src='G_7.jpg' height='90'> <img id='selected'     src='G_3.jpg' height='90'> <img src='G_6.jpg' height='90'> <img src='G_8.jpg' height='90'> <img src='G_2.jpg' height='90'>","null","Animation1",""
"","","","","","html-keyboard-response","94","624254","0.0-88.0","62","1","2025-01-31 01:18:21","af8d355d56820e421d246a7037deb6e6","67.182.247.161","Mozilla/5.0 (Windows NT 10.0; Win64; x64) AppleWebKit/537.36 (KHTML, like Gecko) Chrome/131.0.0.0 Safari/537.36","WebKit","Chrome","131.0.0.0","Windows","10.0","https://app.prolific.com/","en-US,en;q=0.9","674934b4b6bd253249a72d63","67949641171f97c04e14fb34","679c23bc82d2811b834f00a0","","null","<img     src='G_5.jpg' height='90'> <img     src='G_4.jpg' height='90'> <img     src='G_1.jpg' height='90'> <img     src='G_7.jpg' height='90'> <img id='selected'     src='G_3.jpg' height='90'> <img id='selected' src='G_6.jpg' height='90'> <img src='G_8.jpg' height='90'> <img src='G_2.jpg' height='90'>","null","Animation1",""
"","","","","","html-keyboard-response","95","625254","0.0-89.0","62","1","2025-01-31 01:18:21","af8d355d56820e421d246a7037deb6e6","67.182.247.161","Mozilla/5.0 (Windows NT 10.0; Win64; x64) AppleWebKit/537.36 (KHTML, like Gecko) Chrome/131.0.0.0 Safari/537.36","WebKit","Chrome","131.0.0.0","Windows","10.0","https://app.prolific.com/","en-US,en;q=0.9","674934b4b6bd253249a72d63","67949641171f97c04e14fb34","679c23bc82d2811b834f00a0","","null","<img     src='G_5.jpg' height='90'> <img     src='G_4.jpg' height='90'> <img     src='G_1.jpg' height='90'> <img     src='G_7.jpg' height='90'> <img id='swapped' src='G_6.jpg' height='90'> <img id='swapped'     src='G_3.jpg' height='90'> <img src='G_8.jpg' height='90'> <img src='G_2.jpg' height='90'>","null","Animation1",""
"","","","","","html-keyboard-response","96","626251","0.0-90.0","62","1","2025-01-31 01:18:21","af8d355d56820e421d246a7037deb6e6","67.182.247.161","Mozilla/5.0 (Windows NT 10.0; Win64; x64) AppleWebKit/537.36 (KHTML, like Gecko) Chrome/131.0.0.0 Safari/537.36","WebKit","Chrome","131.0.0.0","Windows","10.0","https://app.prolific.com/","en-US,en;q=0.9","674934b4b6bd253249a72d63","67949641171f97c04e14fb34","679c23bc82d2811b834f00a0","","null","<img     src='G_5.jpg' height='90'> <img     src='G_4.jpg' height='90'> <img     src='G_1.jpg' height='90'> <img     src='G_7.jpg' height='90'> <img  src='G_6.jpg' height='90'> <img      src='G_3.jpg' height='90'> <img src='G_8.jpg' height='90'> <img src='G_2.jpg' height='90'>","null","Animation1",""
"","","","","","html-keyboard-response","97","627800","0.0-91.0","62","1","2025-01-31 01:18:21","af8d355d56820e421d246a7037deb6e6","67.182.247.161","Mozilla/5.0 (Windows NT 10.0; Win64; x64) AppleWebKit/537.36 (KHTML, like Gecko) Chrome/131.0.0.0 Safari/537.36","WebKit","Chrome","131.0.0.0","Windows","10.0","https://app.prolific.com/","en-US,en;q=0.9","674934b4b6bd253249a72d63","67949641171f97c04e14fb34","679c23bc82d2811b834f00a0","","null","<img     src='G_5.jpg' height='90'> <img     src='G_4.jpg' height='90'> <img     src='G_1.jpg' height='90'> <img id='selected'     src='G_7.jpg' height='90'> <img  src='G_6.jpg' height='90'> <img      src='G_3.jpg' height='90'> <img src='G_8.jpg' height='90'> <img src='G_2.jpg' height='90'>","null","Animation1",""
"","","","","","html-keyboard-response","98","628606","0.0-92.0","62","1","2025-01-31 01:18:21","af8d355d56820e421d246a7037deb6e6","67.182.247.161","Mozilla/5.0 (Windows NT 10.0; Win64; x64) AppleWebKit/537.36 (KHTML, like Gecko) Chrome/131.0.0.0 Safari/537.36","WebKit","Chrome","131.0.0.0","Windows","10.0","https://app.prolific.com/","en-US,en;q=0.9","674934b4b6bd253249a72d63","67949641171f97c04e14fb34","679c23bc82d2811b834f00a0","","null","<img     src='G_5.jpg' height='90'> <img     src='G_4.jpg' height='90'> <img     src='G_1.jpg' height='90'> <img id='selected'     src='G_7.jpg' height='90'> <img id='selected'  src='G_6.jpg' height='90'> <img      src='G_3.jpg' height='90'> <img src='G_8.jpg' height='90'> <img src='G_2.jpg' height='90'>","null","Animation1",""
"","","","","","html-keyboard-response","99","629120","0.0-93.0","62","1","2025-01-31 01:18:21","af8d355d56820e421d246a7037deb6e6","67.182.247.161","Mozilla/5.0 (Windows NT 10.0; Win64; x64) AppleWebKit/537.36 (KHTML, like Gecko) Chrome/131.0.0.0 Safari/537.36","WebKit","Chrome","131.0.0.0","Windows","10.0","https://app.prolific.com/","en-US,en;q=0.9","674934b4b6bd253249a72d63","67949641171f97c04e14fb34","679c23bc82d2811b834f00a0","","null","<img     src='G_5.jpg' height='90'> <img     src='G_4.jpg' height='90'> <img     src='G_1.jpg' height='90'> <img id='selected'     src='G_7.jpg' height='90'> <img id='selected'  src='G_6.jpg' height='90'> <img      src='G_3.jpg' height='90'> <img src='G_8.jpg' height='90'> <img src='G_2.jpg' height='90'>","null","Animation1",""
"","","","","","html-keyboard-response","100","629431","0.0-94.0","62","1","2025-01-31 01:18:21","af8d355d56820e421d246a7037deb6e6","67.182.247.161","Mozilla/5.0 (Windows NT 10.0; Win64; x64) AppleWebKit/537.36 (KHTML, like Gecko) Chrome/131.0.0.0 Safari/537.36","WebKit","Chrome","131.0.0.0","Windows","10.0","https://app.prolific.com/","en-US,en;q=0.9","674934b4b6bd253249a72d63","67949641171f97c04e14fb34","679c23bc82d2811b834f00a0","","null","<img     src='G_5.jpg' height='90'> <img     src='G_4.jpg' height='90'> <img     src='G_1.jpg' height='90'> <img      src='G_7.jpg' height='90'> <img   src='G_6.jpg' height='90'> <img      src='G_3.jpg' height='90'> <img src='G_8.jpg' height='90'> <img src='G_2.jpg' height='90'>","null","Animation1",""
"","","","","","html-keyboard-response","101","629935","0.0-95.0","62","1","2025-01-31 01:18:21","af8d355d56820e421d246a7037deb6e6","67.182.247.161","Mozilla/5.0 (Windows NT 10.0; Win64; x64) AppleWebKit/537.36 (KHTML, like Gecko) Chrome/131.0.0.0 Safari/537.36","WebKit","Chrome","131.0.0.0","Windows","10.0","https://app.prolific.com/","en-US,en;q=0.9","674934b4b6bd253249a72d63","67949641171f97c04e14fb34","679c23bc82d2811b834f00a0","","null","<img     src='G_5.jpg' height='90'> <img     src='G_4.jpg' height='90'> <img     src='G_1.jpg' height='90'> <img      src='G_7.jpg' height='90'> <img   src='G_6.jpg' height='90'> <img id='selected'      src='G_3.jpg' height='90'> <img src='G_8.jpg' height='90'> <img src='G_2.jpg' height='90'>","null","Animation1",""
"","","","","","html-keyboard-response","102","630440","0.0-96.0","62","1","2025-01-31 01:18:21","af8d355d56820e421d246a7037deb6e6","67.182.247.161","Mozilla/5.0 (Windows NT 10.0; Win64; x64) AppleWebKit/537.36 (KHTML, like Gecko) Chrome/131.0.0.0 Safari/537.36","WebKit","Chrome","131.0.0.0","Windows","10.0","https://app.prolific.com/","en-US,en;q=0.9","674934b4b6bd253249a72d63","67949641171f97c04e14fb34","679c23bc82d2811b834f00a0","","null","<img     src='G_5.jpg' height='90'> <img     src='G_4.jpg' height='90'> <img     src='G_1.jpg' height='90'> <img      src='G_7.jpg' height='90'> <img   src='G_6.jpg' height='90'> <img id='selected'      src='G_3.jpg' height='90'> <img id='selected' src='G_8.jpg' height='90'> <img src='G_2.jpg' height='90'>","null","Animation1",""
"","","","","","html-keyboard-response","103","630950","0.0-97.0","62","1","2025-01-31 01:18:21","af8d355d56820e421d246a7037deb6e6","67.182.247.161","Mozilla/5.0 (Windows NT 10.0; Win64; x64) AppleWebKit/537.36 (KHTML, like Gecko) Chrome/131.0.0.0 Safari/537.36","WebKit","Chrome","131.0.0.0","Windows","10.0","https://app.prolific.com/","en-US,en;q=0.9","674934b4b6bd253249a72d63","67949641171f97c04e14fb34","679c23bc82d2811b834f00a0","","null","<img     src='G_5.jpg' height='90'> <img     src='G_4.jpg' height='90'> <img     src='G_1.jpg' height='90'> <img      src='G_7.jpg' height='90'> <img   src='G_6.jpg' height='90'> <img id='selected'      src='G_3.jpg' height='90'> <img id='selected' src='G_8.jpg' height='90'> <img src='G_2.jpg' height='90'>","null","Animation1",""
"","","","","","html-keyboard-response","104","631258","0.0-98.0","62","1","2025-01-31 01:18:21","af8d355d56820e421d246a7037deb6e6","67.182.247.161","Mozilla/5.0 (Windows NT 10.0; Win64; x64) AppleWebKit/537.36 (KHTML, like Gecko) Chrome/131.0.0.0 Safari/537.36","WebKit","Chrome","131.0.0.0","Windows","10.0","https://app.prolific.com/","en-US,en;q=0.9","674934b4b6bd253249a72d63","67949641171f97c04e14fb34","679c23bc82d2811b834f00a0","","null","<img     src='G_5.jpg' height='90'> <img     src='G_4.jpg' height='90'> <img     src='G_1.jpg' height='90'> <img      src='G_7.jpg' height='90'> <img   src='G_6.jpg' height='90'> <img       src='G_3.jpg' height='90'> <img  src='G_8.jpg' height='90'> <img src='G_2.jpg' height='90'>","null","Animation1",""
"","","","","","html-keyboard-response","105","631778","0.0-99.0","62","1","2025-01-31 01:18:21","af8d355d56820e421d246a7037deb6e6","67.182.247.161","Mozilla/5.0 (Windows NT 10.0; Win64; x64) AppleWebKit/537.36 (KHTML, like Gecko) Chrome/131.0.0.0 Safari/537.36","WebKit","Chrome","131.0.0.0","Windows","10.0","https://app.prolific.com/","en-US,en;q=0.9","674934b4b6bd253249a72d63","67949641171f97c04e14fb34","679c23bc82d2811b834f00a0","","null","<img     src='G_5.jpg' height='90'> <img     src='G_4.jpg' height='90'> <img     src='G_1.jpg' height='90'> <img      src='G_7.jpg' height='90'> <img   src='G_6.jpg' height='90'> <img       src='G_3.jpg' height='90'> <img id='selected'  src='G_8.jpg' height='90'> <img src='G_2.jpg' height='90'>","null","Animation1",""
"","","","","","html-keyboard-response","106","632288","0.0-100.0","62","1","2025-01-31 01:18:21","af8d355d56820e421d246a7037deb6e6","67.182.247.161","Mozilla/5.0 (Windows NT 10.0; Win64; x64) AppleWebKit/537.36 (KHTML, like Gecko) Chrome/131.0.0.0 Safari/537.36","WebKit","Chrome","131.0.0.0","Windows","10.0","https://app.prolific.com/","en-US,en;q=0.9","674934b4b6bd253249a72d63","67949641171f97c04e14fb34","679c23bc82d2811b834f00a0","","null","<img     src='G_5.jpg' height='90'> <img     src='G_4.jpg' height='90'> <img     src='G_1.jpg' height='90'> <img      src='G_7.jpg' height='90'> <img   src='G_6.jpg' height='90'> <img       src='G_3.jpg' height='90'> <img id='selected'  src='G_8.jpg' height='90'> <img id='selected' src='G_2.jpg' height='90'>","null","Animation1",""
"","","","","","html-keyboard-response","107","632800","0.0-101.0","62","1","2025-01-31 01:18:21","af8d355d56820e421d246a7037deb6e6","67.182.247.161","Mozilla/5.0 (Windows NT 10.0; Win64; x64) AppleWebKit/537.36 (KHTML, like Gecko) Chrome/131.0.0.0 Safari/537.36","WebKit","Chrome","131.0.0.0","Windows","10.0","https://app.prolific.com/","en-US,en;q=0.9","674934b4b6bd253249a72d63","67949641171f97c04e14fb34","679c23bc82d2811b834f00a0","","null","<img     src='G_5.jpg' height='90'> <img     src='G_4.jpg' height='90'> <img     src='G_1.jpg' height='90'> <img      src='G_7.jpg' height='90'> <img   src='G_6.jpg' height='90'> <img       src='G_3.jpg' height='90'> <img id='swapped' src='G_2.jpg' height='90'> <img id='swapped'  src='G_8.jpg' height='90'>","null","Animation1",""
"","","","","","html-keyboard-response","108","633117","0.0-102.0","62","1","2025-01-31 01:18:21","af8d355d56820e421d246a7037deb6e6","67.182.247.161","Mozilla/5.0 (Windows NT 10.0; Win64; x64) AppleWebKit/537.36 (KHTML, like Gecko) Chrome/131.0.0.0 Safari/537.36","WebKit","Chrome","131.0.0.0","Windows","10.0","https://app.prolific.com/","en-US,en;q=0.9","674934b4b6bd253249a72d63","67949641171f97c04e14fb34","679c23bc82d2811b834f00a0","","null","<img     src='G_5.jpg' height='90'> <img     src='G_4.jpg' height='90'> <img     src='G_1.jpg' height='90'> <img      src='G_7.jpg' height='90'> <img   src='G_6.jpg' height='90'> <img       src='G_3.jpg' height='90'> <img  src='G_2.jpg' height='90'> <img   src='G_8.jpg' height='90'>","null","Animation1",""
"","","","","","html-keyboard-response","109","633624","0.0-103.0","62","1","2025-01-31 01:18:21","af8d355d56820e421d246a7037deb6e6","67.182.247.161","Mozilla/5.0 (Windows NT 10.0; Win64; x64) AppleWebKit/537.36 (KHTML, like Gecko) Chrome/131.0.0.0 Safari/537.36","WebKit","Chrome","131.0.0.0","Windows","10.0","https://app.prolific.com/","en-US,en;q=0.9","674934b4b6bd253249a72d63","67949641171f97c04e14fb34","679c23bc82d2811b834f00a0","","null","<img     src='G_5.jpg' height='90'> <img     src='G_4.jpg' height='90'> <img     src='G_1.jpg' height='90'> <img      src='G_7.jpg' height='90'> <img   src='G_6.jpg' height='90'> <img id='selected'       src='G_3.jpg' height='90'> <img  src='G_2.jpg' height='90'> <img   src='G_8.jpg' height='90'>","null","Animation1",""
"","","","","","html-keyboard-response","110","634132","0.0-104.0","62","1","2025-01-31 01:18:21","af8d355d56820e421d246a7037deb6e6","67.182.247.161","Mozilla/5.0 (Windows NT 10.0; Win64; x64) AppleWebKit/537.36 (KHTML, like Gecko) Chrome/131.0.0.0 Safari/537.36","WebKit","Chrome","131.0.0.0","Windows","10.0","https://app.prolific.com/","en-US,en;q=0.9","674934b4b6bd253249a72d63","67949641171f97c04e14fb34","679c23bc82d2811b834f00a0","","null","<img     src='G_5.jpg' height='90'> <img     src='G_4.jpg' height='90'> <img     src='G_1.jpg' height='90'> <img      src='G_7.jpg' height='90'> <img   src='G_6.jpg' height='90'> <img id='selected'       src='G_3.jpg' height='90'> <img id='selected'  src='G_2.jpg' height='90'> <img   src='G_8.jpg' height='90'>","null","Animation1",""
"","","","","","html-keyboard-response","111","634642","0.0-105.0","62","1","2025-01-31 01:18:21","af8d355d56820e421d246a7037deb6e6","67.182.247.161","Mozilla/5.0 (Windows NT 10.0; Win64; x64) AppleWebKit/537.36 (KHTML, like Gecko) Chrome/131.0.0.0 Safari/537.36","WebKit","Chrome","131.0.0.0","Windows","10.0","https://app.prolific.com/","en-US,en;q=0.9","674934b4b6bd253249a72d63","67949641171f97c04e14fb34","679c23bc82d2811b834f00a0","","null","<img     src='G_5.jpg' height='90'> <img     src='G_4.jpg' height='90'> <img     src='G_1.jpg' height='90'> <img      src='G_7.jpg' height='90'> <img   src='G_6.jpg' height='90'> <img id='selected'       src='G_3.jpg' height='90'> <img id='selected'  src='G_2.jpg' height='90'> <img   src='G_8.jpg' height='90'>","null","Animation1",""
"","","","","","html-keyboard-response","112","634953","0.0-106.0","62","1","2025-01-31 01:18:21","af8d355d56820e421d246a7037deb6e6","67.182.247.161","Mozilla/5.0 (Windows NT 10.0; Win64; x64) AppleWebKit/537.36 (KHTML, like Gecko) Chrome/131.0.0.0 Safari/537.36","WebKit","Chrome","131.0.0.0","Windows","10.0","https://app.prolific.com/","en-US,en;q=0.9","674934b4b6bd253249a72d63","67949641171f97c04e14fb34","679c23bc82d2811b834f00a0","","null","<img     src='G_5.jpg' height='90'> <img     src='G_4.jpg' height='90'> <img     src='G_1.jpg' height='90'> <img      src='G_7.jpg' height='90'> <img   src='G_6.jpg' height='90'> <img        src='G_3.jpg' height='90'> <img   src='G_2.jpg' height='90'> <img   src='G_8.jpg' height='90'>","null","Animation1",""
"","","","","","html-keyboard-response","113","641751","0.0-107.0","62","1","2025-01-31 01:18:21","af8d355d56820e421d246a7037deb6e6","67.182.247.161","Mozilla/5.0 (Windows NT 10.0; Win64; x64) AppleWebKit/537.36 (KHTML, like Gecko) Chrome/131.0.0.0 Safari/537.36","WebKit","Chrome","131.0.0.0","Windows","10.0","https://app.prolific.com/","en-US,en;q=0.9","674934b4b6bd253249a72d63","67949641171f97c04e14fb34","679c23bc82d2811b834f00a0","","6794","[""Did you notice any patterns? <br><br>Press Enter to watch that example again and follow the steps of Omgne Sort.""]","enter","",""
"","","","","","html-button-response","114","642157","0.0-108.0","62","1","2025-01-31 01:18:21","af8d355d56820e421d246a7037deb6e6","67.182.247.161","Mozilla/5.0 (Windows NT 10.0; Win64; x64) AppleWebKit/537.36 (KHTML, like Gecko) Chrome/131.0.0.0 Safari/537.36","WebKit","Chrome","131.0.0.0","Windows","10.0","https://app.prolific.com/","en-US,en;q=0.9","674934b4b6bd253249a72d63","67949641171f97c04e14fb34","679c23bc82d2811b834f00a0","","null","<img id='selected' src='G_7.jpg' height='90'> <img src='G_3.jpg' height='90'> <img src='G_1.jpg' height='90'> <img src='G_5.jpg' height='90'> <img src='G_4.jpg' height='90'> <img src='G_6.jpg' height='90'> <img src='G_8.jpg' height='90'> <img src='G_2.jpg' height='90'>","null","Learning example 1",""
"","","","","","html-button-response","115","642461","0.0-109.0","62","1","2025-01-31 01:18:21","af8d355d56820e421d246a7037deb6e6","67.182.247.161","Mozilla/5.0 (Windows NT 10.0; Win64; x64) AppleWebKit/537.36 (KHTML, like Gecko) Chrome/131.0.0.0 Safari/537.36","WebKit","Chrome","131.0.0.0","Windows","10.0","https://app.prolific.com/","en-US,en;q=0.9","674934b4b6bd253249a72d63","67949641171f97c04e14fb34","679c23bc82d2811b834f00a0","","null","<img id='selected' src='G_7.jpg' height='90'> <img id='selected' src='G_3.jpg' height='90'> <img src='G_1.jpg' height='90'> <img src='G_5.jpg' height='90'> <img src='G_4.jpg' height='90'> <img src='G_6.jpg' height='90'> <img src='G_8.jpg' height='90'> <img src='G_2.jpg' height='90'>","null","Learning example 1",""
"","","","","","html-button-response","116","642779","0.0-110.0","62","1","2025-01-31 01:18:21","af8d355d56820e421d246a7037deb6e6","67.182.247.161","Mozilla/5.0 (Windows NT 10.0; Win64; x64) AppleWebKit/537.36 (KHTML, like Gecko) Chrome/131.0.0.0 Safari/537.36","WebKit","Chrome","131.0.0.0","Windows","10.0","https://app.prolific.com/","en-US,en;q=0.9","674934b4b6bd253249a72d63","67949641171f97c04e14fb34","679c23bc82d2811b834f00a0","","null","<img id='selected' src='G_7.jpg' height='90'> <img id='selected' src='G_3.jpg' height='90'> <img src='G_1.jpg' height='90'> <img src='G_5.jpg' height='90'> <img src='G_4.jpg' height='90'> <img src='G_6.jpg' height='90'> <img src='G_8.jpg' height='90'> <img src='G_2.jpg' height='90'>","null","Learning example 1",""
"","","","","","html-button-response","117","646474","0.0-111.0-0.0-0.0","62","1","2025-01-31 01:18:21","af8d355d56820e421d246a7037deb6e6","67.182.247.161","Mozilla/5.0 (Windows NT 10.0; Win64; x64) AppleWebKit/537.36 (KHTML, like Gecko) Chrome/131.0.0.0 Safari/537.36","WebKit","Chrome","131.0.0.0","Windows","10.0","https://app.prolific.com/","en-US,en;q=0.9","674934b4b6bd253249a72d63","67949641171f97c04e14fb34","679c23bc82d2811b834f00a0","","3692","<img id='selected' src='G_7.jpg' height='90'> <img id='selected' src='G_3.jpg' height='90'> <img src='G_1.jpg' height='90'> <img src='G_5.jpg' height='90'> <img src='G_4.jpg' height='90'> <img src='G_6.jpg' height='90'> <img src='G_8.jpg' height='90'> <img src='G_2.jpg' height='90'>","0","Learning example 1",""
"","","","","","html-button-response","118","647892","0.0-111.1-0.1-0.1","62","1","2025-01-31 01:18:21","af8d355d56820e421d246a7037deb6e6","67.182.247.161","Mozilla/5.0 (Windows NT 10.0; Win64; x64) AppleWebKit/537.36 (KHTML, like Gecko) Chrome/131.0.0.0 Safari/537.36","WebKit","Chrome","131.0.0.0","Windows","10.0","https://app.prolific.com/","en-US,en;q=0.9","674934b4b6bd253249a72d63","67949641171f97c04e14fb34","679c23bc82d2811b834f00a0","","1410","<img id='selected' src='G_7.jpg' height='90'> <img id='selected' src='G_3.jpg' height='90'> <img src='G_1.jpg' height='90'> <img src='G_5.jpg' height='90'> <img src='G_4.jpg' height='90'> <img src='G_6.jpg' height='90'> <img src='G_8.jpg' height='90'> <img src='G_2.jpg' height='90'>","1","Learning example 1",""
"","","","","","html-button-response","119","648098","0.0-112.0","62","1","2025-01-31 01:18:21","af8d355d56820e421d246a7037deb6e6","67.182.247.161","Mozilla/5.0 (Windows NT 10.0; Win64; x64) AppleWebKit/537.36 (KHTML, like Gecko) Chrome/131.0.0.0 Safari/537.36","WebKit","Chrome","131.0.0.0","Windows","10.0","https://app.prolific.com/","en-US,en;q=0.9","674934b4b6bd253249a72d63","67949641171f97c04e14fb34","679c23bc82d2811b834f00a0","","null","<img  src='G_7.jpg' height='90'> <img  src='G_3.jpg' height='90'> <img src='G_1.jpg' height='90'> <img src='G_5.jpg' height='90'> <img src='G_4.jpg' height='90'> <img src='G_6.jpg' height='90'> <img src='G_8.jpg' height='90'> <img src='G_2.jpg' height='90'>","null","Learning example 1",""
"","","","","","html-button-response","120","648515","0.0-113.0","62","1","2025-01-31 01:18:21","af8d355d56820e421d246a7037deb6e6","67.182.247.161","Mozilla/5.0 (Windows NT 10.0; Win64; x64) AppleWebKit/537.36 (KHTML, like Gecko) Chrome/131.0.0.0 Safari/537.36","WebKit","Chrome","131.0.0.0","Windows","10.0","https://app.prolific.com/","en-US,en;q=0.9","674934b4b6bd253249a72d63","67949641171f97c04e14fb34","679c23bc82d2811b834f00a0","","null","<img  src='G_7.jpg' height='90'> <img id='selected'  src='G_3.jpg' height='90'> <img src='G_1.jpg' height='90'> <img src='G_5.jpg' height='90'> <img src='G_4.jpg' height='90'> <img src='G_6.jpg' height='90'> <img src='G_8.jpg' height='90'> <img src='G_2.jpg' height='90'>","null","Learning example 1",""
"","","","","","html-button-response","121","648832","0.0-114.0","62","1","2025-01-31 01:18:21","af8d355d56820e421d246a7037deb6e6","67.182.247.161","Mozilla/5.0 (Windows NT 10.0; Win64; x64) AppleWebKit/537.36 (KHTML, like Gecko) Chrome/131.0.0.0 Safari/537.36","WebKit","Chrome","131.0.0.0","Windows","10.0","https://app.prolific.com/","en-US,en;q=0.9","674934b4b6bd253249a72d63","67949641171f97c04e14fb34","679c23bc82d2811b834f00a0","","null","<img  src='G_7.jpg' height='90'> <img id='selected'  src='G_3.jpg' height='90'> <img id='selected' src='G_1.jpg' height='90'> <img src='G_5.jpg' height='90'> <img src='G_4.jpg' height='90'> <img src='G_6.jpg' height='90'> <img src='G_8.jpg' height='90'> <img src='G_2.jpg' height='90'>","null","Learning example 1",""
"","","","","","html-button-response","122","649142","0.0-115.0","62","1","2025-01-31 01:18:21","af8d355d56820e421d246a7037deb6e6","67.182.247.161","Mozilla/5.0 (Windows NT 10.0; Win64; x64) AppleWebKit/537.36 (KHTML, like Gecko) Chrome/131.0.0.0 Safari/537.36","WebKit","Chrome","131.0.0.0","Windows","10.0","https://app.prolific.com/","en-US,en;q=0.9","674934b4b6bd253249a72d63","67949641171f97c04e14fb34","679c23bc82d2811b834f00a0","","null","<img  src='G_7.jpg' height='90'> <img id='swapped' src='G_1.jpg' height='90'> <img id='swapped'  src='G_3.jpg' height='90'> <img src='G_5.jpg' height='90'> <img src='G_4.jpg' height='90'> <img src='G_6.jpg' height='90'> <img src='G_8.jpg' height='90'> <img src='G_2.jpg' height='90'>","null","Learning example 1",""
"","","","","","html-button-response","123","652949","0.0-116.0-0.0-0.0","62","1","2025-01-31 01:18:21","af8d355d56820e421d246a7037deb6e6","67.182.247.161","Mozilla/5.0 (Windows NT 10.0; Win64; x64) AppleWebKit/537.36 (KHTML, like Gecko) Chrome/131.0.0.0 Safari/537.36","WebKit","Chrome","131.0.0.0","Windows","10.0","https://app.prolific.com/","en-US,en;q=0.9","674934b4b6bd253249a72d63","67949641171f97c04e14fb34","679c23bc82d2811b834f00a0","","3801","<img  src='G_7.jpg' height='90'> <img id='swapped' src='G_1.jpg' height='90'> <img id='swapped'  src='G_3.jpg' height='90'> <img src='G_5.jpg' height='90'> <img src='G_4.jpg' height='90'> <img src='G_6.jpg' height='90'> <img src='G_8.jpg' height='90'> <img src='G_2.jpg' height='90'>","1","Learning example 1",""
"","","","","","html-button-response","124","654092","0.0-116.1-0.1-0.1","62","1","2025-01-31 01:18:21","af8d355d56820e421d246a7037deb6e6","67.182.247.161","Mozilla/5.0 (Windows NT 10.0; Win64; x64) AppleWebKit/537.36 (KHTML, like Gecko) Chrome/131.0.0.0 Safari/537.36","WebKit","Chrome","131.0.0.0","Windows","10.0","https://app.prolific.com/","en-US,en;q=0.9","674934b4b6bd253249a72d63","67949641171f97c04e14fb34","679c23bc82d2811b834f00a0","","1137","<img  src='G_7.jpg' height='90'> <img id='swapped' src='G_1.jpg' height='90'> <img id='swapped'  src='G_3.jpg' height='90'> <img src='G_5.jpg' height='90'> <img src='G_4.jpg' height='90'> <img src='G_6.jpg' height='90'> <img src='G_8.jpg' height='90'> <img src='G_2.jpg' height='90'>","2","Learning example 1",""
"","","","","","html-button-response","125","654298","0.0-117.0","62","1","2025-01-31 01:18:21","af8d355d56820e421d246a7037deb6e6","67.182.247.161","Mozilla/5.0 (Windows NT 10.0; Win64; x64) AppleWebKit/537.36 (KHTML, like Gecko) Chrome/131.0.0.0 Safari/537.36","WebKit","Chrome","131.0.0.0","Windows","10.0","https://app.prolific.com/","en-US,en;q=0.9","674934b4b6bd253249a72d63","67949641171f97c04e14fb34","679c23bc82d2811b834f00a0","","null","<img  src='G_7.jpg' height='90'> <img  src='G_1.jpg' height='90'> <img   src='G_3.jpg' height='90'> <img src='G_5.jpg' height='90'> <img src='G_4.jpg' height='90'> <img src='G_6.jpg' height='90'> <img src='G_8.jpg' height='90'> <img src='G_2.jpg' height='90'>","null","Learning example 1",""
"","","","","","html-button-response","126","654718","0.0-118.0","62","1","2025-01-31 01:18:21","af8d355d56820e421d246a7037deb6e6","67.182.247.161","Mozilla/5.0 (Windows NT 10.0; Win64; x64) AppleWebKit/537.36 (KHTML, like Gecko) Chrome/131.0.0.0 Safari/537.36","WebKit","Chrome","131.0.0.0","Windows","10.0","https://app.prolific.com/","en-US,en;q=0.9","674934b4b6bd253249a72d63","67949641171f97c04e14fb34","679c23bc82d2811b834f00a0","","null","<img id='selected'  src='G_7.jpg' height='90'> <img  src='G_1.jpg' height='90'> <img   src='G_3.jpg' height='90'> <img src='G_5.jpg' height='90'> <img src='G_4.jpg' height='90'> <img src='G_6.jpg' height='90'> <img src='G_8.jpg' height='90'> <img src='G_2.jpg' height='90'>","null","Learning example 1",""
"","","","","","html-button-response","127","655031","0.0-119.0","62","1","2025-01-31 01:18:21","af8d355d56820e421d246a7037deb6e6","67.182.247.161","Mozilla/5.0 (Windows NT 10.0; Win64; x64) AppleWebKit/537.36 (KHTML, like Gecko) Chrome/131.0.0.0 Safari/537.36","WebKit","Chrome","131.0.0.0","Windows","10.0","https://app.prolific.com/","en-US,en;q=0.9","674934b4b6bd253249a72d63","67949641171f97c04e14fb34","679c23bc82d2811b834f00a0","","null","<img id='selected'  src='G_7.jpg' height='90'> <img id='selected'  src='G_1.jpg' height='90'> <img   src='G_3.jpg' height='90'> <img src='G_5.jpg' height='90'> <img src='G_4.jpg' height='90'> <img src='G_6.jpg' height='90'> <img src='G_8.jpg' height='90'> <img src='G_2.jpg' height='90'>","null","Learning example 1",""
"","","","","","html-button-response","128","655337","0.0-120.0","62","1","2025-01-31 01:18:21","af8d355d56820e421d246a7037deb6e6","67.182.247.161","Mozilla/5.0 (Windows NT 10.0; Win64; x64) AppleWebKit/537.36 (KHTML, like Gecko) Chrome/131.0.0.0 Safari/537.36","WebKit","Chrome","131.0.0.0","Windows","10.0","https://app.prolific.com/","en-US,en;q=0.9","674934b4b6bd253249a72d63","67949641171f97c04e14fb34","679c23bc82d2811b834f00a0","","null","<img id='swapped'  src='G_1.jpg' height='90'> <img id='swapped'  src='G_7.jpg' height='90'> <img   src='G_3.jpg' height='90'> <img src='G_5.jpg' height='90'> <img src='G_4.jpg' height='90'> <img src='G_6.jpg' height='90'> <img src='G_8.jpg' height='90'> <img src='G_2.jpg' height='90'>","null","Learning example 1",""
"","","","","","html-button-response","129","658683","0.0-121.0-0.0-0.0","62","1","2025-01-31 01:18:21","af8d355d56820e421d246a7037deb6e6","67.182.247.161","Mozilla/5.0 (Windows NT 10.0; Win64; x64) AppleWebKit/537.36 (KHTML, like Gecko) Chrome/131.0.0.0 Safari/537.36","WebKit","Chrome","131.0.0.0","Windows","10.0","https://app.prolific.com/","en-US,en;q=0.9","674934b4b6bd253249a72d63","67949641171f97c04e14fb34","679c23bc82d2811b834f00a0","","3339","<img id='swapped'  src='G_1.jpg' height='90'> <img id='swapped'  src='G_7.jpg' height='90'> <img   src='G_3.jpg' height='90'> <img src='G_5.jpg' height='90'> <img src='G_4.jpg' height='90'> <img src='G_6.jpg' height='90'> <img src='G_8.jpg' height='90'> <img src='G_2.jpg' height='90'>","1","Learning example 1",""
"","","","","","html-button-response","130","660852","0.0-121.1-0.1-0.1","62","1","2025-01-31 01:18:21","af8d355d56820e421d246a7037deb6e6","67.182.247.161","Mozilla/5.0 (Windows NT 10.0; Win64; x64) AppleWebKit/537.36 (KHTML, like Gecko) Chrome/131.0.0.0 Safari/537.36","WebKit","Chrome","131.0.0.0","Windows","10.0","https://app.prolific.com/","en-US,en;q=0.9","674934b4b6bd253249a72d63","67949641171f97c04e14fb34","679c23bc82d2811b834f00a0","","2164","<img id='swapped'  src='G_1.jpg' height='90'> <img id='swapped'  src='G_7.jpg' height='90'> <img   src='G_3.jpg' height='90'> <img src='G_5.jpg' height='90'> <img src='G_4.jpg' height='90'> <img src='G_6.jpg' height='90'> <img src='G_8.jpg' height='90'> <img src='G_2.jpg' height='90'>","0","Learning example 1",""
"","","","","","html-button-response","131","661060","0.0-122.0","62","1","2025-01-31 01:18:21","af8d355d56820e421d246a7037deb6e6","67.182.247.161","Mozilla/5.0 (Windows NT 10.0; Win64; x64) AppleWebKit/537.36 (KHTML, like Gecko) Chrome/131.0.0.0 Safari/537.36","WebKit","Chrome","131.0.0.0","Windows","10.0","https://app.prolific.com/","en-US,en;q=0.9","674934b4b6bd253249a72d63","67949641171f97c04e14fb34","679c23bc82d2811b834f00a0","","null","<img   src='G_1.jpg' height='90'> <img   src='G_7.jpg' height='90'> <img   src='G_3.jpg' height='90'> <img src='G_5.jpg' height='90'> <img src='G_4.jpg' height='90'> <img src='G_6.jpg' height='90'> <img src='G_8.jpg' height='90'> <img src='G_2.jpg' height='90'>","null","Learning example 1",""
"","","","","","html-button-response","132","661475","0.0-123.0","62","1","2025-01-31 01:18:21","af8d355d56820e421d246a7037deb6e6","67.182.247.161","Mozilla/5.0 (Windows NT 10.0; Win64; x64) AppleWebKit/537.36 (KHTML, like Gecko) Chrome/131.0.0.0 Safari/537.36","WebKit","Chrome","131.0.0.0","Windows","10.0","https://app.prolific.com/","en-US,en;q=0.9","674934b4b6bd253249a72d63","67949641171f97c04e14fb34","679c23bc82d2811b834f00a0","","null","<img   src='G_1.jpg' height='90'> <img   src='G_7.jpg' height='90'> <img id='selected'   src='G_3.jpg' height='90'> <img src='G_5.jpg' height='90'> <img src='G_4.jpg' height='90'> <img src='G_6.jpg' height='90'> <img src='G_8.jpg' height='90'> <img src='G_2.jpg' height='90'>","null","Learning example 1",""
"","","","","","html-button-response","133","661784","0.0-124.0","62","1","2025-01-31 01:18:21","af8d355d56820e421d246a7037deb6e6","67.182.247.161","Mozilla/5.0 (Windows NT 10.0; Win64; x64) AppleWebKit/537.36 (KHTML, like Gecko) Chrome/131.0.0.0 Safari/537.36","WebKit","Chrome","131.0.0.0","Windows","10.0","https://app.prolific.com/","en-US,en;q=0.9","674934b4b6bd253249a72d63","67949641171f97c04e14fb34","679c23bc82d2811b834f00a0","","null","<img   src='G_1.jpg' height='90'> <img   src='G_7.jpg' height='90'> <img id='selected'   src='G_3.jpg' height='90'> <img id='selected' src='G_5.jpg' height='90'> <img src='G_4.jpg' height='90'> <img src='G_6.jpg' height='90'> <img src='G_8.jpg' height='90'> <img src='G_2.jpg' height='90'>","null","Learning example 1",""
"","","","","","html-button-response","134","662095","0.0-125.0","62","1","2025-01-31 01:18:21","af8d355d56820e421d246a7037deb6e6","67.182.247.161","Mozilla/5.0 (Windows NT 10.0; Win64; x64) AppleWebKit/537.36 (KHTML, like Gecko) Chrome/131.0.0.0 Safari/537.36","WebKit","Chrome","131.0.0.0","Windows","10.0","https://app.prolific.com/","en-US,en;q=0.9","674934b4b6bd253249a72d63","67949641171f97c04e14fb34","679c23bc82d2811b834f00a0","","null","<img   src='G_1.jpg' height='90'> <img   src='G_7.jpg' height='90'> <img id='swapped' src='G_5.jpg' height='90'> <img id='swapped'   src='G_3.jpg' height='90'> <img src='G_4.jpg' height='90'> <img src='G_6.jpg' height='90'> <img src='G_8.jpg' height='90'> <img src='G_2.jpg' height='90'>","null","Learning example 1",""
"","","","","","html-button-response","135","666658","0.0-126.0-0.0-0.0","62","1","2025-01-31 01:18:21","af8d355d56820e421d246a7037deb6e6","67.182.247.161","Mozilla/5.0 (Windows NT 10.0; Win64; x64) AppleWebKit/537.36 (KHTML, like Gecko) Chrome/131.0.0.0 Safari/537.36","WebKit","Chrome","131.0.0.0","Windows","10.0","https://app.prolific.com/","en-US,en;q=0.9","674934b4b6bd253249a72d63","67949641171f97c04e14fb34","679c23bc82d2811b834f00a0","","4554","<img   src='G_1.jpg' height='90'> <img   src='G_7.jpg' height='90'> <img id='swapped' src='G_5.jpg' height='90'> <img id='swapped'   src='G_3.jpg' height='90'> <img src='G_4.jpg' height='90'> <img src='G_6.jpg' height='90'> <img src='G_8.jpg' height='90'> <img src='G_2.jpg' height='90'>","2","Learning example 1",""
"","","","","","html-button-response","136","670171","0.0-126.1-0.1-0.1","62","1","2025-01-31 01:18:21","af8d355d56820e421d246a7037deb6e6","67.182.247.161","Mozilla/5.0 (Windows NT 10.0; Win64; x64) AppleWebKit/537.36 (KHTML, like Gecko) Chrome/131.0.0.0 Safari/537.36","WebKit","Chrome","131.0.0.0","Windows","10.0","https://app.prolific.com/","en-US,en;q=0.9","674934b4b6bd253249a72d63","67949641171f97c04e14fb34","679c23bc82d2811b834f00a0","","3507","<img   src='G_1.jpg' height='90'> <img   src='G_7.jpg' height='90'> <img id='swapped' src='G_5.jpg' height='90'> <img id='swapped'   src='G_3.jpg' height='90'> <img src='G_4.jpg' height='90'> <img src='G_6.jpg' height='90'> <img src='G_8.jpg' height='90'> <img src='G_2.jpg' height='90'>","3","Learning example 1",""
"","","","","","html-button-response","137","670374","0.0-127.0","62","1","2025-01-31 01:18:21","af8d355d56820e421d246a7037deb6e6","67.182.247.161","Mozilla/5.0 (Windows NT 10.0; Win64; x64) AppleWebKit/537.36 (KHTML, like Gecko) Chrome/131.0.0.0 Safari/537.36","WebKit","Chrome","131.0.0.0","Windows","10.0","https://app.prolific.com/","en-US,en;q=0.9","674934b4b6bd253249a72d63","67949641171f97c04e14fb34","679c23bc82d2811b834f00a0","","null","<img   src='G_1.jpg' height='90'> <img   src='G_7.jpg' height='90'> <img  src='G_5.jpg' height='90'> <img    src='G_3.jpg' height='90'> <img src='G_4.jpg' height='90'> <img src='G_6.jpg' height='90'> <img src='G_8.jpg' height='90'> <img src='G_2.jpg' height='90'>","null","Learning example 1",""
"","","","","","html-button-response","138","670781","0.0-128.0","62","1","2025-01-31 01:18:21","af8d355d56820e421d246a7037deb6e6","67.182.247.161","Mozilla/5.0 (Windows NT 10.0; Win64; x64) AppleWebKit/537.36 (KHTML, like Gecko) Chrome/131.0.0.0 Safari/537.36","WebKit","Chrome","131.0.0.0","Windows","10.0","https://app.prolific.com/","en-US,en;q=0.9","674934b4b6bd253249a72d63","67949641171f97c04e14fb34","679c23bc82d2811b834f00a0","","null","<img   src='G_1.jpg' height='90'> <img id='selected'   src='G_7.jpg' height='90'> <img  src='G_5.jpg' height='90'> <img    src='G_3.jpg' height='90'> <img src='G_4.jpg' height='90'> <img src='G_6.jpg' height='90'> <img src='G_8.jpg' height='90'> <img src='G_2.jpg' height='90'>","null","Learning example 1",""
"","","","","","html-button-response","139","671094","0.0-129.0","62","1","2025-01-31 01:18:21","af8d355d56820e421d246a7037deb6e6","67.182.247.161","Mozilla/5.0 (Windows NT 10.0; Win64; x64) AppleWebKit/537.36 (KHTML, like Gecko) Chrome/131.0.0.0 Safari/537.36","WebKit","Chrome","131.0.0.0","Windows","10.0","https://app.prolific.com/","en-US,en;q=0.9","674934b4b6bd253249a72d63","67949641171f97c04e14fb34","679c23bc82d2811b834f00a0","","null","<img   src='G_1.jpg' height='90'> <img id='selected'   src='G_7.jpg' height='90'> <img id='selected'  src='G_5.jpg' height='90'> <img    src='G_3.jpg' height='90'> <img src='G_4.jpg' height='90'> <img src='G_6.jpg' height='90'> <img src='G_8.jpg' height='90'> <img src='G_2.jpg' height='90'>","null","Learning example 1",""
