"success","timeout","failed_images","failed_audio","failed_video","trial_type","trial_index","time_elapsed","internal_node_id","run_id","condition","recorded_at","source_code_version","ip","user_agent","device","browser","browser_version","platform","platform_version","referer","accept_language","PROLIFIC_PID","STUDY_ID","SESSION_ID","view_history","rt","stimulus","response","phase","question_order"
"true","false","[]","[]","[]","preload","0","901","0.0-0.0","63","1","2025-01-31 01:19:05","af8d355d56820e421d246a7037deb6e6","172.58.14.130","Mozilla/5.0 (Windows NT 10.0; Win64; x64) AppleWebKit/537.36 (KHTML, like Gecko) Chrome/132.0.0.0 Safari/537.36","WebKit","Chrome","132.0.0.0","Windows","10.0","https://app.prolific.com/","en-US,en;q=0.9,es;q=0.8","63316daa57747115376760da","67949641171f97c04e14fb34","679c24f47cd1399e084c7da2","","","","","",""
"","","","","","instructions","1","23434","0.0-1.0","63","1","2025-01-31 01:19:05","af8d355d56820e421d246a7037deb6e6","172.58.14.130","Mozilla/5.0 (Windows NT 10.0; Win64; x64) AppleWebKit/537.36 (KHTML, like Gecko) Chrome/132.0.0.0 Safari/537.36","WebKit","Chrome","132.0.0.0","Windows","10.0","https://app.prolific.com/","en-US,en;q=0.9,es;q=0.8","63316daa57747115376760da","67949641171f97c04e14fb34","679c24f47cd1399e084c7da2","[{""page_index"":0,""viewing_time"":22525}]","22527","","","",""
"","","","","","html-keyboard-response","2","23954","0.0-2.0","63","1","2025-01-31 01:19:05","af8d355d56820e421d246a7037deb6e6","172.58.14.130","Mozilla/5.0 (Windows NT 10.0; Win64; x64) AppleWebKit/537.36 (KHTML, like Gecko) Chrome/132.0.0.0 Safari/537.36","WebKit","Chrome","132.0.0.0","Windows","10.0","https://app.prolific.com/","en-US,en;q=0.9,es;q=0.8","63316daa57747115376760da","67949641171f97c04e14fb34","679c24f47cd1399e084c7da2","","null","<p> + <p/>","null","",""
"","","","","","instructions","3","50297","0.0-3.0","63","1","2025-01-31 01:19:05","af8d355d56820e421d246a7037deb6e6","172.58.14.130","Mozilla/5.0 (Windows NT 10.0; Win64; x64) AppleWebKit/537.36 (KHTML, like Gecko) Chrome/132.0.0.0 Safari/537.36","WebKit","Chrome","132.0.0.0","Windows","10.0","https://app.prolific.com/","en-US,en;q=0.9,es;q=0.8","63316daa57747115376760da","67949641171f97c04e14fb34","679c24f47cd1399e084c7da2","[{""page_index"":0,""viewing_time"":1620},{""page_index"":1,""viewing_time"":6200},{""page_index"":2,""viewing_time"":5498},{""page_index"":3,""viewing_time"":8031},{""page_index"":4,""viewing_time"":4993}]","26341","","","",""
"","","","","","html-button-response","4","54675","0.0-4.0-0.0-0.0","63","1","2025-01-31 01:19:05","af8d355d56820e421d246a7037deb6e6","172.58.14.130","Mozilla/5.0 (Windows NT 10.0; Win64; x64) AppleWebKit/537.36 (KHTML, like Gecko) Chrome/132.0.0.0 Safari/537.36","WebKit","Chrome","132.0.0.0","Windows","10.0","https://app.prolific.com/","en-US,en;q=0.9,es;q=0.8","63316daa57747115376760da","67949641171f97c04e14fb34","679c24f47cd1399e084c7da2","","4370","","0","Intro Trial",""
"","","","","","html-button-response","5","60393","0.0-4.1-0.1-0.1","63","1","2025-01-31 01:19:05","af8d355d56820e421d246a7037deb6e6","172.58.14.130","Mozilla/5.0 (Windows NT 10.0; Win64; x64) AppleWebKit/537.36 (KHTML, like Gecko) Chrome/132.0.0.0 Safari/537.36","WebKit","Chrome","132.0.0.0","Windows","10.0","https://app.prolific.com/","en-US,en;q=0.9,es;q=0.8","63316daa57747115376760da","67949641171f97c04e14fb34","679c24f47cd1399e084c7da2","","5713","","1","Intro Trial",""
"","","","","","html-button-response","6","62067","0.0-4.2-0.2-0.2","63","1","2025-01-31 01:19:05","af8d355d56820e421d246a7037deb6e6","172.58.14.130","Mozilla/5.0 (Windows NT 10.0; Win64; x64) AppleWebKit/537.36 (KHTML, like Gecko) Chrome/132.0.0.0 Safari/537.36","WebKit","Chrome","132.0.0.0","Windows","10.0","https://app.prolific.com/","en-US,en;q=0.9,es;q=0.8","63316daa57747115376760da","67949641171f97c04e14fb34","679c24f47cd1399e084c7da2","","1669","","1","Intro Trial",""
"","","","","","html-button-response","7","62529","0.0-4.3-0.3-0.3","63","1","2025-01-31 01:19:05","af8d355d56820e421d246a7037deb6e6","172.58.14.130","Mozilla/5.0 (Windows NT 10.0; Win64; x64) AppleWebKit/537.36 (KHTML, like Gecko) Chrome/132.0.0.0 Safari/537.36","WebKit","Chrome","132.0.0.0","Windows","10.0","https://app.prolific.com/","en-US,en;q=0.9,es;q=0.8","63316daa57747115376760da","67949641171f97c04e14fb34","679c24f47cd1399e084c7da2","","458","","2","Intro Trial",""
"","","","","","html-button-response","8","63305","0.0-4.4-0.4-0.4","63","1","2025-01-31 01:19:05","af8d355d56820e421d246a7037deb6e6","172.58.14.130","Mozilla/5.0 (Windows NT 10.0; Win64; x64) AppleWebKit/537.36 (KHTML, like Gecko) Chrome/132.0.0.0 Safari/537.36","WebKit","Chrome","132.0.0.0","Windows","10.0","https://app.prolific.com/","en-US,en;q=0.9,es;q=0.8","63316daa57747115376760da","67949641171f97c04e14fb34","679c24f47cd1399e084c7da2","","769","","2","Intro Trial",""
"","","","","","html-button-response","9","63769","0.0-4.5-0.5-0.5","63","1","2025-01-31 01:19:05","af8d355d56820e421d246a7037deb6e6","172.58.14.130","Mozilla/5.0 (Windows NT 10.0; Win64; x64) AppleWebKit/537.36 (KHTML, like Gecko) Chrome/132.0.0.0 Safari/537.36","WebKit","Chrome","132.0.0.0","Windows","10.0","https://app.prolific.com/","en-US,en;q=0.9,es;q=0.8","63316daa57747115376760da","67949641171f97c04e14fb34","679c24f47cd1399e084c7da2","","459","","3","Intro Trial",""
"","","","","","html-button-response","10","65011","0.0-4.6-0.6-0.6","63","1","2025-01-31 01:19:05","af8d355d56820e421d246a7037deb6e6","172.58.14.130","Mozilla/5.0 (Windows NT 10.0; Win64; x64) AppleWebKit/537.36 (KHTML, like Gecko) Chrome/132.0.0.0 Safari/537.36","WebKit","Chrome","132.0.0.0","Windows","10.0","https://app.prolific.com/","en-US,en;q=0.9,es;q=0.8","63316daa57747115376760da","67949641171f97c04e14fb34","679c24f47cd1399e084c7da2","","1237","","3","Intro Trial",""
"","","","","","html-button-response","11","65411","0.0-4.7-0.7-0.7","63","1","2025-01-31 01:19:05","af8d355d56820e421d246a7037deb6e6","172.58.14.130","Mozilla/5.0 (Windows NT 10.0; Win64; x64) AppleWebKit/537.36 (KHTML, like Gecko) Chrome/132.0.0.0 Safari/537.36","WebKit","Chrome","132.0.0.0","Windows","10.0","https://app.prolific.com/","en-US,en;q=0.9,es;q=0.8","63316daa57747115376760da","67949641171f97c04e14fb34","679c24f47cd1399e084c7da2","","395","","4","Intro Trial",""
"","","","","","html-button-response","12","66682","0.0-4.8-0.8-0.8","63","1","2025-01-31 01:19:05","af8d355d56820e421d246a7037deb6e6","172.58.14.130","Mozilla/5.0 (Windows NT 10.0; Win64; x64) AppleWebKit/537.36 (KHTML, like Gecko) Chrome/132.0.0.0 Safari/537.36","WebKit","Chrome","132.0.0.0","Windows","10.0","https://app.prolific.com/","en-US,en;q=0.9,es;q=0.8","63316daa57747115376760da","67949641171f97c04e14fb34","679c24f47cd1399e084c7da2","","1266","","0","Intro Trial",""
"","","","","","html-button-response","13","67058","0.0-4.9-0.9-0.9","63","1","2025-01-31 01:19:05","af8d355d56820e421d246a7037deb6e6","172.58.14.130","Mozilla/5.0 (Windows NT 10.0; Win64; x64) AppleWebKit/537.36 (KHTML, like Gecko) Chrome/132.0.0.0 Safari/537.36","WebKit","Chrome","132.0.0.0","Windows","10.0","https://app.prolific.com/","en-US,en;q=0.9,es;q=0.8","63316daa57747115376760da","67949641171f97c04e14fb34","679c24f47cd1399e084c7da2","","371","","1","Intro Trial",""
"","","","","","html-button-response","14","67768","0.0-4.10-0.10-0.10","63","1","2025-01-31 01:19:05","af8d355d56820e421d246a7037deb6e6","172.58.14.130","Mozilla/5.0 (Windows NT 10.0; Win64; x64) AppleWebKit/537.36 (KHTML, like Gecko) Chrome/132.0.0.0 Safari/537.36","WebKit","Chrome","132.0.0.0","Windows","10.0","https://app.prolific.com/","en-US,en;q=0.9,es;q=0.8","63316daa57747115376760da","67949641171f97c04e14fb34","679c24f47cd1399e084c7da2","","706","","1","Intro Trial",""
"","","","","","html-button-response","15","68179","0.0-4.11-0.11-0.11","63","1","2025-01-31 01:19:05","af8d355d56820e421d246a7037deb6e6","172.58.14.130","Mozilla/5.0 (Windows NT 10.0; Win64; x64) AppleWebKit/537.36 (KHTML, like Gecko) Chrome/132.0.0.0 Safari/537.36","WebKit","Chrome","132.0.0.0","Windows","10.0","https://app.prolific.com/","en-US,en;q=0.9,es;q=0.8","63316daa57747115376760da","67949641171f97c04e14fb34","679c24f47cd1399e084c7da2","","405","","2","Intro Trial",""
"","","","","","html-button-response","16","68817","0.0-4.12-0.12-0.12","63","1","2025-01-31 01:19:05","af8d355d56820e421d246a7037deb6e6","172.58.14.130","Mozilla/5.0 (Windows NT 10.0; Win64; x64) AppleWebKit/537.36 (KHTML, like Gecko) Chrome/132.0.0.0 Safari/537.36","WebKit","Chrome","132.0.0.0","Windows","10.0","https://app.prolific.com/","en-US,en;q=0.9,es;q=0.8","63316daa57747115376760da","67949641171f97c04e14fb34","679c24f47cd1399e084c7da2","","632","","2","Intro Trial",""
"","","","","","html-button-response","17","69344","0.0-4.13-0.13-0.13","63","1","2025-01-31 01:19:05","af8d355d56820e421d246a7037deb6e6","172.58.14.130","Mozilla/5.0 (Windows NT 10.0; Win64; x64) AppleWebKit/537.36 (KHTML, like Gecko) Chrome/132.0.0.0 Safari/537.36","WebKit","Chrome","132.0.0.0","Windows","10.0","https://app.prolific.com/","en-US,en;q=0.9,es;q=0.8","63316daa57747115376760da","67949641171f97c04e14fb34","679c24f47cd1399e084c7da2","","522","","3","Intro Trial",""
"","","","","","html-button-response","18","70169","0.0-4.14-0.14-0.14","63","1","2025-01-31 01:19:05","af8d355d56820e421d246a7037deb6e6","172.58.14.130","Mozilla/5.0 (Windows NT 10.0; Win64; x64) AppleWebKit/537.36 (KHTML, like Gecko) Chrome/132.0.0.0 Safari/537.36","WebKit","Chrome","132.0.0.0","Windows","10.0","https://app.prolific.com/","en-US,en;q=0.9,es;q=0.8","63316daa57747115376760da","67949641171f97c04e14fb34","679c24f47cd1399e084c7da2","","820","","3","Intro Trial",""
"","","","","","html-button-response","19","70625","0.0-4.15-0.15-0.15","63","1","2025-01-31 01:19:05","af8d355d56820e421d246a7037deb6e6","172.58.14.130","Mozilla/5.0 (Windows NT 10.0; Win64; x64) AppleWebKit/537.36 (KHTML, like Gecko) Chrome/132.0.0.0 Safari/537.36","WebKit","Chrome","132.0.0.0","Windows","10.0","https://app.prolific.com/","en-US,en;q=0.9,es;q=0.8","63316daa57747115376760da","67949641171f97c04e14fb34","679c24f47cd1399e084c7da2","","452","","4","Intro Trial",""
"","","","","","html-button-response","20","73211","0.0-4.16-0.16-0.16","63","1","2025-01-31 01:19:05","af8d355d56820e421d246a7037deb6e6","172.58.14.130","Mozilla/5.0 (Windows NT 10.0; Win64; x64) AppleWebKit/537.36 (KHTML, like Gecko) Chrome/132.0.0.0 Safari/537.36","WebKit","Chrome","132.0.0.0","Windows","10.0","https://app.prolific.com/","en-US,en;q=0.9,es;q=0.8","63316daa57747115376760da","67949641171f97c04e14fb34","679c24f47cd1399e084c7da2","","2580","","0","Intro Trial",""
"","","","","","html-button-response","21","73634","0.0-4.17-0.17-0.17","63","1","2025-01-31 01:19:05","af8d355d56820e421d246a7037deb6e6","172.58.14.130","Mozilla/5.0 (Windows NT 10.0; Win64; x64) AppleWebKit/537.36 (KHTML, like Gecko) Chrome/132.0.0.0 Safari/537.36","WebKit","Chrome","132.0.0.0","Windows","10.0","https://app.prolific.com/","en-US,en;q=0.9,es;q=0.8","63316daa57747115376760da","67949641171f97c04e14fb34","679c24f47cd1399e084c7da2","","417","","1","Intro Trial",""
"","","","","","html-button-response","22","74135","0.0-4.18-0.18-0.18","63","1","2025-01-31 01:19:05","af8d355d56820e421d246a7037deb6e6","172.58.14.130","Mozilla/5.0 (Windows NT 10.0; Win64; x64) AppleWebKit/537.36 (KHTML, like Gecko) Chrome/132.0.0.0 Safari/537.36","WebKit","Chrome","132.0.0.0","Windows","10.0","https://app.prolific.com/","en-US,en;q=0.9,es;q=0.8","63316daa57747115376760da","67949641171f97c04e14fb34","679c24f47cd1399e084c7da2","","495","","1","Intro Trial",""
"","","","","","html-button-response","23","74658","0.0-4.19-0.19-0.19","63","1","2025-01-31 01:19:05","af8d355d56820e421d246a7037deb6e6","172.58.14.130","Mozilla/5.0 (Windows NT 10.0; Win64; x64) AppleWebKit/537.36 (KHTML, like Gecko) Chrome/132.0.0.0 Safari/537.36","WebKit","Chrome","132.0.0.0","Windows","10.0","https://app.prolific.com/","en-US,en;q=0.9,es;q=0.8","63316daa57747115376760da","67949641171f97c04e14fb34","679c24f47cd1399e084c7da2","","517","","2","Intro Trial",""
"","","","","","html-button-response","24","75504","0.0-4.20-0.20-0.20","63","1","2025-01-31 01:19:05","af8d355d56820e421d246a7037deb6e6","172.58.14.130","Mozilla/5.0 (Windows NT 10.0; Win64; x64) AppleWebKit/537.36 (KHTML, like Gecko) Chrome/132.0.0.0 Safari/537.36","WebKit","Chrome","132.0.0.0","Windows","10.0","https://app.prolific.com/","en-US,en;q=0.9,es;q=0.8","63316daa57747115376760da","67949641171f97c04e14fb34","679c24f47cd1399e084c7da2","","840","","2","Intro Trial",""
"","","","","","html-button-response","25","75933","0.0-4.21-0.21-0.21","63","1","2025-01-31 01:19:05","af8d355d56820e421d246a7037deb6e6","172.58.14.130","Mozilla/5.0 (Windows NT 10.0; Win64; x64) AppleWebKit/537.36 (KHTML, like Gecko) Chrome/132.0.0.0 Safari/537.36","WebKit","Chrome","132.0.0.0","Windows","10.0","https://app.prolific.com/","en-US,en;q=0.9,es;q=0.8","63316daa57747115376760da","67949641171f97c04e14fb34","679c24f47cd1399e084c7da2","","422","","3","Intro Trial",""
"","","","","","html-button-response","26","76503","0.0-4.22-0.22-0.22","63","1","2025-01-31 01:19:05","af8d355d56820e421d246a7037deb6e6","172.58.14.130","Mozilla/5.0 (Windows NT 10.0; Win64; x64) AppleWebKit/537.36 (KHTML, like Gecko) Chrome/132.0.0.0 Safari/537.36","WebKit","Chrome","132.0.0.0","Windows","10.0","https://app.prolific.com/","en-US,en;q=0.9,es;q=0.8","63316daa57747115376760da","67949641171f97c04e14fb34","679c24f47cd1399e084c7da2","","563","","3","Intro Trial",""
"","","","","","html-button-response","27","76935","0.0-4.23-0.23-0.23","63","1","2025-01-31 01:19:05","af8d355d56820e421d246a7037deb6e6","172.58.14.130","Mozilla/5.0 (Windows NT 10.0; Win64; x64) AppleWebKit/537.36 (KHTML, like Gecko) Chrome/132.0.0.0 Safari/537.36","WebKit","Chrome","132.0.0.0","Windows","10.0","https://app.prolific.com/","en-US,en;q=0.9,es;q=0.8","63316daa57747115376760da","67949641171f97c04e14fb34","679c24f47cd1399e084c7da2","","426","","4","Intro Trial",""
"","","","","","html-button-response","28","77719","0.0-4.24-0.24-0.24","63","1","2025-01-31 01:19:05","af8d355d56820e421d246a7037deb6e6","172.58.14.130","Mozilla/5.0 (Windows NT 10.0; Win64; x64) AppleWebKit/537.36 (KHTML, like Gecko) Chrome/132.0.0.0 Safari/537.36","WebKit","Chrome","132.0.0.0","Windows","10.0","https://app.prolific.com/","en-US,en;q=0.9,es;q=0.8","63316daa57747115376760da","67949641171f97c04e14fb34","679c24f47cd1399e084c7da2","","779","","0","Intro Trial",""
"","","","","","html-button-response","29","78106","0.0-4.25-0.25-0.25","63","1","2025-01-31 01:19:05","af8d355d56820e421d246a7037deb6e6","172.58.14.130","Mozilla/5.0 (Windows NT 10.0; Win64; x64) AppleWebKit/537.36 (KHTML, like Gecko) Chrome/132.0.0.0 Safari/537.36","WebKit","Chrome","132.0.0.0","Windows","10.0","https://app.prolific.com/","en-US,en;q=0.9,es;q=0.8","63316daa57747115376760da","67949641171f97c04e14fb34","679c24f47cd1399e084c7da2","","381","","1","Intro Trial",""
"","","","","","html-button-response","30","78846","0.0-4.26-0.26-0.26","63","1","2025-01-31 01:19:05","af8d355d56820e421d246a7037deb6e6","172.58.14.130","Mozilla/5.0 (Windows NT 10.0; Win64; x64) AppleWebKit/537.36 (KHTML, like Gecko) Chrome/132.0.0.0 Safari/537.36","WebKit","Chrome","132.0.0.0","Windows","10.0","https://app.prolific.com/","en-US,en;q=0.9,es;q=0.8","63316daa57747115376760da","67949641171f97c04e14fb34","679c24f47cd1399e084c7da2","","736","","1","Intro Trial",""
"","","","","","html-button-response","31","79318","0.0-4.27-0.27-0.27","63","1","2025-01-31 01:19:05","af8d355d56820e421d246a7037deb6e6","172.58.14.130","Mozilla/5.0 (Windows NT 10.0; Win64; x64) AppleWebKit/537.36 (KHTML, like Gecko) Chrome/132.0.0.0 Safari/537.36","WebKit","Chrome","132.0.0.0","Windows","10.0","https://app.prolific.com/","en-US,en;q=0.9,es;q=0.8","63316daa57747115376760da","67949641171f97c04e14fb34","679c24f47cd1399e084c7da2","","466","","2","Intro Trial",""
"","","","","","html-button-response","32","80265","0.0-4.28-0.28-0.28","63","1","2025-01-31 01:19:05","af8d355d56820e421d246a7037deb6e6","172.58.14.130","Mozilla/5.0 (Windows NT 10.0; Win64; x64) AppleWebKit/537.36 (KHTML, like Gecko) Chrome/132.0.0.0 Safari/537.36","WebKit","Chrome","132.0.0.0","Windows","10.0","https://app.prolific.com/","en-US,en;q=0.9,es;q=0.8","63316daa57747115376760da","67949641171f97c04e14fb34","679c24f47cd1399e084c7da2","","939","","2","Intro Trial",""
"","","","","","html-button-response","33","80545","0.0-4.29-0.29-0.29","63","1","2025-01-31 01:19:05","af8d355d56820e421d246a7037deb6e6","172.58.14.130","Mozilla/5.0 (Windows NT 10.0; Win64; x64) AppleWebKit/537.36 (KHTML, like Gecko) Chrome/132.0.0.0 Safari/537.36","WebKit","Chrome","132.0.0.0","Windows","10.0","https://app.prolific.com/","en-US,en;q=0.9,es;q=0.8","63316daa57747115376760da","67949641171f97c04e14fb34","679c24f47cd1399e084c7da2","","273","","3","Intro Trial",""
"","","","","","html-button-response","34","81280","0.0-4.30-0.30-0.30","63","1","2025-01-31 01:19:05","af8d355d56820e421d246a7037deb6e6","172.58.14.130","Mozilla/5.0 (Windows NT 10.0; Win64; x64) AppleWebKit/537.36 (KHTML, like Gecko) Chrome/132.0.0.0 Safari/537.36","WebKit","Chrome","132.0.0.0","Windows","10.0","https://app.prolific.com/","en-US,en;q=0.9,es;q=0.8","63316daa57747115376760da","67949641171f97c04e14fb34","679c24f47cd1399e084c7da2","","729","","3","Intro Trial",""
"","","","","","html-button-response","35","81716","0.0-4.31-0.31-0.31","63","1","2025-01-31 01:19:05","af8d355d56820e421d246a7037deb6e6","172.58.14.130","Mozilla/5.0 (Windows NT 10.0; Win64; x64) AppleWebKit/537.36 (KHTML, like Gecko) Chrome/132.0.0.0 Safari/537.36","WebKit","Chrome","132.0.0.0","Windows","10.0","https://app.prolific.com/","en-US,en;q=0.9,es;q=0.8","63316daa57747115376760da","67949641171f97c04e14fb34","679c24f47cd1399e084c7da2","","428","","4","Intro Trial",""
"","","","","","html-button-response","36","82686","0.0-4.32-0.32-0.32","63","1","2025-01-31 01:19:05","af8d355d56820e421d246a7037deb6e6","172.58.14.130","Mozilla/5.0 (Windows NT 10.0; Win64; x64) AppleWebKit/537.36 (KHTML, like Gecko) Chrome/132.0.0.0 Safari/537.36","WebKit","Chrome","132.0.0.0","Windows","10.0","https://app.prolific.com/","en-US,en;q=0.9,es;q=0.8","63316daa57747115376760da","67949641171f97c04e14fb34","679c24f47cd1399e084c7da2","","964","","0","Intro Trial",""
"","","","","","html-button-response","37","83195","0.0-4.33-0.33-0.33","63","1","2025-01-31 01:19:05","af8d355d56820e421d246a7037deb6e6","172.58.14.130","Mozilla/5.0 (Windows NT 10.0; Win64; x64) AppleWebKit/537.36 (KHTML, like Gecko) Chrome/132.0.0.0 Safari/537.36","WebKit","Chrome","132.0.0.0","Windows","10.0","https://app.prolific.com/","en-US,en;q=0.9,es;q=0.8","63316daa57747115376760da","67949641171f97c04e14fb34","679c24f47cd1399e084c7da2","","501","","1","Intro Trial",""
"","","","","","html-button-response","38","83639","0.0-4.34-0.34-0.34","63","1","2025-01-31 01:19:05","af8d355d56820e421d246a7037deb6e6","172.58.14.130","Mozilla/5.0 (Windows NT 10.0; Win64; x64) AppleWebKit/537.36 (KHTML, like Gecko) Chrome/132.0.0.0 Safari/537.36","WebKit","Chrome","132.0.0.0","Windows","10.0","https://app.prolific.com/","en-US,en;q=0.9,es;q=0.8","63316daa57747115376760da","67949641171f97c04e14fb34","679c24f47cd1399e084c7da2","","437","","1","Intro Trial",""
"","","","","","html-button-response","39","84104","0.0-4.35-0.35-0.35","63","1","2025-01-31 01:19:05","af8d355d56820e421d246a7037deb6e6","172.58.14.130","Mozilla/5.0 (Windows NT 10.0; Win64; x64) AppleWebKit/537.36 (KHTML, like Gecko) Chrome/132.0.0.0 Safari/537.36","WebKit","Chrome","132.0.0.0","Windows","10.0","https://app.prolific.com/","en-US,en;q=0.9,es;q=0.8","63316daa57747115376760da","67949641171f97c04e14fb34","679c24f47cd1399e084c7da2","","460","","2","Intro Trial",""
"","","","","","html-button-response","40","84629","0.0-4.36-0.36-0.36","63","1","2025-01-31 01:19:05","af8d355d56820e421d246a7037deb6e6","172.58.14.130","Mozilla/5.0 (Windows NT 10.0; Win64; x64) AppleWebKit/537.36 (KHTML, like Gecko) Chrome/132.0.0.0 Safari/537.36","WebKit","Chrome","132.0.0.0","Windows","10.0","https://app.prolific.com/","en-US,en;q=0.9,es;q=0.8","63316daa57747115376760da","67949641171f97c04e14fb34","679c24f47cd1399e084c7da2","","517","","2","Intro Trial",""
"","","","","","html-button-response","41","85078","0.0-4.37-0.37-0.37","63","1","2025-01-31 01:19:05","af8d355d56820e421d246a7037deb6e6","172.58.14.130","Mozilla/5.0 (Windows NT 10.0; Win64; x64) AppleWebKit/537.36 (KHTML, like Gecko) Chrome/132.0.0.0 Safari/537.36","WebKit","Chrome","132.0.0.0","Windows","10.0","https://app.prolific.com/","en-US,en;q=0.9,es;q=0.8","63316daa57747115376760da","67949641171f97c04e14fb34","679c24f47cd1399e084c7da2","","442","","3","Intro Trial",""
"","","","","","html-button-response","42","85464","0.0-4.38-0.38-0.38","63","1","2025-01-31 01:19:05","af8d355d56820e421d246a7037deb6e6","172.58.14.130","Mozilla/5.0 (Windows NT 10.0; Win64; x64) AppleWebKit/537.36 (KHTML, like Gecko) Chrome/132.0.0.0 Safari/537.36","WebKit","Chrome","132.0.0.0","Windows","10.0","https://app.prolific.com/","en-US,en;q=0.9,es;q=0.8","63316daa57747115376760da","67949641171f97c04e14fb34","679c24f47cd1399e084c7da2","","377","","3","Intro Trial",""
"","","","","","html-button-response","43","85870","0.0-4.39-0.39-0.39","63","1","2025-01-31 01:19:05","af8d355d56820e421d246a7037deb6e6","172.58.14.130","Mozilla/5.0 (Windows NT 10.0; Win64; x64) AppleWebKit/537.36 (KHTML, like Gecko) Chrome/132.0.0.0 Safari/537.36","WebKit","Chrome","132.0.0.0","Windows","10.0","https://app.prolific.com/","en-US,en;q=0.9,es;q=0.8","63316daa57747115376760da","67949641171f97c04e14fb34","679c24f47cd1399e084c7da2","","400","","4","Intro Trial",""
"","","","","","html-button-response","44","86654","0.0-4.40-0.40-0.40","63","1","2025-01-31 01:19:05","af8d355d56820e421d246a7037deb6e6","172.58.14.130","Mozilla/5.0 (Windows NT 10.0; Win64; x64) AppleWebKit/537.36 (KHTML, like Gecko) Chrome/132.0.0.0 Safari/537.36","WebKit","Chrome","132.0.0.0","Windows","10.0","https://app.prolific.com/","en-US,en;q=0.9,es;q=0.8","63316daa57747115376760da","67949641171f97c04e14fb34","679c24f47cd1399e084c7da2","","775","","5","Intro Trial",""
"","","","","","html-keyboard-response","45","96171","0.0-5.0","63","1","2025-01-31 01:19:05","af8d355d56820e421d246a7037deb6e6","172.58.14.130","Mozilla/5.0 (Windows NT 10.0; Win64; x64) AppleWebKit/537.36 (KHTML, like Gecko) Chrome/132.0.0.0 Safari/537.36","WebKit","Chrome","132.0.0.0","Windows","10.0","https://app.prolific.com/","en-US,en;q=0.9,es;q=0.8","63316daa57747115376760da","67949641171f97c04e14fb34","679c24f47cd1399e084c7da2","","9509","[""You sorted correctly by using the balance 20 times. <br><br> <img src='G_5.jpg' height='90'><img src='G_2.jpg' height='90'><img src='G_3.jpg' height='90'><img src='G_1.jpg' height='90'><img src='G_4.jpg' height='90'><br><br> Your final order is 1,2,3,4,5<br><br><br>Omgne Sort in this game will allow you to sort correctly by using the balance 8 times. Press Enter to learn it!""]","enter","",""
"","","","","","html-keyboard-response","46","104544","0.0-6.0","63","1","2025-01-31 01:19:05","af8d355d56820e421d246a7037deb6e6","172.58.14.130","Mozilla/5.0 (Windows NT 10.0; Win64; x64) AppleWebKit/537.36 (KHTML, like Gecko) Chrome/132.0.0.0 Safari/537.36","WebKit","Chrome","132.0.0.0","Windows","10.0","https://app.prolific.com/","en-US,en;q=0.9,es;q=0.8","63316daa57747115376760da","67949641171f97c04e14fb34","679c24f47cd1399e084c7da2","","8368","<p>Welcome to the learning phase! <br><br> You will learn by six examples. The following learning trials will not be used to calculate your performance. <br><br> Press Enter to continue.<p/>"," ","",""
"","","","","","html-keyboard-response","47","125280","0.0-7.0","63","1","2025-01-31 01:19:05","af8d355d56820e421d246a7037deb6e6","172.58.14.130","Mozilla/5.0 (Windows NT 10.0; Win64; x64) AppleWebKit/537.36 (KHTML, like Gecko) Chrome/132.0.0.0 Safari/537.36","WebKit","Chrome","132.0.0.0","Windows","10.0","https://app.prolific.com/","en-US,en;q=0.9,es;q=0.8","63316daa57747115376760da","67949641171f97c04e14fb34","679c24f47cd1399e084c7da2","","20732","[""Example 1<br><br>You will watch Omnge Sort in action. Try to identify any patterns in the comparisons made by this method. <br><br>Press Enter to continue.""]","enter","",""
"","","","","","html-keyboard-response","48","125786","0.0-8.0","63","1","2025-01-31 01:19:05","af8d355d56820e421d246a7037deb6e6","172.58.14.130","Mozilla/5.0 (Windows NT 10.0; Win64; x64) AppleWebKit/537.36 (KHTML, like Gecko) Chrome/132.0.0.0 Safari/537.36","WebKit","Chrome","132.0.0.0","Windows","10.0","https://app.prolific.com/","en-US,en;q=0.9,es;q=0.8","63316daa57747115376760da","67949641171f97c04e14fb34","679c24f47cd1399e084c7da2","","null","<img id='selected' src='G_9.jpg' height='90'> <img src='G_1.jpg' height='90'> <img src='G_7.jpg' height='90'> <img src='G_3.jpg' height='90'> <img src='G_5.jpg' height='90'>","null","Animation0",""
"","","","","","html-keyboard-response","49","126305","0.0-9.0","63","1","2025-01-31 01:19:05","af8d355d56820e421d246a7037deb6e6","172.58.14.130","Mozilla/5.0 (Windows NT 10.0; Win64; x64) AppleWebKit/537.36 (KHTML, like Gecko) Chrome/132.0.0.0 Safari/537.36","WebKit","Chrome","132.0.0.0","Windows","10.0","https://app.prolific.com/","en-US,en;q=0.9,es;q=0.8","63316daa57747115376760da","67949641171f97c04e14fb34","679c24f47cd1399e084c7da2","","null","<img id='selected' src='G_9.jpg' height='90'> <img id='selected' src='G_1.jpg' height='90'> <img src='G_7.jpg' height='90'> <img src='G_3.jpg' height='90'> <img src='G_5.jpg' height='90'>","null","Animation0",""
"","","","","","html-keyboard-response","50","126824","0.0-10.0","63","1","2025-01-31 01:19:05","af8d355d56820e421d246a7037deb6e6","172.58.14.130","Mozilla/5.0 (Windows NT 10.0; Win64; x64) AppleWebKit/537.36 (KHTML, like Gecko) Chrome/132.0.0.0 Safari/537.36","WebKit","Chrome","132.0.0.0","Windows","10.0","https://app.prolific.com/","en-US,en;q=0.9,es;q=0.8","63316daa57747115376760da","67949641171f97c04e14fb34","679c24f47cd1399e084c7da2","","null","<img id='swapped' src='G_1.jpg' height='90'> <img id='swapped' src='G_9.jpg' height='90'> <img src='G_7.jpg' height='90'> <img src='G_3.jpg' height='90'> <img src='G_5.jpg' height='90'>","null","Animation0",""
"","","","","","html-keyboard-response","51","127138","0.0-11.0","63","1","2025-01-31 01:19:05","af8d355d56820e421d246a7037deb6e6","172.58.14.130","Mozilla/5.0 (Windows NT 10.0; Win64; x64) AppleWebKit/537.36 (KHTML, like Gecko) Chrome/132.0.0.0 Safari/537.36","WebKit","Chrome","132.0.0.0","Windows","10.0","https://app.prolific.com/","en-US,en;q=0.9,es;q=0.8","63316daa57747115376760da","67949641171f97c04e14fb34","679c24f47cd1399e084c7da2","","null","<img  src='G_1.jpg' height='90'> <img  src='G_9.jpg' height='90'> <img src='G_7.jpg' height='90'> <img src='G_3.jpg' height='90'> <img src='G_5.jpg' height='90'>","null","Animation0",""
"","","","","","html-keyboard-response","52","127656","0.0-12.0","63","1","2025-01-31 01:19:05","af8d355d56820e421d246a7037deb6e6","172.58.14.130","Mozilla/5.0 (Windows NT 10.0; Win64; x64) AppleWebKit/537.36 (KHTML, like Gecko) Chrome/132.0.0.0 Safari/537.36","WebKit","Chrome","132.0.0.0","Windows","10.0","https://app.prolific.com/","en-US,en;q=0.9,es;q=0.8","63316daa57747115376760da","67949641171f97c04e14fb34","679c24f47cd1399e084c7da2","","null","<img  src='G_1.jpg' height='90'> <img id='selected'  src='G_9.jpg' height='90'> <img src='G_7.jpg' height='90'> <img src='G_3.jpg' height='90'> <img src='G_5.jpg' height='90'>","null","Animation0",""
"","","","","","html-keyboard-response","53","128176","0.0-13.0","63","1","2025-01-31 01:19:05","af8d355d56820e421d246a7037deb6e6","172.58.14.130","Mozilla/5.0 (Windows NT 10.0; Win64; x64) AppleWebKit/537.36 (KHTML, like Gecko) Chrome/132.0.0.0 Safari/537.36","WebKit","Chrome","132.0.0.0","Windows","10.0","https://app.prolific.com/","en-US,en;q=0.9,es;q=0.8","63316daa57747115376760da","67949641171f97c04e14fb34","679c24f47cd1399e084c7da2","","null","<img  src='G_1.jpg' height='90'> <img id='selected'  src='G_9.jpg' height='90'> <img id='selected' src='G_7.jpg' height='90'> <img src='G_3.jpg' height='90'> <img src='G_5.jpg' height='90'>","null","Animation0",""
"","","","","","html-keyboard-response","54","128692","0.0-14.0","63","1","2025-01-31 01:19:05","af8d355d56820e421d246a7037deb6e6","172.58.14.130","Mozilla/5.0 (Windows NT 10.0; Win64; x64) AppleWebKit/537.36 (KHTML, like Gecko) Chrome/132.0.0.0 Safari/537.36","WebKit","Chrome","132.0.0.0","Windows","10.0","https://app.prolific.com/","en-US,en;q=0.9,es;q=0.8","63316daa57747115376760da","67949641171f97c04e14fb34","679c24f47cd1399e084c7da2","","null","<img  src='G_1.jpg' height='90'> <img id='selected'  src='G_9.jpg' height='90'> <img id='selected' src='G_7.jpg' height='90'> <img src='G_3.jpg' height='90'> <img src='G_5.jpg' height='90'>","null","Animation0",""
"","","","","","html-keyboard-response","55","129008","0.0-15.0","63","1","2025-01-31 01:19:05","af8d355d56820e421d246a7037deb6e6","172.58.14.130","Mozilla/5.0 (Windows NT 10.0; Win64; x64) AppleWebKit/537.36 (KHTML, like Gecko) Chrome/132.0.0.0 Safari/537.36","WebKit","Chrome","132.0.0.0","Windows","10.0","https://app.prolific.com/","en-US,en;q=0.9,es;q=0.8","63316daa57747115376760da","67949641171f97c04e14fb34","679c24f47cd1399e084c7da2","","null","<img  src='G_1.jpg' height='90'> <img   src='G_9.jpg' height='90'> <img  src='G_7.jpg' height='90'> <img src='G_3.jpg' height='90'> <img src='G_5.jpg' height='90'>","null","Animation0",""
"","","","","","html-keyboard-response","56","129524","0.0-16.0","63","1","2025-01-31 01:19:05","af8d355d56820e421d246a7037deb6e6","172.58.14.130","Mozilla/5.0 (Windows NT 10.0; Win64; x64) AppleWebKit/537.36 (KHTML, like Gecko) Chrome/132.0.0.0 Safari/537.36","WebKit","Chrome","132.0.0.0","Windows","10.0","https://app.prolific.com/","en-US,en;q=0.9,es;q=0.8","63316daa57747115376760da","67949641171f97c04e14fb34","679c24f47cd1399e084c7da2","","null","<img  src='G_1.jpg' height='90'> <img   src='G_9.jpg' height='90'> <img id='selected'  src='G_7.jpg' height='90'> <img src='G_3.jpg' height='90'> <img src='G_5.jpg' height='90'>","null","Animation0",""
"","","","","","html-keyboard-response","57","130040","0.0-17.0","63","1","2025-01-31 01:19:05","af8d355d56820e421d246a7037deb6e6","172.58.14.130","Mozilla/5.0 (Windows NT 10.0; Win64; x64) AppleWebKit/537.36 (KHTML, like Gecko) Chrome/132.0.0.0 Safari/537.36","WebKit","Chrome","132.0.0.0","Windows","10.0","https://app.prolific.com/","en-US,en;q=0.9,es;q=0.8","63316daa57747115376760da","67949641171f97c04e14fb34","679c24f47cd1399e084c7da2","","null","<img  src='G_1.jpg' height='90'> <img   src='G_9.jpg' height='90'> <img id='selected'  src='G_7.jpg' height='90'> <img id='selected' src='G_3.jpg' height='90'> <img src='G_5.jpg' height='90'>","null","Animation0",""
"","","","","","html-keyboard-response","58","130555","0.0-18.0","63","1","2025-01-31 01:19:05","af8d355d56820e421d246a7037deb6e6","172.58.14.130","Mozilla/5.0 (Windows NT 10.0; Win64; x64) AppleWebKit/537.36 (KHTML, like Gecko) Chrome/132.0.0.0 Safari/537.36","WebKit","Chrome","132.0.0.0","Windows","10.0","https://app.prolific.com/","en-US,en;q=0.9,es;q=0.8","63316daa57747115376760da","67949641171f97c04e14fb34","679c24f47cd1399e084c7da2","","null","<img  src='G_1.jpg' height='90'> <img   src='G_9.jpg' height='90'> <img id='selected'  src='G_7.jpg' height='90'> <img id='selected' src='G_3.jpg' height='90'> <img src='G_5.jpg' height='90'>","null","Animation0",""
"","","","","","html-keyboard-response","59","130871","0.0-19.0","63","1","2025-01-31 01:19:05","af8d355d56820e421d246a7037deb6e6","172.58.14.130","Mozilla/5.0 (Windows NT 10.0; Win64; x64) AppleWebKit/537.36 (KHTML, like Gecko) Chrome/132.0.0.0 Safari/537.36","WebKit","Chrome","132.0.0.0","Windows","10.0","https://app.prolific.com/","en-US,en;q=0.9,es;q=0.8","63316daa57747115376760da","67949641171f97c04e14fb34","679c24f47cd1399e084c7da2","","null","<img  src='G_1.jpg' height='90'> <img   src='G_9.jpg' height='90'> <img   src='G_7.jpg' height='90'> <img  src='G_3.jpg' height='90'> <img src='G_5.jpg' height='90'>","null","Animation0",""
"","","","","","html-keyboard-response","60","131389","0.0-20.0","63","1","2025-01-31 01:19:05","af8d355d56820e421d246a7037deb6e6","172.58.14.130","Mozilla/5.0 (Windows NT 10.0; Win64; x64) AppleWebKit/537.36 (KHTML, like Gecko) Chrome/132.0.0.0 Safari/537.36","WebKit","Chrome","132.0.0.0","Windows","10.0","https://app.prolific.com/","en-US,en;q=0.9,es;q=0.8","63316daa57747115376760da","67949641171f97c04e14fb34","679c24f47cd1399e084c7da2","","null","<img  src='G_1.jpg' height='90'> <img   src='G_9.jpg' height='90'> <img   src='G_7.jpg' height='90'> <img id='selected'  src='G_3.jpg' height='90'> <img src='G_5.jpg' height='90'>","null","Animation0",""
"","","","","","html-keyboard-response","61","131909","0.0-21.0","63","1","2025-01-31 01:19:05","af8d355d56820e421d246a7037deb6e6","172.58.14.130","Mozilla/5.0 (Windows NT 10.0; Win64; x64) AppleWebKit/537.36 (KHTML, like Gecko) Chrome/132.0.0.0 Safari/537.36","WebKit","Chrome","132.0.0.0","Windows","10.0","https://app.prolific.com/","en-US,en;q=0.9,es;q=0.8","63316daa57747115376760da","67949641171f97c04e14fb34","679c24f47cd1399e084c7da2","","null","<img  src='G_1.jpg' height='90'> <img   src='G_9.jpg' height='90'> <img   src='G_7.jpg' height='90'> <img id='selected'  src='G_3.jpg' height='90'> <img id='selected' src='G_5.jpg' height='90'>","null","Animation0",""
"","","","","","html-keyboard-response","62","132429","0.0-22.0","63","1","2025-01-31 01:19:05","af8d355d56820e421d246a7037deb6e6","172.58.14.130","Mozilla/5.0 (Windows NT 10.0; Win64; x64) AppleWebKit/537.36 (KHTML, like Gecko) Chrome/132.0.0.0 Safari/537.36","WebKit","Chrome","132.0.0.0","Windows","10.0","https://app.prolific.com/","en-US,en;q=0.9,es;q=0.8","63316daa57747115376760da","67949641171f97c04e14fb34","679c24f47cd1399e084c7da2","","null","<img  src='G_1.jpg' height='90'> <img   src='G_9.jpg' height='90'> <img   src='G_7.jpg' height='90'> <img id='selected'  src='G_3.jpg' height='90'> <img id='selected' src='G_5.jpg' height='90'>","null","Animation0",""
"","","","","","html-keyboard-response","63","132745","0.0-23.0","63","1","2025-01-31 01:19:05","af8d355d56820e421d246a7037deb6e6","172.58.14.130","Mozilla/5.0 (Windows NT 10.0; Win64; x64) AppleWebKit/537.36 (KHTML, like Gecko) Chrome/132.0.0.0 Safari/537.36","WebKit","Chrome","132.0.0.0","Windows","10.0","https://app.prolific.com/","en-US,en;q=0.9,es;q=0.8","63316daa57747115376760da","67949641171f97c04e14fb34","679c24f47cd1399e084c7da2","","null","<img  src='G_1.jpg' height='90'> <img   src='G_9.jpg' height='90'> <img   src='G_7.jpg' height='90'> <img   src='G_3.jpg' height='90'> <img  src='G_5.jpg' height='90'>","null","Animation0",""
"","","","","","html-keyboard-response","64","136889","0.0-24.0","63","1","2025-01-31 01:19:05","af8d355d56820e421d246a7037deb6e6","172.58.14.130","Mozilla/5.0 (Windows NT 10.0; Win64; x64) AppleWebKit/537.36 (KHTML, like Gecko) Chrome/132.0.0.0 Safari/537.36","WebKit","Chrome","132.0.0.0","Windows","10.0","https://app.prolific.com/","en-US,en;q=0.9,es;q=0.8","63316daa57747115376760da","67949641171f97c04e14fb34","679c24f47cd1399e084c7da2","","4137","[""Did you notice any patterns? <br><br>Press Enter to watch that example again and follow the steps of Omgne Sort.""]","enter","",""
"","","","","","html-button-response","65","137313","0.0-25.0","63","1","2025-01-31 01:19:05","af8d355d56820e421d246a7037deb6e6","172.58.14.130","Mozilla/5.0 (Windows NT 10.0; Win64; x64) AppleWebKit/537.36 (KHTML, like Gecko) Chrome/132.0.0.0 Safari/537.36","WebKit","Chrome","132.0.0.0","Windows","10.0","https://app.prolific.com/","en-US,en;q=0.9,es;q=0.8","63316daa57747115376760da","67949641171f97c04e14fb34","679c24f47cd1399e084c7da2","","null","<img id='selected' src='G_9.jpg' height='90'> <img src='G_1.jpg' height='90'> <img src='G_7.jpg' height='90'> <img src='G_3.jpg' height='90'> <img src='G_5.jpg' height='90'>","null","Learning example 0",""
"","","","","","html-button-response","66","137625","0.0-26.0","63","1","2025-01-31 01:19:05","af8d355d56820e421d246a7037deb6e6","172.58.14.130","Mozilla/5.0 (Windows NT 10.0; Win64; x64) AppleWebKit/537.36 (KHTML, like Gecko) Chrome/132.0.0.0 Safari/537.36","WebKit","Chrome","132.0.0.0","Windows","10.0","https://app.prolific.com/","en-US,en;q=0.9,es;q=0.8","63316daa57747115376760da","67949641171f97c04e14fb34","679c24f47cd1399e084c7da2","","null","<img id='selected' src='G_9.jpg' height='90'> <img id='selected' src='G_1.jpg' height='90'> <img src='G_7.jpg' height='90'> <img src='G_3.jpg' height='90'> <img src='G_5.jpg' height='90'>","null","Learning example 0",""
"","","","","","html-button-response","67","137939","0.0-27.0","63","1","2025-01-31 01:19:05","af8d355d56820e421d246a7037deb6e6","172.58.14.130","Mozilla/5.0 (Windows NT 10.0; Win64; x64) AppleWebKit/537.36 (KHTML, like Gecko) Chrome/132.0.0.0 Safari/537.36","WebKit","Chrome","132.0.0.0","Windows","10.0","https://app.prolific.com/","en-US,en;q=0.9,es;q=0.8","63316daa57747115376760da","67949641171f97c04e14fb34","679c24f47cd1399e084c7da2","","null","<img id='swapped' src='G_1.jpg' height='90'> <img id='swapped' src='G_9.jpg' height='90'> <img src='G_7.jpg' height='90'> <img src='G_3.jpg' height='90'> <img src='G_5.jpg' height='90'>","null","Learning example 0",""
"","","","","","html-button-response","68","146230","0.0-28.0-0.0-0.0","63","1","2025-01-31 01:19:05","af8d355d56820e421d246a7037deb6e6","172.58.14.130","Mozilla/5.0 (Windows NT 10.0; Win64; x64) AppleWebKit/537.36 (KHTML, like Gecko) Chrome/132.0.0.0 Safari/537.36","WebKit","Chrome","132.0.0.0","Windows","10.0","https://app.prolific.com/","en-US,en;q=0.9,es;q=0.8","63316daa57747115376760da","67949641171f97c04e14fb34","679c24f47cd1399e084c7da2","","8278","<img id='swapped' src='G_1.jpg' height='90'> <img id='swapped' src='G_9.jpg' height='90'> <img src='G_7.jpg' height='90'> <img src='G_3.jpg' height='90'> <img src='G_5.jpg' height='90'>","0","Learning example 0",""
"","","","","","html-button-response","69","146822","0.0-28.1-0.1-0.1","63","1","2025-01-31 01:19:05","af8d355d56820e421d246a7037deb6e6","172.58.14.130","Mozilla/5.0 (Windows NT 10.0; Win64; x64) AppleWebKit/537.36 (KHTML, like Gecko) Chrome/132.0.0.0 Safari/537.36","WebKit","Chrome","132.0.0.0","Windows","10.0","https://app.prolific.com/","en-US,en;q=0.9,es;q=0.8","63316daa57747115376760da","67949641171f97c04e14fb34","679c24f47cd1399e084c7da2","","584","<img id='swapped' src='G_1.jpg' height='90'> <img id='swapped' src='G_9.jpg' height='90'> <img src='G_7.jpg' height='90'> <img src='G_3.jpg' height='90'> <img src='G_5.jpg' height='90'>","1","Learning example 0",""
"","","","","","html-button-response","70","147036","0.0-29.0","63","1","2025-01-31 01:19:05","af8d355d56820e421d246a7037deb6e6","172.58.14.130","Mozilla/5.0 (Windows NT 10.0; Win64; x64) AppleWebKit/537.36 (KHTML, like Gecko) Chrome/132.0.0.0 Safari/537.36","WebKit","Chrome","132.0.0.0","Windows","10.0","https://app.prolific.com/","en-US,en;q=0.9,es;q=0.8","63316daa57747115376760da","67949641171f97c04e14fb34","679c24f47cd1399e084c7da2","","null","<img  src='G_1.jpg' height='90'> <img  src='G_9.jpg' height='90'> <img src='G_7.jpg' height='90'> <img src='G_3.jpg' height='90'> <img src='G_5.jpg' height='90'>","null","Learning example 0",""
"","","","","","html-button-response","71","147446","0.0-30.0","63","1","2025-01-31 01:19:05","af8d355d56820e421d246a7037deb6e6","172.58.14.130","Mozilla/5.0 (Windows NT 10.0; Win64; x64) AppleWebKit/537.36 (KHTML, like Gecko) Chrome/132.0.0.0 Safari/537.36","WebKit","Chrome","132.0.0.0","Windows","10.0","https://app.prolific.com/","en-US,en;q=0.9,es;q=0.8","63316daa57747115376760da","67949641171f97c04e14fb34","679c24f47cd1399e084c7da2","","null","<img  src='G_1.jpg' height='90'> <img id='selected'  src='G_9.jpg' height='90'> <img src='G_7.jpg' height='90'> <img src='G_3.jpg' height='90'> <img src='G_5.jpg' height='90'>","null","Learning example 0",""
"","","","","","html-button-response","72","147758","0.0-31.0","63","1","2025-01-31 01:19:05","af8d355d56820e421d246a7037deb6e6","172.58.14.130","Mozilla/5.0 (Windows NT 10.0; Win64; x64) AppleWebKit/537.36 (KHTML, like Gecko) Chrome/132.0.0.0 Safari/537.36","WebKit","Chrome","132.0.0.0","Windows","10.0","https://app.prolific.com/","en-US,en;q=0.9,es;q=0.8","63316daa57747115376760da","67949641171f97c04e14fb34","679c24f47cd1399e084c7da2","","null","<img  src='G_1.jpg' height='90'> <img id='selected'  src='G_9.jpg' height='90'> <img id='selected' src='G_7.jpg' height='90'> <img src='G_3.jpg' height='90'> <img src='G_5.jpg' height='90'>","null","Learning example 0",""
"","","","","","html-button-response","73","148071","0.0-32.0","63","1","2025-01-31 01:19:05","af8d355d56820e421d246a7037deb6e6","172.58.14.130","Mozilla/5.0 (Windows NT 10.0; Win64; x64) AppleWebKit/537.36 (KHTML, like Gecko) Chrome/132.0.0.0 Safari/537.36","WebKit","Chrome","132.0.0.0","Windows","10.0","https://app.prolific.com/","en-US,en;q=0.9,es;q=0.8","63316daa57747115376760da","67949641171f97c04e14fb34","679c24f47cd1399e084c7da2","","null","<img  src='G_1.jpg' height='90'> <img id='selected'  src='G_9.jpg' height='90'> <img id='selected' src='G_7.jpg' height='90'> <img src='G_3.jpg' height='90'> <img src='G_5.jpg' height='90'>","null","Learning example 0",""
"","","","","","html-button-response","74","149357","0.0-33.0-0.0-0.0","63","1","2025-01-31 01:19:05","af8d355d56820e421d246a7037deb6e6","172.58.14.130","Mozilla/5.0 (Windows NT 10.0; Win64; x64) AppleWebKit/537.36 (KHTML, like Gecko) Chrome/132.0.0.0 Safari/537.36","WebKit","Chrome","132.0.0.0","Windows","10.0","https://app.prolific.com/","en-US,en;q=0.9,es;q=0.8","63316daa57747115376760da","67949641171f97c04e14fb34","679c24f47cd1399e084c7da2","","1277","<img  src='G_1.jpg' height='90'> <img id='selected'  src='G_9.jpg' height='90'> <img id='selected' src='G_7.jpg' height='90'> <img src='G_3.jpg' height='90'> <img src='G_5.jpg' height='90'>","1","Learning example 0",""
"","","","","","html-button-response","75","149941","0.0-33.1-0.1-0.1","63","1","2025-01-31 01:19:05","af8d355d56820e421d246a7037deb6e6","172.58.14.130","Mozilla/5.0 (Windows NT 10.0; Win64; x64) AppleWebKit/537.36 (KHTML, like Gecko) Chrome/132.0.0.0 Safari/537.36","WebKit","Chrome","132.0.0.0","Windows","10.0","https://app.prolific.com/","en-US,en;q=0.9,es;q=0.8","63316daa57747115376760da","67949641171f97c04e14fb34","679c24f47cd1399e084c7da2","","575","<img  src='G_1.jpg' height='90'> <img id='selected'  src='G_9.jpg' height='90'> <img id='selected' src='G_7.jpg' height='90'> <img src='G_3.jpg' height='90'> <img src='G_5.jpg' height='90'>","2","Learning example 0",""
"","","","","","html-button-response","76","150153","0.0-34.0","63","1","2025-01-31 01:19:05","af8d355d56820e421d246a7037deb6e6","172.58.14.130","Mozilla/5.0 (Windows NT 10.0; Win64; x64) AppleWebKit/537.36 (KHTML, like Gecko) Chrome/132.0.0.0 Safari/537.36","WebKit","Chrome","132.0.0.0","Windows","10.0","https://app.prolific.com/","en-US,en;q=0.9,es;q=0.8","63316daa57747115376760da","67949641171f97c04e14fb34","679c24f47cd1399e084c7da2","","null","<img  src='G_1.jpg' height='90'> <img   src='G_9.jpg' height='90'> <img  src='G_7.jpg' height='90'> <img src='G_3.jpg' height='90'> <img src='G_5.jpg' height='90'>","null","Learning example 0",""
"","","","","","html-button-response","77","150576","0.0-35.0","63","1","2025-01-31 01:19:05","af8d355d56820e421d246a7037deb6e6","172.58.14.130","Mozilla/5.0 (Windows NT 10.0; Win64; x64) AppleWebKit/537.36 (KHTML, like Gecko) Chrome/132.0.0.0 Safari/537.36","WebKit","Chrome","132.0.0.0","Windows","10.0","https://app.prolific.com/","en-US,en;q=0.9,es;q=0.8","63316daa57747115376760da","67949641171f97c04e14fb34","679c24f47cd1399e084c7da2","","null","<img  src='G_1.jpg' height='90'> <img   src='G_9.jpg' height='90'> <img id='selected'  src='G_7.jpg' height='90'> <img src='G_3.jpg' height='90'> <img src='G_5.jpg' height='90'>","null","Learning example 0",""
"","","","","","html-button-response","78","150891","0.0-36.0","63","1","2025-01-31 01:19:05","af8d355d56820e421d246a7037deb6e6","172.58.14.130","Mozilla/5.0 (Windows NT 10.0; Win64; x64) AppleWebKit/537.36 (KHTML, like Gecko) Chrome/132.0.0.0 Safari/537.36","WebKit","Chrome","132.0.0.0","Windows","10.0","https://app.prolific.com/","en-US,en;q=0.9,es;q=0.8","63316daa57747115376760da","67949641171f97c04e14fb34","679c24f47cd1399e084c7da2","","null","<img  src='G_1.jpg' height='90'> <img   src='G_9.jpg' height='90'> <img id='selected'  src='G_7.jpg' height='90'> <img id='selected' src='G_3.jpg' height='90'> <img src='G_5.jpg' height='90'>","null","Learning example 0",""
"","","","","","html-button-response","79","151175","0.0-37.0","63","1","2025-01-31 01:19:05","af8d355d56820e421d246a7037deb6e6","172.58.14.130","Mozilla/5.0 (Windows NT 10.0; Win64; x64) AppleWebKit/537.36 (KHTML, like Gecko) Chrome/132.0.0.0 Safari/537.36","WebKit","Chrome","132.0.0.0","Windows","10.0","https://app.prolific.com/","en-US,en;q=0.9,es;q=0.8","63316daa57747115376760da","67949641171f97c04e14fb34","679c24f47cd1399e084c7da2","","276","<img  src='G_1.jpg' height='90'> <img   src='G_9.jpg' height='90'> <img id='selected'  src='G_7.jpg' height='90'> <img id='selected' src='G_3.jpg' height='90'> <img src='G_5.jpg' height='90'>","2","Learning example 0",""
"","","","","","html-button-response","80","151662","0.0-38.0-0.0-0.0","63","1","2025-01-31 01:19:05","af8d355d56820e421d246a7037deb6e6","172.58.14.130","Mozilla/5.0 (Windows NT 10.0; Win64; x64) AppleWebKit/537.36 (KHTML, like Gecko) Chrome/132.0.0.0 Safari/537.36","WebKit","Chrome","132.0.0.0","Windows","10.0","https://app.prolific.com/","en-US,en;q=0.9,es;q=0.8","63316daa57747115376760da","67949641171f97c04e14fb34","679c24f47cd1399e084c7da2","","478","<img  src='G_1.jpg' height='90'> <img   src='G_9.jpg' height='90'> <img id='selected'  src='G_7.jpg' height='90'> <img id='selected' src='G_3.jpg' height='90'> <img src='G_5.jpg' height='90'>","3","Learning example 0",""
"","","","","","html-button-response","81","151883","0.0-39.0","63","1","2025-01-31 01:19:05","af8d355d56820e421d246a7037deb6e6","172.58.14.130","Mozilla/5.0 (Windows NT 10.0; Win64; x64) AppleWebKit/537.36 (KHTML, like Gecko) Chrome/132.0.0.0 Safari/537.36","WebKit","Chrome","132.0.0.0","Windows","10.0","https://app.prolific.com/","en-US,en;q=0.9,es;q=0.8","63316daa57747115376760da","67949641171f97c04e14fb34","679c24f47cd1399e084c7da2","","null","<img  src='G_1.jpg' height='90'> <img   src='G_9.jpg' height='90'> <img   src='G_7.jpg' height='90'> <img  src='G_3.jpg' height='90'> <img src='G_5.jpg' height='90'>","null","Learning example 0",""
"","","","","","html-button-response","82","152290","0.0-40.0","63","1","2025-01-31 01:19:05","af8d355d56820e421d246a7037deb6e6","172.58.14.130","Mozilla/5.0 (Windows NT 10.0; Win64; x64) AppleWebKit/537.36 (KHTML, like Gecko) Chrome/132.0.0.0 Safari/537.36","WebKit","Chrome","132.0.0.0","Windows","10.0","https://app.prolific.com/","en-US,en;q=0.9,es;q=0.8","63316daa57747115376760da","67949641171f97c04e14fb34","679c24f47cd1399e084c7da2","","null","<img  src='G_1.jpg' height='90'> <img   src='G_9.jpg' height='90'> <img   src='G_7.jpg' height='90'> <img id='selected'  src='G_3.jpg' height='90'> <img src='G_5.jpg' height='90'>","null","Learning example 0",""
"","","","","","html-button-response","83","152602","0.0-41.0","63","1","2025-01-31 01:19:05","af8d355d56820e421d246a7037deb6e6","172.58.14.130","Mozilla/5.0 (Windows NT 10.0; Win64; x64) AppleWebKit/537.36 (KHTML, like Gecko) Chrome/132.0.0.0 Safari/537.36","WebKit","Chrome","132.0.0.0","Windows","10.0","https://app.prolific.com/","en-US,en;q=0.9,es;q=0.8","63316daa57747115376760da","67949641171f97c04e14fb34","679c24f47cd1399e084c7da2","","null","<img  src='G_1.jpg' height='90'> <img   src='G_9.jpg' height='90'> <img   src='G_7.jpg' height='90'> <img id='selected'  src='G_3.jpg' height='90'> <img id='selected' src='G_5.jpg' height='90'>","null","Learning example 0",""
"","","","","","html-button-response","84","152909","0.0-42.0","63","1","2025-01-31 01:19:05","af8d355d56820e421d246a7037deb6e6","172.58.14.130","Mozilla/5.0 (Windows NT 10.0; Win64; x64) AppleWebKit/537.36 (KHTML, like Gecko) Chrome/132.0.0.0 Safari/537.36","WebKit","Chrome","132.0.0.0","Windows","10.0","https://app.prolific.com/","en-US,en;q=0.9,es;q=0.8","63316daa57747115376760da","67949641171f97c04e14fb34","679c24f47cd1399e084c7da2","","null","<img  src='G_1.jpg' height='90'> <img   src='G_9.jpg' height='90'> <img   src='G_7.jpg' height='90'> <img id='selected'  src='G_3.jpg' height='90'> <img id='selected' src='G_5.jpg' height='90'>","null","Learning example 0",""
"","","","","","html-button-response","85","153117","0.0-43.0-0.0-0.0","63","1","2025-01-31 01:19:05","af8d355d56820e421d246a7037deb6e6","172.58.14.130","Mozilla/5.0 (Windows NT 10.0; Win64; x64) AppleWebKit/537.36 (KHTML, like Gecko) Chrome/132.0.0.0 Safari/537.36","WebKit","Chrome","132.0.0.0","Windows","10.0","https://app.prolific.com/","en-US,en;q=0.9,es;q=0.8","63316daa57747115376760da","67949641171f97c04e14fb34","679c24f47cd1399e084c7da2","","198","<img  src='G_1.jpg' height='90'> <img   src='G_9.jpg' height='90'> <img   src='G_7.jpg' height='90'> <img id='selected'  src='G_3.jpg' height='90'> <img id='selected' src='G_5.jpg' height='90'>","3","Learning example 0",""
"","","","","","html-button-response","86","153557","0.0-43.1-0.1-0.1","63","1","2025-01-31 01:19:05","af8d355d56820e421d246a7037deb6e6","172.58.14.130","Mozilla/5.0 (Windows NT 10.0; Win64; x64) AppleWebKit/537.36 (KHTML, like Gecko) Chrome/132.0.0.0 Safari/537.36","WebKit","Chrome","132.0.0.0","Windows","10.0","https://app.prolific.com/","en-US,en;q=0.9,es;q=0.8","63316daa57747115376760da","67949641171f97c04e14fb34","679c24f47cd1399e084c7da2","","431","<img  src='G_1.jpg' height='90'> <img   src='G_9.jpg' height='90'> <img   src='G_7.jpg' height='90'> <img id='selected'  src='G_3.jpg' height='90'> <img id='selected' src='G_5.jpg' height='90'>","4","Learning example 0",""
"","","","","","html-button-response","87","153767","0.0-44.0","63","1","2025-01-31 01:19:05","af8d355d56820e421d246a7037deb6e6","172.58.14.130","Mozilla/5.0 (Windows NT 10.0; Win64; x64) AppleWebKit/537.36 (KHTML, like Gecko) Chrome/132.0.0.0 Safari/537.36","WebKit","Chrome","132.0.0.0","Windows","10.0","https://app.prolific.com/","en-US,en;q=0.9,es;q=0.8","63316daa57747115376760da","67949641171f97c04e14fb34","679c24f47cd1399e084c7da2","","null","<img  src='G_1.jpg' height='90'> <img   src='G_9.jpg' height='90'> <img   src='G_7.jpg' height='90'> <img   src='G_3.jpg' height='90'> <img  src='G_5.jpg' height='90'>","null","Learning example 0",""
"","","","","","html-keyboard-response","88","175403","0.0-45.0","63","1","2025-01-31 01:19:05","af8d355d56820e421d246a7037deb6e6","172.58.14.130","Mozilla/5.0 (Windows NT 10.0; Win64; x64) AppleWebKit/537.36 (KHTML, like Gecko) Chrome/132.0.0.0 Safari/537.36","WebKit","Chrome","132.0.0.0","Windows","10.0","https://app.prolific.com/","en-US,en;q=0.9,es;q=0.8","63316daa57747115376760da","67949641171f97c04e14fb34","679c24f47cd1399e084c7da2","","21630","[""Final order was 1,2,3,4,5. The initial order was 2,1,3,4,5.<br>It took 1 swaps to sort it correctly with Omgne Sort. <br><br>Press Enter to continue.""]","enter","",""
"","","","","","html-keyboard-response","89","180223","0.0-46.0","63","1","2025-01-31 01:19:05","af8d355d56820e421d246a7037deb6e6","172.58.14.130","Mozilla/5.0 (Windows NT 10.0; Win64; x64) AppleWebKit/537.36 (KHTML, like Gecko) Chrome/132.0.0.0 Safari/537.36","WebKit","Chrome","132.0.0.0","Windows","10.0","https://app.prolific.com/","en-US,en;q=0.9,es;q=0.8","63316daa57747115376760da","67949641171f97c04e14fb34","679c24f47cd1399e084c7da2","","4813","[""Example 2<br><br>You will watch Omnge Sort in action. Try to identify any patterns in the comparisons made by this method. <br><br>Press Enter to continue.""]","enter","",""
"","","","","","html-keyboard-response","90","180734","0.0-47.0","63","1","2025-01-31 01:19:05","af8d355d56820e421d246a7037deb6e6","172.58.14.130","Mozilla/5.0 (Windows NT 10.0; Win64; x64) AppleWebKit/537.36 (KHTML, like Gecko) Chrome/132.0.0.0 Safari/537.36","WebKit","Chrome","132.0.0.0","Windows","10.0","https://app.prolific.com/","en-US,en;q=0.9,es;q=0.8","63316daa57747115376760da","67949641171f97c04e14fb34","679c24f47cd1399e084c7da2","","null","<img id='selected' src='G_3.jpg' height='90'> <img src='G_6.jpg' height='90'> <img src='G_2.jpg' height='90'> <img src='G_8.jpg' height='90'> <img src='G_5.jpg' height='90'> <img src='G_7.jpg' height='90'> <img src='G_1.jpg' height='90'> <img src='G_4.jpg' height='90'>","null","Animation1",""
"","","","","","html-keyboard-response","91","181255","0.0-48.0","63","1","2025-01-31 01:19:05","af8d355d56820e421d246a7037deb6e6","172.58.14.130","Mozilla/5.0 (Windows NT 10.0; Win64; x64) AppleWebKit/537.36 (KHTML, like Gecko) Chrome/132.0.0.0 Safari/537.36","WebKit","Chrome","132.0.0.0","Windows","10.0","https://app.prolific.com/","en-US,en;q=0.9,es;q=0.8","63316daa57747115376760da","67949641171f97c04e14fb34","679c24f47cd1399e084c7da2","","null","<img id='selected' src='G_3.jpg' height='90'> <img id='selected' src='G_6.jpg' height='90'> <img src='G_2.jpg' height='90'> <img src='G_8.jpg' height='90'> <img src='G_5.jpg' height='90'> <img src='G_7.jpg' height='90'> <img src='G_1.jpg' height='90'> <img src='G_4.jpg' height='90'>","null","Animation1",""
"","","","","","html-keyboard-response","92","181765","0.0-49.0","63","1","2025-01-31 01:19:05","af8d355d56820e421d246a7037deb6e6","172.58.14.130","Mozilla/5.0 (Windows NT 10.0; Win64; x64) AppleWebKit/537.36 (KHTML, like Gecko) Chrome/132.0.0.0 Safari/537.36","WebKit","Chrome","132.0.0.0","Windows","10.0","https://app.prolific.com/","en-US,en;q=0.9,es;q=0.8","63316daa57747115376760da","67949641171f97c04e14fb34","679c24f47cd1399e084c7da2","","null","<img id='selected' src='G_3.jpg' height='90'> <img id='selected' src='G_6.jpg' height='90'> <img src='G_2.jpg' height='90'> <img src='G_8.jpg' height='90'> <img src='G_5.jpg' height='90'> <img src='G_7.jpg' height='90'> <img src='G_1.jpg' height='90'> <img src='G_4.jpg' height='90'>","null","Animation1",""
"","","","","","html-keyboard-response","93","182075","0.0-50.0","63","1","2025-01-31 01:19:05","af8d355d56820e421d246a7037deb6e6","172.58.14.130","Mozilla/5.0 (Windows NT 10.0; Win64; x64) AppleWebKit/537.36 (KHTML, like Gecko) Chrome/132.0.0.0 Safari/537.36","WebKit","Chrome","132.0.0.0","Windows","10.0","https://app.prolific.com/","en-US,en;q=0.9,es;q=0.8","63316daa57747115376760da","67949641171f97c04e14fb34","679c24f47cd1399e084c7da2","","null","<img  src='G_3.jpg' height='90'> <img  src='G_6.jpg' height='90'> <img src='G_2.jpg' height='90'> <img src='G_8.jpg' height='90'> <img src='G_5.jpg' height='90'> <img src='G_7.jpg' height='90'> <img src='G_1.jpg' height='90'> <img src='G_4.jpg' height='90'>","null","Animation1",""
"","","","","","html-keyboard-response","94","182586","0.0-51.0","63","1","2025-01-31 01:19:05","af8d355d56820e421d246a7037deb6e6","172.58.14.130","Mozilla/5.0 (Windows NT 10.0; Win64; x64) AppleWebKit/537.36 (KHTML, like Gecko) Chrome/132.0.0.0 Safari/537.36","WebKit","Chrome","132.0.0.0","Windows","10.0","https://app.prolific.com/","en-US,en;q=0.9,es;q=0.8","63316daa57747115376760da","67949641171f97c04e14fb34","679c24f47cd1399e084c7da2","","null","<img  src='G_3.jpg' height='90'> <img id='selected'  src='G_6.jpg' height='90'> <img src='G_2.jpg' height='90'> <img src='G_8.jpg' height='90'> <img src='G_5.jpg' height='90'> <img src='G_7.jpg' height='90'> <img src='G_1.jpg' height='90'> <img src='G_4.jpg' height='90'>","null","Animation1",""
"","","","","","html-keyboard-response","95","183095","0.0-52.0","63","1","2025-01-31 01:19:05","af8d355d56820e421d246a7037deb6e6","172.58.14.130","Mozilla/5.0 (Windows NT 10.0; Win64; x64) AppleWebKit/537.36 (KHTML, like Gecko) Chrome/132.0.0.0 Safari/537.36","WebKit","Chrome","132.0.0.0","Windows","10.0","https://app.prolific.com/","en-US,en;q=0.9,es;q=0.8","63316daa57747115376760da","67949641171f97c04e14fb34","679c24f47cd1399e084c7da2","","null","<img  src='G_3.jpg' height='90'> <img id='selected'  src='G_6.jpg' height='90'> <img id='selected' src='G_2.jpg' height='90'> <img src='G_8.jpg' height='90'> <img src='G_5.jpg' height='90'> <img src='G_7.jpg' height='90'> <img src='G_1.jpg' height='90'> <img src='G_4.jpg' height='90'>","null","Animation1",""
"","","","","","html-keyboard-response","96","183605","0.0-53.0","63","1","2025-01-31 01:19:05","af8d355d56820e421d246a7037deb6e6","172.58.14.130","Mozilla/5.0 (Windows NT 10.0; Win64; x64) AppleWebKit/537.36 (KHTML, like Gecko) Chrome/132.0.0.0 Safari/537.36","WebKit","Chrome","132.0.0.0","Windows","10.0","https://app.prolific.com/","en-US,en;q=0.9,es;q=0.8","63316daa57747115376760da","67949641171f97c04e14fb34","679c24f47cd1399e084c7da2","","null","<img  src='G_3.jpg' height='90'> <img id='swapped' src='G_2.jpg' height='90'> <img id='swapped'  src='G_6.jpg' height='90'> <img src='G_8.jpg' height='90'> <img src='G_5.jpg' height='90'> <img src='G_7.jpg' height='90'> <img src='G_1.jpg' height='90'> <img src='G_4.jpg' height='90'>","null","Animation1",""
"","","","","","html-keyboard-response","97","183921","0.0-54.0","63","1","2025-01-31 01:19:05","af8d355d56820e421d246a7037deb6e6","172.58.14.130","Mozilla/5.0 (Windows NT 10.0; Win64; x64) AppleWebKit/537.36 (KHTML, like Gecko) Chrome/132.0.0.0 Safari/537.36","WebKit","Chrome","132.0.0.0","Windows","10.0","https://app.prolific.com/","en-US,en;q=0.9,es;q=0.8","63316daa57747115376760da","67949641171f97c04e14fb34","679c24f47cd1399e084c7da2","","null","<img  src='G_3.jpg' height='90'> <img  src='G_2.jpg' height='90'> <img   src='G_6.jpg' height='90'> <img src='G_8.jpg' height='90'> <img src='G_5.jpg' height='90'> <img src='G_7.jpg' height='90'> <img src='G_1.jpg' height='90'> <img src='G_4.jpg' height='90'>","null","Animation1",""
"","","","","","html-keyboard-response","98","184435","0.0-55.0","63","1","2025-01-31 01:19:05","af8d355d56820e421d246a7037deb6e6","172.58.14.130","Mozilla/5.0 (Windows NT 10.0; Win64; x64) AppleWebKit/537.36 (KHTML, like Gecko) Chrome/132.0.0.0 Safari/537.36","WebKit","Chrome","132.0.0.0","Windows","10.0","https://app.prolific.com/","en-US,en;q=0.9,es;q=0.8","63316daa57747115376760da","67949641171f97c04e14fb34","679c24f47cd1399e084c7da2","","null","<img id='selected'  src='G_3.jpg' height='90'> <img  src='G_2.jpg' height='90'> <img   src='G_6.jpg' height='90'> <img src='G_8.jpg' height='90'> <img src='G_5.jpg' height='90'> <img src='G_7.jpg' height='90'> <img src='G_1.jpg' height='90'> <img src='G_4.jpg' height='90'>","null","Animation1",""
"","","","","","html-keyboard-response","99","184952","0.0-56.0","63","1","2025-01-31 01:19:05","af8d355d56820e421d246a7037deb6e6","172.58.14.130","Mozilla/5.0 (Windows NT 10.0; Win64; x64) AppleWebKit/537.36 (KHTML, like Gecko) Chrome/132.0.0.0 Safari/537.36","WebKit","Chrome","132.0.0.0","Windows","10.0","https://app.prolific.com/","en-US,en;q=0.9,es;q=0.8","63316daa57747115376760da","67949641171f97c04e14fb34","679c24f47cd1399e084c7da2","","null","<img id='selected'  src='G_3.jpg' height='90'> <img id='selected'  src='G_2.jpg' height='90'> <img   src='G_6.jpg' height='90'> <img src='G_8.jpg' height='90'> <img src='G_5.jpg' height='90'> <img src='G_7.jpg' height='90'> <img src='G_1.jpg' height='90'> <img src='G_4.jpg' height='90'>","null","Animation1",""
"","","","","","html-keyboard-response","100","185471","0.0-57.0","63","1","2025-01-31 01:19:05","af8d355d56820e421d246a7037deb6e6","172.58.14.130","Mozilla/5.0 (Windows NT 10.0; Win64; x64) AppleWebKit/537.36 (KHTML, like Gecko) Chrome/132.0.0.0 Safari/537.36","WebKit","Chrome","132.0.0.0","Windows","10.0","https://app.prolific.com/","en-US,en;q=0.9,es;q=0.8","63316daa57747115376760da","67949641171f97c04e14fb34","679c24f47cd1399e084c7da2","","null","<img id='swapped'  src='G_2.jpg' height='90'> <img id='swapped'  src='G_3.jpg' height='90'> <img   src='G_6.jpg' height='90'> <img src='G_8.jpg' height='90'> <img src='G_5.jpg' height='90'> <img src='G_7.jpg' height='90'> <img src='G_1.jpg' height='90'> <img src='G_4.jpg' height='90'>","null","Animation1",""
"","","","","","html-keyboard-response","101","185796","0.0-58.0","63","1","2025-01-31 01:19:05","af8d355d56820e421d246a7037deb6e6","172.58.14.130","Mozilla/5.0 (Windows NT 10.0; Win64; x64) AppleWebKit/537.36 (KHTML, like Gecko) Chrome/132.0.0.0 Safari/537.36","WebKit","Chrome","132.0.0.0","Windows","10.0","https://app.prolific.com/","en-US,en;q=0.9,es;q=0.8","63316daa57747115376760da","67949641171f97c04e14fb34","679c24f47cd1399e084c7da2","","null","<img   src='G_2.jpg' height='90'> <img   src='G_3.jpg' height='90'> <img   src='G_6.jpg' height='90'> <img src='G_8.jpg' height='90'> <img src='G_5.jpg' height='90'> <img src='G_7.jpg' height='90'> <img src='G_1.jpg' height='90'> <img src='G_4.jpg' height='90'>","null","Animation1",""
"","","","","","html-keyboard-response","102","186317","0.0-59.0","63","1","2025-01-31 01:19:05","af8d355d56820e421d246a7037deb6e6","172.58.14.130","Mozilla/5.0 (Windows NT 10.0; Win64; x64) AppleWebKit/537.36 (KHTML, like Gecko) Chrome/132.0.0.0 Safari/537.36","WebKit","Chrome","132.0.0.0","Windows","10.0","https://app.prolific.com/","en-US,en;q=0.9,es;q=0.8","63316daa57747115376760da","67949641171f97c04e14fb34","679c24f47cd1399e084c7da2","","null","<img   src='G_2.jpg' height='90'> <img   src='G_3.jpg' height='90'> <img id='selected'   src='G_6.jpg' height='90'> <img src='G_8.jpg' height='90'> <img src='G_5.jpg' height='90'> <img src='G_7.jpg' height='90'> <img src='G_1.jpg' height='90'> <img src='G_4.jpg' height='90'>","null","Animation1",""
"","","","","","html-keyboard-response","103","186836","0.0-60.0","63","1","2025-01-31 01:19:05","af8d355d56820e421d246a7037deb6e6","172.58.14.130","Mozilla/5.0 (Windows NT 10.0; Win64; x64) AppleWebKit/537.36 (KHTML, like Gecko) Chrome/132.0.0.0 Safari/537.36","WebKit","Chrome","132.0.0.0","Windows","10.0","https://app.prolific.com/","en-US,en;q=0.9,es;q=0.8","63316daa57747115376760da","67949641171f97c04e14fb34","679c24f47cd1399e084c7da2","","null","<img   src='G_2.jpg' height='90'> <img   src='G_3.jpg' height='90'> <img id='selected'   src='G_6.jpg' height='90'> <img id='selected' src='G_8.jpg' height='90'> <img src='G_5.jpg' height='90'> <img src='G_7.jpg' height='90'> <img src='G_1.jpg' height='90'> <img src='G_4.jpg' height='90'>","null","Animation1",""
"","","","","","html-keyboard-response","104","187353","0.0-61.0","63","1","2025-01-31 01:19:05","af8d355d56820e421d246a7037deb6e6","172.58.14.130","Mozilla/5.0 (Windows NT 10.0; Win64; x64) AppleWebKit/537.36 (KHTML, like Gecko) Chrome/132.0.0.0 Safari/537.36","WebKit","Chrome","132.0.0.0","Windows","10.0","https://app.prolific.com/","en-US,en;q=0.9,es;q=0.8","63316daa57747115376760da","67949641171f97c04e14fb34","679c24f47cd1399e084c7da2","","null","<img   src='G_2.jpg' height='90'> <img   src='G_3.jpg' height='90'> <img id='swapped' src='G_8.jpg' height='90'> <img id='swapped'   src='G_6.jpg' height='90'> <img src='G_5.jpg' height='90'> <img src='G_7.jpg' height='90'> <img src='G_1.jpg' height='90'> <img src='G_4.jpg' height='90'>","null","Animation1",""
"","","","","","html-keyboard-response","105","187669","0.0-62.0","63","1","2025-01-31 01:19:05","af8d355d56820e421d246a7037deb6e6","172.58.14.130","Mozilla/5.0 (Windows NT 10.0; Win64; x64) AppleWebKit/537.36 (KHTML, like Gecko) Chrome/132.0.0.0 Safari/537.36","WebKit","Chrome","132.0.0.0","Windows","10.0","https://app.prolific.com/","en-US,en;q=0.9,es;q=0.8","63316daa57747115376760da","67949641171f97c04e14fb34","679c24f47cd1399e084c7da2","","null","<img   src='G_2.jpg' height='90'> <img   src='G_3.jpg' height='90'> <img  src='G_8.jpg' height='90'> <img    src='G_6.jpg' height='90'> <img src='G_5.jpg' height='90'> <img src='G_7.jpg' height='90'> <img src='G_1.jpg' height='90'> <img src='G_4.jpg' height='90'>","null","Animation1",""
"","","","","","html-keyboard-response","106","188189","0.0-63.0","63","1","2025-01-31 01:19:05","af8d355d56820e421d246a7037deb6e6","172.58.14.130","Mozilla/5.0 (Windows NT 10.0; Win64; x64) AppleWebKit/537.36 (KHTML, like Gecko) Chrome/132.0.0.0 Safari/537.36","WebKit","Chrome","132.0.0.0","Windows","10.0","https://app.prolific.com/","en-US,en;q=0.9,es;q=0.8","63316daa57747115376760da","67949641171f97c04e14fb34","679c24f47cd1399e084c7da2","","null","<img   src='G_2.jpg' height='90'> <img id='selected'   src='G_3.jpg' height='90'> <img  src='G_8.jpg' height='90'> <img    src='G_6.jpg' height='90'> <img src='G_5.jpg' height='90'> <img src='G_7.jpg' height='90'> <img src='G_1.jpg' height='90'> <img src='G_4.jpg' height='90'>","null","Animation1",""
"","","","","","html-keyboard-response","107","188705","0.0-64.0","63","1","2025-01-31 01:19:05","af8d355d56820e421d246a7037deb6e6","172.58.14.130","Mozilla/5.0 (Windows NT 10.0; Win64; x64) AppleWebKit/537.36 (KHTML, like Gecko) Chrome/132.0.0.0 Safari/537.36","WebKit","Chrome","132.0.0.0","Windows","10.0","https://app.prolific.com/","en-US,en;q=0.9,es;q=0.8","63316daa57747115376760da","67949641171f97c04e14fb34","679c24f47cd1399e084c7da2","","null","<img   src='G_2.jpg' height='90'> <img id='selected'   src='G_3.jpg' height='90'> <img id='selected'  src='G_8.jpg' height='90'> <img    src='G_6.jpg' height='90'> <img src='G_5.jpg' height='90'> <img src='G_7.jpg' height='90'> <img src='G_1.jpg' height='90'> <img src='G_4.jpg' height='90'>","null","Animation1",""
"","","","","","html-keyboard-response","108","189224","0.0-65.0","63","1","2025-01-31 01:19:05","af8d355d56820e421d246a7037deb6e6","172.58.14.130","Mozilla/5.0 (Windows NT 10.0; Win64; x64) AppleWebKit/537.36 (KHTML, like Gecko) Chrome/132.0.0.0 Safari/537.36","WebKit","Chrome","132.0.0.0","Windows","10.0","https://app.prolific.com/","en-US,en;q=0.9,es;q=0.8","63316daa57747115376760da","67949641171f97c04e14fb34","679c24f47cd1399e084c7da2","","null","<img   src='G_2.jpg' height='90'> <img id='swapped'  src='G_8.jpg' height='90'> <img id='swapped'   src='G_3.jpg' height='90'> <img    src='G_6.jpg' height='90'> <img src='G_5.jpg' height='90'> <img src='G_7.jpg' height='90'> <img src='G_1.jpg' height='90'> <img src='G_4.jpg' height='90'>","null","Animation1",""
"","","","","","html-keyboard-response","109","189538","0.0-66.0","63","1","2025-01-31 01:19:05","af8d355d56820e421d246a7037deb6e6","172.58.14.130","Mozilla/5.0 (Windows NT 10.0; Win64; x64) AppleWebKit/537.36 (KHTML, like Gecko) Chrome/132.0.0.0 Safari/537.36","WebKit","Chrome","132.0.0.0","Windows","10.0","https://app.prolific.com/","en-US,en;q=0.9,es;q=0.8","63316daa57747115376760da","67949641171f97c04e14fb34","679c24f47cd1399e084c7da2","","null","<img   src='G_2.jpg' height='90'> <img   src='G_8.jpg' height='90'> <img    src='G_3.jpg' height='90'> <img    src='G_6.jpg' height='90'> <img src='G_5.jpg' height='90'> <img src='G_7.jpg' height='90'> <img src='G_1.jpg' height='90'> <img src='G_4.jpg' height='90'>","null","Animation1",""
"","","","","","html-keyboard-response","110","190056","0.0-67.0","63","1","2025-01-31 01:19:05","af8d355d56820e421d246a7037deb6e6","172.58.14.130","Mozilla/5.0 (Windows NT 10.0; Win64; x64) AppleWebKit/537.36 (KHTML, like Gecko) Chrome/132.0.0.0 Safari/537.36","WebKit","Chrome","132.0.0.0","Windows","10.0","https://app.prolific.com/","en-US,en;q=0.9,es;q=0.8","63316daa57747115376760da","67949641171f97c04e14fb34","679c24f47cd1399e084c7da2","","null","<img id='selected'   src='G_2.jpg' height='90'> <img   src='G_8.jpg' height='90'> <img    src='G_3.jpg' height='90'> <img    src='G_6.jpg' height='90'> <img src='G_5.jpg' height='90'> <img src='G_7.jpg' height='90'> <img src='G_1.jpg' height='90'> <img src='G_4.jpg' height='90'>","null","Animation1",""
"","","","","","html-keyboard-response","111","190576","0.0-68.0","63","1","2025-01-31 01:19:05","af8d355d56820e421d246a7037deb6e6","172.58.14.130","Mozilla/5.0 (Windows NT 10.0; Win64; x64) AppleWebKit/537.36 (KHTML, like Gecko) Chrome/132.0.0.0 Safari/537.36","WebKit","Chrome","132.0.0.0","Windows","10.0","https://app.prolific.com/","en-US,en;q=0.9,es;q=0.8","63316daa57747115376760da","67949641171f97c04e14fb34","679c24f47cd1399e084c7da2","","null","<img id='selected'   src='G_2.jpg' height='90'> <img id='selected'   src='G_8.jpg' height='90'> <img    src='G_3.jpg' height='90'> <img    src='G_6.jpg' height='90'> <img src='G_5.jpg' height='90'> <img src='G_7.jpg' height='90'> <img src='G_1.jpg' height='90'> <img src='G_4.jpg' height='90'>","null","Animation1",""
"","","","","","html-keyboard-response","112","191095","0.0-69.0","63","1","2025-01-31 01:19:05","af8d355d56820e421d246a7037deb6e6","172.58.14.130","Mozilla/5.0 (Windows NT 10.0; Win64; x64) AppleWebKit/537.36 (KHTML, like Gecko) Chrome/132.0.0.0 Safari/537.36","WebKit","Chrome","132.0.0.0","Windows","10.0","https://app.prolific.com/","en-US,en;q=0.9,es;q=0.8","63316daa57747115376760da","67949641171f97c04e14fb34","679c24f47cd1399e084c7da2","","null","<img id='swapped'   src='G_8.jpg' height='90'> <img id='swapped'   src='G_2.jpg' height='90'> <img    src='G_3.jpg' height='90'> <img    src='G_6.jpg' height='90'> <img src='G_5.jpg' height='90'> <img src='G_7.jpg' height='90'> <img src='G_1.jpg' height='90'> <img src='G_4.jpg' height='90'>","null","Animation1",""
"","","","","","html-keyboard-response","113","191407","0.0-70.0","63","1","2025-01-31 01:19:05","af8d355d56820e421d246a7037deb6e6","172.58.14.130","Mozilla/5.0 (Windows NT 10.0; Win64; x64) AppleWebKit/537.36 (KHTML, like Gecko) Chrome/132.0.0.0 Safari/537.36","WebKit","Chrome","132.0.0.0","Windows","10.0","https://app.prolific.com/","en-US,en;q=0.9,es;q=0.8","63316daa57747115376760da","67949641171f97c04e14fb34","679c24f47cd1399e084c7da2","","null","<img    src='G_8.jpg' height='90'> <img    src='G_2.jpg' height='90'> <img    src='G_3.jpg' height='90'> <img    src='G_6.jpg' height='90'> <img src='G_5.jpg' height='90'> <img src='G_7.jpg' height='90'> <img src='G_1.jpg' height='90'> <img src='G_4.jpg' height='90'>","null","Animation1",""
"","","","","","html-keyboard-response","114","191921","0.0-71.0","63","1","2025-01-31 01:19:05","af8d355d56820e421d246a7037deb6e6","172.58.14.130","Mozilla/5.0 (Windows NT 10.0; Win64; x64) AppleWebKit/537.36 (KHTML, like Gecko) Chrome/132.0.0.0 Safari/537.36","WebKit","Chrome","132.0.0.0","Windows","10.0","https://app.prolific.com/","en-US,en;q=0.9,es;q=0.8","63316daa57747115376760da","67949641171f97c04e14fb34","679c24f47cd1399e084c7da2","","null","<img    src='G_8.jpg' height='90'> <img    src='G_2.jpg' height='90'> <img    src='G_3.jpg' height='90'> <img id='selected'    src='G_6.jpg' height='90'> <img src='G_5.jpg' height='90'> <img src='G_7.jpg' height='90'> <img src='G_1.jpg' height='90'> <img src='G_4.jpg' height='90'>","null","Animation1",""
"","","","","","html-keyboard-response","115","192436","0.0-72.0","63","1","2025-01-31 01:19:05","af8d355d56820e421d246a7037deb6e6","172.58.14.130","Mozilla/5.0 (Windows NT 10.0; Win64; x64) AppleWebKit/537.36 (KHTML, like Gecko) Chrome/132.0.0.0 Safari/537.36","WebKit","Chrome","132.0.0.0","Windows","10.0","https://app.prolific.com/","en-US,en;q=0.9,es;q=0.8","63316daa57747115376760da","67949641171f97c04e14fb34","679c24f47cd1399e084c7da2","","null","<img    src='G_8.jpg' height='90'> <img    src='G_2.jpg' height='90'> <img    src='G_3.jpg' height='90'> <img id='selected'    src='G_6.jpg' height='90'> <img id='selected' src='G_5.jpg' height='90'> <img src='G_7.jpg' height='90'> <img src='G_1.jpg' height='90'> <img src='G_4.jpg' height='90'>","null","Animation1",""
"","","","","","html-keyboard-response","116","192953","0.0-73.0","63","1","2025-01-31 01:19:05","af8d355d56820e421d246a7037deb6e6","172.58.14.130","Mozilla/5.0 (Windows NT 10.0; Win64; x64) AppleWebKit/537.36 (KHTML, like Gecko) Chrome/132.0.0.0 Safari/537.36","WebKit","Chrome","132.0.0.0","Windows","10.0","https://app.prolific.com/","en-US,en;q=0.9,es;q=0.8","63316daa57747115376760da","67949641171f97c04e14fb34","679c24f47cd1399e084c7da2","","null","<img    src='G_8.jpg' height='90'> <img    src='G_2.jpg' height='90'> <img    src='G_3.jpg' height='90'> <img id='swapped' src='G_5.jpg' height='90'> <img id='swapped'    src='G_6.jpg' height='90'> <img src='G_7.jpg' height='90'> <img src='G_1.jpg' height='90'> <img src='G_4.jpg' height='90'>","null","Animation1",""
"","","","","","html-keyboard-response","117","193268","0.0-74.0","63","1","2025-01-31 01:19:05","af8d355d56820e421d246a7037deb6e6","172.58.14.130","Mozilla/5.0 (Windows NT 10.0; Win64; x64) AppleWebKit/537.36 (KHTML, like Gecko) Chrome/132.0.0.0 Safari/537.36","WebKit","Chrome","132.0.0.0","Windows","10.0","https://app.prolific.com/","en-US,en;q=0.9,es;q=0.8","63316daa57747115376760da","67949641171f97c04e14fb34","679c24f47cd1399e084c7da2","","null","<img    src='G_8.jpg' height='90'> <img    src='G_2.jpg' height='90'> <img    src='G_3.jpg' height='90'> <img  src='G_5.jpg' height='90'> <img     src='G_6.jpg' height='90'> <img src='G_7.jpg' height='90'> <img src='G_1.jpg' height='90'> <img src='G_4.jpg' height='90'>","null","Animation1",""
"","","","","","html-keyboard-response","118","193784","0.0-75.0","63","1","2025-01-31 01:19:05","af8d355d56820e421d246a7037deb6e6","172.58.14.130","Mozilla/5.0 (Windows NT 10.0; Win64; x64) AppleWebKit/537.36 (KHTML, like Gecko) Chrome/132.0.0.0 Safari/537.36","WebKit","Chrome","132.0.0.0","Windows","10.0","https://app.prolific.com/","en-US,en;q=0.9,es;q=0.8","63316daa57747115376760da","67949641171f97c04e14fb34","679c24f47cd1399e084c7da2","","null","<img    src='G_8.jpg' height='90'> <img    src='G_2.jpg' height='90'> <img id='selected'    src='G_3.jpg' height='90'> <img  src='G_5.jpg' height='90'> <img     src='G_6.jpg' height='90'> <img src='G_7.jpg' height='90'> <img src='G_1.jpg' height='90'> <img src='G_4.jpg' height='90'>","null","Animation1",""
"","","","","","html-keyboard-response","119","194305","0.0-76.0","63","1","2025-01-31 01:19:05","af8d355d56820e421d246a7037deb6e6","172.58.14.130","Mozilla/5.0 (Windows NT 10.0; Win64; x64) AppleWebKit/537.36 (KHTML, like Gecko) Chrome/132.0.0.0 Safari/537.36","WebKit","Chrome","132.0.0.0","Windows","10.0","https://app.prolific.com/","en-US,en;q=0.9,es;q=0.8","63316daa57747115376760da","67949641171f97c04e14fb34","679c24f47cd1399e084c7da2","","null","<img    src='G_8.jpg' height='90'> <img    src='G_2.jpg' height='90'> <img id='selected'    src='G_3.jpg' height='90'> <img id='selected'  src='G_5.jpg' height='90'> <img     src='G_6.jpg' height='90'> <img src='G_7.jpg' height='90'> <img src='G_1.jpg' height='90'> <img src='G_4.jpg' height='90'>","null","Animation1",""
"","","","","","html-keyboard-response","120","194825","0.0-77.0","63","1","2025-01-31 01:19:05","af8d355d56820e421d246a7037deb6e6","172.58.14.130","Mozilla/5.0 (Windows NT 10.0; Win64; x64) AppleWebKit/537.36 (KHTML, like Gecko) Chrome/132.0.0.0 Safari/537.36","WebKit","Chrome","132.0.0.0","Windows","10.0","https://app.prolific.com/","en-US,en;q=0.9,es;q=0.8","63316daa57747115376760da","67949641171f97c04e14fb34","679c24f47cd1399e084c7da2","","null","<img    src='G_8.jpg' height='90'> <img    src='G_2.jpg' height='90'> <img id='swapped'  src='G_5.jpg' height='90'> <img id='swapped'    src='G_3.jpg' height='90'> <img     src='G_6.jpg' height='90'> <img src='G_7.jpg' height='90'> <img src='G_1.jpg' height='90'> <img src='G_4.jpg' height='90'>","null","Animation1",""
"","","","","","html-keyboard-response","121","195153","0.0-78.0","63","1","2025-01-31 01:19:05","af8d355d56820e421d246a7037deb6e6","172.58.14.130","Mozilla/5.0 (Windows NT 10.0; Win64; x64) AppleWebKit/537.36 (KHTML, like Gecko) Chrome/132.0.0.0 Safari/537.36","WebKit","Chrome","132.0.0.0","Windows","10.0","https://app.prolific.com/","en-US,en;q=0.9,es;q=0.8","63316daa57747115376760da","67949641171f97c04e14fb34","679c24f47cd1399e084c7da2","","null","<img    src='G_8.jpg' height='90'> <img    src='G_2.jpg' height='90'> <img   src='G_5.jpg' height='90'> <img     src='G_3.jpg' height='90'> <img     src='G_6.jpg' height='90'> <img src='G_7.jpg' height='90'> <img src='G_1.jpg' height='90'> <img src='G_4.jpg' height='90'>","null","Animation1",""
"","","","","","html-keyboard-response","122","195668","0.0-79.0","63","1","2025-01-31 01:19:05","af8d355d56820e421d246a7037deb6e6","172.58.14.130","Mozilla/5.0 (Windows NT 10.0; Win64; x64) AppleWebKit/537.36 (KHTML, like Gecko) Chrome/132.0.0.0 Safari/537.36","WebKit","Chrome","132.0.0.0","Windows","10.0","https://app.prolific.com/","en-US,en;q=0.9,es;q=0.8","63316daa57747115376760da","67949641171f97c04e14fb34","679c24f47cd1399e084c7da2","","null","<img    src='G_8.jpg' height='90'> <img id='selected'    src='G_2.jpg' height='90'> <img   src='G_5.jpg' height='90'> <img     src='G_3.jpg' height='90'> <img     src='G_6.jpg' height='90'> <img src='G_7.jpg' height='90'> <img src='G_1.jpg' height='90'> <img src='G_4.jpg' height='90'>","null","Animation1",""
"","","","","","html-keyboard-response","123","196184","0.0-80.0","63","1","2025-01-31 01:19:05","af8d355d56820e421d246a7037deb6e6","172.58.14.130","Mozilla/5.0 (Windows NT 10.0; Win64; x64) AppleWebKit/537.36 (KHTML, like Gecko) Chrome/132.0.0.0 Safari/537.36","WebKit","Chrome","132.0.0.0","Windows","10.0","https://app.prolific.com/","en-US,en;q=0.9,es;q=0.8","63316daa57747115376760da","67949641171f97c04e14fb34","679c24f47cd1399e084c7da2","","null","<img    src='G_8.jpg' height='90'> <img id='selected'    src='G_2.jpg' height='90'> <img id='selected'   src='G_5.jpg' height='90'> <img     src='G_3.jpg' height='90'> <img     src='G_6.jpg' height='90'> <img src='G_7.jpg' height='90'> <img src='G_1.jpg' height='90'> <img src='G_4.jpg' height='90'>","null","Animation1",""
"","","","","","html-keyboard-response","124","196699","0.0-81.0","63","1","2025-01-31 01:19:05","af8d355d56820e421d246a7037deb6e6","172.58.14.130","Mozilla/5.0 (Windows NT 10.0; Win64; x64) AppleWebKit/537.36 (KHTML, like Gecko) Chrome/132.0.0.0 Safari/537.36","WebKit","Chrome","132.0.0.0","Windows","10.0","https://app.prolific.com/","en-US,en;q=0.9,es;q=0.8","63316daa57747115376760da","67949641171f97c04e14fb34","679c24f47cd1399e084c7da2","","null","<img    src='G_8.jpg' height='90'> <img id='swapped'   src='G_5.jpg' height='90'> <img id='swapped'    src='G_2.jpg' height='90'> <img     src='G_3.jpg' height='90'> <img     src='G_6.jpg' height='90'> <img src='G_7.jpg' height='90'> <img src='G_1.jpg' height='90'> <img src='G_4.jpg' height='90'>","null","Animation1",""
"","","","","","html-keyboard-response","125","197013","0.0-82.0","63","1","2025-01-31 01:19:05","af8d355d56820e421d246a7037deb6e6","172.58.14.130","Mozilla/5.0 (Windows NT 10.0; Win64; x64) AppleWebKit/537.36 (KHTML, like Gecko) Chrome/132.0.0.0 Safari/537.36","WebKit","Chrome","132.0.0.0","Windows","10.0","https://app.prolific.com/","en-US,en;q=0.9,es;q=0.8","63316daa57747115376760da","67949641171f97c04e14fb34","679c24f47cd1399e084c7da2","","null","<img    src='G_8.jpg' height='90'> <img    src='G_5.jpg' height='90'> <img     src='G_2.jpg' height='90'> <img     src='G_3.jpg' height='90'> <img     src='G_6.jpg' height='90'> <img src='G_7.jpg' height='90'> <img src='G_1.jpg' height='90'> <img src='G_4.jpg' height='90'>","null","Animation1",""
"","","","","","html-keyboard-response","126","197531","0.0-83.0","63","1","2025-01-31 01:19:05","af8d355d56820e421d246a7037deb6e6","172.58.14.130","Mozilla/5.0 (Windows NT 10.0; Win64; x64) AppleWebKit/537.36 (KHTML, like Gecko) Chrome/132.0.0.0 Safari/537.36","WebKit","Chrome","132.0.0.0","Windows","10.0","https://app.prolific.com/","en-US,en;q=0.9,es;q=0.8","63316daa57747115376760da","67949641171f97c04e14fb34","679c24f47cd1399e084c7da2","","null","<img id='selected'    src='G_8.jpg' height='90'> <img    src='G_5.jpg' height='90'> <img     src='G_2.jpg' height='90'> <img     src='G_3.jpg' height='90'> <img     src='G_6.jpg' height='90'> <img src='G_7.jpg' height='90'> <img src='G_1.jpg' height='90'> <img src='G_4.jpg' height='90'>","null","Animation1",""
"","","","","","html-keyboard-response","127","198049","0.0-84.0","63","1","2025-01-31 01:19:05","af8d355d56820e421d246a7037deb6e6","172.58.14.130","Mozilla/5.0 (Windows NT 10.0; Win64; x64) AppleWebKit/537.36 (KHTML, like Gecko) Chrome/132.0.0.0 Safari/537.36","WebKit","Chrome","132.0.0.0","Windows","10.0","https://app.prolific.com/","en-US,en;q=0.9,es;q=0.8","63316daa57747115376760da","67949641171f97c04e14fb34","679c24f47cd1399e084c7da2","","null","<img id='selected'    src='G_8.jpg' height='90'> <img id='selected'    src='G_5.jpg' height='90'> <img     src='G_2.jpg' height='90'> <img     src='G_3.jpg' height='90'> <img     src='G_6.jpg' height='90'> <img src='G_7.jpg' height='90'> <img src='G_1.jpg' height='90'> <img src='G_4.jpg' height='90'>","null","Animation1",""
"","","","","","html-keyboard-response","128","198568","0.0-85.0","63","1","2025-01-31 01:19:05","af8d355d56820e421d246a7037deb6e6","172.58.14.130","Mozilla/5.0 (Windows NT 10.0; Win64; x64) AppleWebKit/537.36 (KHTML, like Gecko) Chrome/132.0.0.0 Safari/537.36","WebKit","Chrome","132.0.0.0","Windows","10.0","https://app.prolific.com/","en-US,en;q=0.9,es;q=0.8","63316daa57747115376760da","67949641171f97c04e14fb34","679c24f47cd1399e084c7da2","","null","<img id='selected'    src='G_8.jpg' height='90'> <img id='selected'    src='G_5.jpg' height='90'> <img     src='G_2.jpg' height='90'> <img     src='G_3.jpg' height='90'> <img     src='G_6.jpg' height='90'> <img src='G_7.jpg' height='90'> <img src='G_1.jpg' height='90'> <img src='G_4.jpg' height='90'>","null","Animation1",""
"","","","","","html-keyboard-response","129","198895","0.0-86.0","63","1","2025-01-31 01:19:05","af8d355d56820e421d246a7037deb6e6","172.58.14.130","Mozilla/5.0 (Windows NT 10.0; Win64; x64) AppleWebKit/537.36 (KHTML, like Gecko) Chrome/132.0.0.0 Safari/537.36","WebKit","Chrome","132.0.0.0","Windows","10.0","https://app.prolific.com/","en-US,en;q=0.9,es;q=0.8","63316daa57747115376760da","67949641171f97c04e14fb34","679c24f47cd1399e084c7da2","","null","<img     src='G_8.jpg' height='90'> <img     src='G_5.jpg' height='90'> <img     src='G_2.jpg' height='90'> <img     src='G_3.jpg' height='90'> <img     src='G_6.jpg' height='90'> <img src='G_7.jpg' height='90'> <img src='G_1.jpg' height='90'> <img src='G_4.jpg' height='90'>","null","Animation1",""
"","","","","","html-keyboard-response","130","199411","0.0-87.0","63","1","2025-01-31 01:19:05","af8d355d56820e421d246a7037deb6e6","172.58.14.130","Mozilla/5.0 (Windows NT 10.0; Win64; x64) AppleWebKit/537.36 (KHTML, like Gecko) Chrome/132.0.0.0 Safari/537.36","WebKit","Chrome","132.0.0.0","Windows","10.0","https://app.prolific.com/","en-US,en;q=0.9,es;q=0.8","63316daa57747115376760da","67949641171f97c04e14fb34","679c24f47cd1399e084c7da2","","null","<img     src='G_8.jpg' height='90'> <img     src='G_5.jpg' height='90'> <img     src='G_2.jpg' height='90'> <img     src='G_3.jpg' height='90'> <img id='selected'     src='G_6.jpg' height='90'> <img src='G_7.jpg' height='90'> <img src='G_1.jpg' height='90'> <img src='G_4.jpg' height='90'>","null","Animation1",""
"","","","","","html-keyboard-response","131","199924","0.0-88.0","63","1","2025-01-31 01:19:05","af8d355d56820e421d246a7037deb6e6","172.58.14.130","Mozilla/5.0 (Windows NT 10.0; Win64; x64) AppleWebKit/537.36 (KHTML, like Gecko) Chrome/132.0.0.0 Safari/537.36","WebKit","Chrome","132.0.0.0","Windows","10.0","https://app.prolific.com/","en-US,en;q=0.9,es;q=0.8","63316daa57747115376760da","67949641171f97c04e14fb34","679c24f47cd1399e084c7da2","","null","<img     src='G_8.jpg' height='90'> <img     src='G_5.jpg' height='90'> <img     src='G_2.jpg' height='90'> <img     src='G_3.jpg' height='90'> <img id='selected'     src='G_6.jpg' height='90'> <img id='selected' src='G_7.jpg' height='90'> <img src='G_1.jpg' height='90'> <img src='G_4.jpg' height='90'>","null","Animation1",""
"","","","","","html-keyboard-response","132","200442","0.0-89.0","63","1","2025-01-31 01:19:05","af8d355d56820e421d246a7037deb6e6","172.58.14.130","Mozilla/5.0 (Windows NT 10.0; Win64; x64) AppleWebKit/537.36 (KHTML, like Gecko) Chrome/132.0.0.0 Safari/537.36","WebKit","Chrome","132.0.0.0","Windows","10.0","https://app.prolific.com/","en-US,en;q=0.9,es;q=0.8","63316daa57747115376760da","67949641171f97c04e14fb34","679c24f47cd1399e084c7da2","","null","<img     src='G_8.jpg' height='90'> <img     src='G_5.jpg' height='90'> <img     src='G_2.jpg' height='90'> <img     src='G_3.jpg' height='90'> <img id='swapped' src='G_7.jpg' height='90'> <img id='swapped'     src='G_6.jpg' height='90'> <img src='G_1.jpg' height='90'> <img src='G_4.jpg' height='90'>","null","Animation1",""
"","","","","","html-keyboard-response","133","200759","0.0-90.0","63","1","2025-01-31 01:19:05","af8d355d56820e421d246a7037deb6e6","172.58.14.130","Mozilla/5.0 (Windows NT 10.0; Win64; x64) AppleWebKit/537.36 (KHTML, like Gecko) Chrome/132.0.0.0 Safari/537.36","WebKit","Chrome","132.0.0.0","Windows","10.0","https://app.prolific.com/","en-US,en;q=0.9,es;q=0.8","63316daa57747115376760da","67949641171f97c04e14fb34","679c24f47cd1399e084c7da2","","null","<img     src='G_8.jpg' height='90'> <img     src='G_5.jpg' height='90'> <img     src='G_2.jpg' height='90'> <img     src='G_3.jpg' height='90'> <img  src='G_7.jpg' height='90'> <img      src='G_6.jpg' height='90'> <img src='G_1.jpg' height='90'> <img src='G_4.jpg' height='90'>","null","Animation1",""
"","","","","","html-keyboard-response","134","201273","0.0-91.0","63","1","2025-01-31 01:19:05","af8d355d56820e421d246a7037deb6e6","172.58.14.130","Mozilla/5.0 (Windows NT 10.0; Win64; x64) AppleWebKit/537.36 (KHTML, like Gecko) Chrome/132.0.0.0 Safari/537.36","WebKit","Chrome","132.0.0.0","Windows","10.0","https://app.prolific.com/","en-US,en;q=0.9,es;q=0.8","63316daa57747115376760da","67949641171f97c04e14fb34","679c24f47cd1399e084c7da2","","null","<img     src='G_8.jpg' height='90'> <img     src='G_5.jpg' height='90'> <img     src='G_2.jpg' height='90'> <img id='selected'     src='G_3.jpg' height='90'> <img  src='G_7.jpg' height='90'> <img      src='G_6.jpg' height='90'> <img src='G_1.jpg' height='90'> <img src='G_4.jpg' height='90'>","null","Animation1",""
"","","","","","html-keyboard-response","135","201790","0.0-92.0","63","1","2025-01-31 01:19:05","af8d355d56820e421d246a7037deb6e6","172.58.14.130","Mozilla/5.0 (Windows NT 10.0; Win64; x64) AppleWebKit/537.36 (KHTML, like Gecko) Chrome/132.0.0.0 Safari/537.36","WebKit","Chrome","132.0.0.0","Windows","10.0","https://app.prolific.com/","en-US,en;q=0.9,es;q=0.8","63316daa57747115376760da","67949641171f97c04e14fb34","679c24f47cd1399e084c7da2","","null","<img     src='G_8.jpg' height='90'> <img     src='G_5.jpg' height='90'> <img     src='G_2.jpg' height='90'> <img id='selected'     src='G_3.jpg' height='90'> <img id='selected'  src='G_7.jpg' height='90'> <img      src='G_6.jpg' height='90'> <img src='G_1.jpg' height='90'> <img src='G_4.jpg' height='90'>","null","Animation1",""
"","","","","","html-keyboard-response","136","202306","0.0-93.0","63","1","2025-01-31 01:19:05","af8d355d56820e421d246a7037deb6e6","172.58.14.130","Mozilla/5.0 (Windows NT 10.0; Win64; x64) AppleWebKit/537.36 (KHTML, like Gecko) Chrome/132.0.0.0 Safari/537.36","WebKit","Chrome","132.0.0.0","Windows","10.0","https://app.prolific.com/","en-US,en;q=0.9,es;q=0.8","63316daa57747115376760da","67949641171f97c04e14fb34","679c24f47cd1399e084c7da2","","null","<img     src='G_8.jpg' height='90'> <img     src='G_5.jpg' height='90'> <img     src='G_2.jpg' height='90'> <img id='selected'     src='G_3.jpg' height='90'> <img id='selected'  src='G_7.jpg' height='90'> <img      src='G_6.jpg' height='90'> <img src='G_1.jpg' height='90'> <img src='G_4.jpg' height='90'>","null","Animation1",""
"","","","","","html-keyboard-response","137","202635","0.0-94.0","63","1","2025-01-31 01:19:05","af8d355d56820e421d246a7037deb6e6","172.58.14.130","Mozilla/5.0 (Windows NT 10.0; Win64; x64) AppleWebKit/537.36 (KHTML, like Gecko) Chrome/132.0.0.0 Safari/537.36","WebKit","Chrome","132.0.0.0","Windows","10.0","https://app.prolific.com/","en-US,en;q=0.9,es;q=0.8","63316daa57747115376760da","67949641171f97c04e14fb34","679c24f47cd1399e084c7da2","","null","<img     src='G_8.jpg' height='90'> <img     src='G_5.jpg' height='90'> <img     src='G_2.jpg' height='90'> <img      src='G_3.jpg' height='90'> <img   src='G_7.jpg' height='90'> <img      src='G_6.jpg' height='90'> <img src='G_1.jpg' height='90'> <img src='G_4.jpg' height='90'>","null","Animation1",""
"","","","","","html-keyboard-response","138","203157","0.0-95.0","63","1","2025-01-31 01:19:05","af8d355d56820e421d246a7037deb6e6","172.58.14.130","Mozilla/5.0 (Windows NT 10.0; Win64; x64) AppleWebKit/537.36 (KHTML, like Gecko) Chrome/132.0.0.0 Safari/537.36","WebKit","Chrome","132.0.0.0","Windows","10.0","https://app.prolific.com/","en-US,en;q=0.9,es;q=0.8","63316daa57747115376760da","67949641171f97c04e14fb34","679c24f47cd1399e084c7da2","","null","<img     src='G_8.jpg' height='90'> <img     src='G_5.jpg' height='90'> <img     src='G_2.jpg' height='90'> <img      src='G_3.jpg' height='90'> <img   src='G_7.jpg' height='90'> <img id='selected'      src='G_6.jpg' height='90'> <img src='G_1.jpg' height='90'> <img src='G_4.jpg' height='90'>","null","Animation1",""
"","","","","","html-keyboard-response","139","203671","0.0-96.0","63","1","2025-01-31 01:19:05","af8d355d56820e421d246a7037deb6e6","172.58.14.130","Mozilla/5.0 (Windows NT 10.0; Win64; x64) AppleWebKit/537.36 (KHTML, like Gecko) Chrome/132.0.0.0 Safari/537.36","WebKit","Chrome","132.0.0.0","Windows","10.0","https://app.prolific.com/","en-US,en;q=0.9,es;q=0.8","63316daa57747115376760da","67949641171f97c04e14fb34","679c24f47cd1399e084c7da2","","null","<img     src='G_8.jpg' height='90'> <img     src='G_5.jpg' height='90'> <img     src='G_2.jpg' height='90'> <img      src='G_3.jpg' height='90'> <img   src='G_7.jpg' height='90'> <img id='selected'      src='G_6.jpg' height='90'> <img id='selected' src='G_1.jpg' height='90'> <img src='G_4.jpg' height='90'>","null","Animation1",""
"","","","","","html-keyboard-response","140","204190","0.0-97.0","63","1","2025-01-31 01:19:05","af8d355d56820e421d246a7037deb6e6","172.58.14.130","Mozilla/5.0 (Windows NT 10.0; Win64; x64) AppleWebKit/537.36 (KHTML, like Gecko) Chrome/132.0.0.0 Safari/537.36","WebKit","Chrome","132.0.0.0","Windows","10.0","https://app.prolific.com/","en-US,en;q=0.9,es;q=0.8","63316daa57747115376760da","67949641171f97c04e14fb34","679c24f47cd1399e084c7da2","","null","<img     src='G_8.jpg' height='90'> <img     src='G_5.jpg' height='90'> <img     src='G_2.jpg' height='90'> <img      src='G_3.jpg' height='90'> <img   src='G_7.jpg' height='90'> <img id='selected'      src='G_6.jpg' height='90'> <img id='selected' src='G_1.jpg' height='90'> <img src='G_4.jpg' height='90'>","null","Animation1",""
"","","","","","html-keyboard-response","141","204515","0.0-98.0","63","1","2025-01-31 01:19:05","af8d355d56820e421d246a7037deb6e6","172.58.14.130","Mozilla/5.0 (Windows NT 10.0; Win64; x64) AppleWebKit/537.36 (KHTML, like Gecko) Chrome/132.0.0.0 Safari/537.36","WebKit","Chrome","132.0.0.0","Windows","10.0","https://app.prolific.com/","en-US,en;q=0.9,es;q=0.8","63316daa57747115376760da","67949641171f97c04e14fb34","679c24f47cd1399e084c7da2","","null","<img     src='G_8.jpg' height='90'> <img     src='G_5.jpg' height='90'> <img     src='G_2.jpg' height='90'> <img      src='G_3.jpg' height='90'> <img   src='G_7.jpg' height='90'> <img       src='G_6.jpg' height='90'> <img  src='G_1.jpg' height='90'> <img src='G_4.jpg' height='90'>","null","Animation1",""
"","","","","","html-keyboard-response","142","205033","0.0-99.0","63","1","2025-01-31 01:19:05","af8d355d56820e421d246a7037deb6e6","172.58.14.130","Mozilla/5.0 (Windows NT 10.0; Win64; x64) AppleWebKit/537.36 (KHTML, like Gecko) Chrome/132.0.0.0 Safari/537.36","WebKit","Chrome","132.0.0.0","Windows","10.0","https://app.prolific.com/","en-US,en;q=0.9,es;q=0.8","63316daa57747115376760da","67949641171f97c04e14fb34","679c24f47cd1399e084c7da2","","null","<img     src='G_8.jpg' height='90'> <img     src='G_5.jpg' height='90'> <img     src='G_2.jpg' height='90'> <img      src='G_3.jpg' height='90'> <img   src='G_7.jpg' height='90'> <img       src='G_6.jpg' height='90'> <img id='selected'  src='G_1.jpg' height='90'> <img src='G_4.jpg' height='90'>","null","Animation1",""
"","","","","","html-keyboard-response","143","205549","0.0-100.0","63","1","2025-01-31 01:19:05","af8d355d56820e421d246a7037deb6e6","172.58.14.130","Mozilla/5.0 (Windows NT 10.0; Win64; x64) AppleWebKit/537.36 (KHTML, like Gecko) Chrome/132.0.0.0 Safari/537.36","WebKit","Chrome","132.0.0.0","Windows","10.0","https://app.prolific.com/","en-US,en;q=0.9,es;q=0.8","63316daa57747115376760da","67949641171f97c04e14fb34","679c24f47cd1399e084c7da2","","null","<img     src='G_8.jpg' height='90'> <img     src='G_5.jpg' height='90'> <img     src='G_2.jpg' height='90'> <img      src='G_3.jpg' height='90'> <img   src='G_7.jpg' height='90'> <img       src='G_6.jpg' height='90'> <img id='selected'  src='G_1.jpg' height='90'> <img id='selected' src='G_4.jpg' height='90'>","null","Animation1",""
"","","","","","html-keyboard-response","144","206069","0.0-101.0","63","1","2025-01-31 01:19:05","af8d355d56820e421d246a7037deb6e6","172.58.14.130","Mozilla/5.0 (Windows NT 10.0; Win64; x64) AppleWebKit/537.36 (KHTML, like Gecko) Chrome/132.0.0.0 Safari/537.36","WebKit","Chrome","132.0.0.0","Windows","10.0","https://app.prolific.com/","en-US,en;q=0.9,es;q=0.8","63316daa57747115376760da","67949641171f97c04e14fb34","679c24f47cd1399e084c7da2","","null","<img     src='G_8.jpg' height='90'> <img     src='G_5.jpg' height='90'> <img     src='G_2.jpg' height='90'> <img      src='G_3.jpg' height='90'> <img   src='G_7.jpg' height='90'> <img       src='G_6.jpg' height='90'> <img id='swapped' src='G_4.jpg' height='90'> <img id='swapped'  src='G_1.jpg' height='90'>","null","Animation1",""
"","","","","","html-keyboard-response","145","206383","0.0-102.0","63","1","2025-01-31 01:19:05","af8d355d56820e421d246a7037deb6e6","172.58.14.130","Mozilla/5.0 (Windows NT 10.0; Win64; x64) AppleWebKit/537.36 (KHTML, like Gecko) Chrome/132.0.0.0 Safari/537.36","WebKit","Chrome","132.0.0.0","Windows","10.0","https://app.prolific.com/","en-US,en;q=0.9,es;q=0.8","63316daa57747115376760da","67949641171f97c04e14fb34","679c24f47cd1399e084c7da2","","null","<img     src='G_8.jpg' height='90'> <img     src='G_5.jpg' height='90'> <img     src='G_2.jpg' height='90'> <img      src='G_3.jpg' height='90'> <img   src='G_7.jpg' height='90'> <img       src='G_6.jpg' height='90'> <img  src='G_4.jpg' height='90'> <img   src='G_1.jpg' height='90'>","null","Animation1",""
"","","","","","html-keyboard-response","146","206898","0.0-103.0","63","1","2025-01-31 01:19:05","af8d355d56820e421d246a7037deb6e6","172.58.14.130","Mozilla/5.0 (Windows NT 10.0; Win64; x64) AppleWebKit/537.36 (KHTML, like Gecko) Chrome/132.0.0.0 Safari/537.36","WebKit","Chrome","132.0.0.0","Windows","10.0","https://app.prolific.com/","en-US,en;q=0.9,es;q=0.8","63316daa57747115376760da","67949641171f97c04e14fb34","679c24f47cd1399e084c7da2","","null","<img     src='G_8.jpg' height='90'> <img     src='G_5.jpg' height='90'> <img     src='G_2.jpg' height='90'> <img      src='G_3.jpg' height='90'> <img   src='G_7.jpg' height='90'> <img id='selected'       src='G_6.jpg' height='90'> <img  src='G_4.jpg' height='90'> <img   src='G_1.jpg' height='90'>","null","Animation1",""
"","","","","","html-keyboard-response","147","207421","0.0-104.0","63","1","2025-01-31 01:19:05","af8d355d56820e421d246a7037deb6e6","172.58.14.130","Mozilla/5.0 (Windows NT 10.0; Win64; x64) AppleWebKit/537.36 (KHTML, like Gecko) Chrome/132.0.0.0 Safari/537.36","WebKit","Chrome","132.0.0.0","Windows","10.0","https://app.prolific.com/","en-US,en;q=0.9,es;q=0.8","63316daa57747115376760da","67949641171f97c04e14fb34","679c24f47cd1399e084c7da2","","null","<img     src='G_8.jpg' height='90'> <img     src='G_5.jpg' height='90'> <img     src='G_2.jpg' height='90'> <img      src='G_3.jpg' height='90'> <img   src='G_7.jpg' height='90'> <img id='selected'       src='G_6.jpg' height='90'> <img id='selected'  src='G_4.jpg' height='90'> <img   src='G_1.jpg' height='90'>","null","Animation1",""
"","","","","","html-keyboard-response","148","207942","0.0-105.0","63","1","2025-01-31 01:19:05","af8d355d56820e421d246a7037deb6e6","172.58.14.130","Mozilla/5.0 (Windows NT 10.0; Win64; x64) AppleWebKit/537.36 (KHTML, like Gecko) Chrome/132.0.0.0 Safari/537.36","WebKit","Chrome","132.0.0.0","Windows","10.0","https://app.prolific.com/","en-US,en;q=0.9,es;q=0.8","63316daa57747115376760da","67949641171f97c04e14fb34","679c24f47cd1399e084c7da2","","null","<img     src='G_8.jpg' height='90'> <img     src='G_5.jpg' height='90'> <img     src='G_2.jpg' height='90'> <img      src='G_3.jpg' height='90'> <img   src='G_7.jpg' height='90'> <img id='selected'       src='G_6.jpg' height='90'> <img id='selected'  src='G_4.jpg' height='90'> <img   src='G_1.jpg' height='90'>","null","Animation1",""
"","","","","","html-keyboard-response","149","208256","0.0-106.0","63","1","2025-01-31 01:19:05","af8d355d56820e421d246a7037deb6e6","172.58.14.130","Mozilla/5.0 (Windows NT 10.0; Win64; x64) AppleWebKit/537.36 (KHTML, like Gecko) Chrome/132.0.0.0 Safari/537.36","WebKit","Chrome","132.0.0.0","Windows","10.0","https://app.prolific.com/","en-US,en;q=0.9,es;q=0.8","63316daa57747115376760da","67949641171f97c04e14fb34","679c24f47cd1399e084c7da2","","null","<img     src='G_8.jpg' height='90'> <img     src='G_5.jpg' height='90'> <img     src='G_2.jpg' height='90'> <img      src='G_3.jpg' height='90'> <img   src='G_7.jpg' height='90'> <img        src='G_6.jpg' height='90'> <img   src='G_4.jpg' height='90'> <img   src='G_1.jpg' height='90'>","null","Animation1",""
"","","","","","html-keyboard-response","150","210316","0.0-107.0","63","1","2025-01-31 01:19:05","af8d355d56820e421d246a7037deb6e6","172.58.14.130","Mozilla/5.0 (Windows NT 10.0; Win64; x64) AppleWebKit/537.36 (KHTML, like Gecko) Chrome/132.0.0.0 Safari/537.36","WebKit","Chrome","132.0.0.0","Windows","10.0","https://app.prolific.com/","en-US,en;q=0.9,es;q=0.8","63316daa57747115376760da","67949641171f97c04e14fb34","679c24f47cd1399e084c7da2","","2048","[""Did you notice any patterns? <br><br>Press Enter to watch that example again and follow the steps of Omgne Sort.""]","enter","",""
"","","","","","html-button-response","151","210738","0.0-108.0","63","1","2025-01-31 01:19:05","af8d355d56820e421d246a7037deb6e6","172.58.14.130","Mozilla/5.0 (Windows NT 10.0; Win64; x64) AppleWebKit/537.36 (KHTML, like Gecko) Chrome/132.0.0.0 Safari/537.36","WebKit","Chrome","132.0.0.0","Windows","10.0","https://app.prolific.com/","en-US,en;q=0.9,es;q=0.8","63316daa57747115376760da","67949641171f97c04e14fb34","679c24f47cd1399e084c7da2","","null","<img id='selected' src='G_3.jpg' height='90'> <img src='G_6.jpg' height='90'> <img src='G_2.jpg' height='90'> <img src='G_8.jpg' height='90'> <img src='G_5.jpg' height='90'> <img src='G_7.jpg' height='90'> <img src='G_1.jpg' height='90'> <img src='G_4.jpg' height='90'>","null","Learning example 1",""
