"success","timeout","failed_images","failed_audio","failed_video","trial_type","trial_index","time_elapsed","internal_node_id","run_id","condition","recorded_at","source_code_version","ip","user_agent","device","browser","browser_version","platform","platform_version","referer","accept_language","PROLIFIC_PID","STUDY_ID","SESSION_ID","view_history","rt","stimulus","response","phase","question_order"
"true","false","[]","[]","[]","preload","0","242","0.0-0.0","64","1","2025-01-31 01:22:35","af8d355d56820e421d246a7037deb6e6","68.203.249.80","Mozilla/5.0 (Windows NT 10.0; Win64; x64) AppleWebKit/537.36 (KHTML, like Gecko) Chrome/132.0.0.0 Safari/537.36","WebKit","Chrome","132.0.0.0","Windows","10.0","https://app.prolific.com/","en-US,en;q=0.9","63d87d4ba0b86684507f201d","67949641171f97c04e14fb34","679c25b5448118756ae67005","","","","","",""
"","","","","","instructions","1","1644613","0.0-1.0","64","1","2025-01-31 01:22:35","af8d355d56820e421d246a7037deb6e6","68.203.249.80","Mozilla/5.0 (Windows NT 10.0; Win64; x64) AppleWebKit/537.36 (KHTML, like Gecko) Chrome/132.0.0.0 Safari/537.36","WebKit","Chrome","132.0.0.0","Windows","10.0","https://app.prolific.com/","en-US,en;q=0.9","63d87d4ba0b86684507f201d","67949641171f97c04e14fb34","679c25b5448118756ae67005","[{""page_index"":0,""viewing_time"":1644363}]","1644366","","","",""
"","","","","","html-keyboard-response","2","1645121","0.0-2.0","64","1","2025-01-31 01:22:35","af8d355d56820e421d246a7037deb6e6","68.203.249.80","Mozilla/5.0 (Windows NT 10.0; Win64; x64) AppleWebKit/537.36 (KHTML, like Gecko) Chrome/132.0.0.0 Safari/537.36","WebKit","Chrome","132.0.0.0","Windows","10.0","https://app.prolific.com/","en-US,en;q=0.9","63d87d4ba0b86684507f201d","67949641171f97c04e14fb34","679c25b5448118756ae67005","","null","<p> + <p/>","null","",""
"","","","","","instructions","3","1880065","0.0-3.0","64","1","2025-01-31 01:22:35","af8d355d56820e421d246a7037deb6e6","68.203.249.80","Mozilla/5.0 (Windows NT 10.0; Win64; x64) AppleWebKit/537.36 (KHTML, like Gecko) Chrome/132.0.0.0 Safari/537.36","WebKit","Chrome","132.0.0.0","Windows","10.0","https://app.prolific.com/","en-US,en;q=0.9","63d87d4ba0b86684507f201d","67949641171f97c04e14fb34","679c25b5448118756ae67005","[{""page_index"":0,""viewing_time"":2201},{""page_index"":1,""viewing_time"":210134},{""page_index"":2,""viewing_time"":11507},{""page_index"":3,""viewing_time"":4628},{""page_index"":4,""viewing_time"":6472}]","234942","","","",""
"","","","","","html-button-response","4","1886515","0.0-4.0-0.0-0.0","64","1","2025-01-31 01:22:35","af8d355d56820e421d246a7037deb6e6","68.203.249.80","Mozilla/5.0 (Windows NT 10.0; Win64; x64) AppleWebKit/537.36 (KHTML, like Gecko) Chrome/132.0.0.0 Safari/537.36","WebKit","Chrome","132.0.0.0","Windows","10.0","https://app.prolific.com/","en-US,en;q=0.9","63d87d4ba0b86684507f201d","67949641171f97c04e14fb34","679c25b5448118756ae67005","","6447","","1","Intro Trial",""
"","","","","","html-button-response","5","1887216","0.0-4.1-0.1-0.1","64","1","2025-01-31 01:22:35","af8d355d56820e421d246a7037deb6e6","68.203.249.80","Mozilla/5.0 (Windows NT 10.0; Win64; x64) AppleWebKit/537.36 (KHTML, like Gecko) Chrome/132.0.0.0 Safari/537.36","WebKit","Chrome","132.0.0.0","Windows","10.0","https://app.prolific.com/","en-US,en;q=0.9","63d87d4ba0b86684507f201d","67949641171f97c04e14fb34","679c25b5448118756ae67005","","698","","0","Intro Trial",""
"","","","","","html-button-response","6","1889388","0.0-4.2-0.2-0.2","64","1","2025-01-31 01:22:35","af8d355d56820e421d246a7037deb6e6","68.203.249.80","Mozilla/5.0 (Windows NT 10.0; Win64; x64) AppleWebKit/537.36 (KHTML, like Gecko) Chrome/132.0.0.0 Safari/537.36","WebKit","Chrome","132.0.0.0","Windows","10.0","https://app.prolific.com/","en-US,en;q=0.9","63d87d4ba0b86684507f201d","67949641171f97c04e14fb34","679c25b5448118756ae67005","","2166","","3","Intro Trial",""
"","","","","","html-button-response","7","1890107","0.0-4.3-0.3-0.3","64","1","2025-01-31 01:22:35","af8d355d56820e421d246a7037deb6e6","68.203.249.80","Mozilla/5.0 (Windows NT 10.0; Win64; x64) AppleWebKit/537.36 (KHTML, like Gecko) Chrome/132.0.0.0 Safari/537.36","WebKit","Chrome","132.0.0.0","Windows","10.0","https://app.prolific.com/","en-US,en;q=0.9","63d87d4ba0b86684507f201d","67949641171f97c04e14fb34","679c25b5448118756ae67005","","713","","2","Intro Trial",""
"","","","","","html-button-response","8","1899804","0.0-4.4-0.4-0.4","64","1","2025-01-31 01:22:35","af8d355d56820e421d246a7037deb6e6","68.203.249.80","Mozilla/5.0 (Windows NT 10.0; Win64; x64) AppleWebKit/537.36 (KHTML, like Gecko) Chrome/132.0.0.0 Safari/537.36","WebKit","Chrome","132.0.0.0","Windows","10.0","https://app.prolific.com/","en-US,en;q=0.9","63d87d4ba0b86684507f201d","67949641171f97c04e14fb34","679c25b5448118756ae67005","","9693","","1","Intro Trial",""
"","","","","","html-button-response","9","1902488","0.0-4.5-0.5-0.5","64","1","2025-01-31 01:22:35","af8d355d56820e421d246a7037deb6e6","68.203.249.80","Mozilla/5.0 (Windows NT 10.0; Win64; x64) AppleWebKit/537.36 (KHTML, like Gecko) Chrome/132.0.0.0 Safari/537.36","WebKit","Chrome","132.0.0.0","Windows","10.0","https://app.prolific.com/","en-US,en;q=0.9","63d87d4ba0b86684507f201d","67949641171f97c04e14fb34","679c25b5448118756ae67005","","2681","","0","Intro Trial",""
"","","","","","html-button-response","10","1911362","0.0-4.6-0.6-0.6","64","1","2025-01-31 01:22:35","af8d355d56820e421d246a7037deb6e6","68.203.249.80","Mozilla/5.0 (Windows NT 10.0; Win64; x64) AppleWebKit/537.36 (KHTML, like Gecko) Chrome/132.0.0.0 Safari/537.36","WebKit","Chrome","132.0.0.0","Windows","10.0","https://app.prolific.com/","en-US,en;q=0.9","63d87d4ba0b86684507f201d","67949641171f97c04e14fb34","679c25b5448118756ae67005","","8871","","2","Intro Trial",""
"","","","","","html-button-response","11","1912192","0.0-4.7-0.7-0.7","64","1","2025-01-31 01:22:35","af8d355d56820e421d246a7037deb6e6","68.203.249.80","Mozilla/5.0 (Windows NT 10.0; Win64; x64) AppleWebKit/537.36 (KHTML, like Gecko) Chrome/132.0.0.0 Safari/537.36","WebKit","Chrome","132.0.0.0","Windows","10.0","https://app.prolific.com/","en-US,en;q=0.9","63d87d4ba0b86684507f201d","67949641171f97c04e14fb34","679c25b5448118756ae67005","","827","","1","Intro Trial",""
"","","","","","html-button-response","12","1913369","0.0-4.8-0.8-0.8","64","1","2025-01-31 01:22:35","af8d355d56820e421d246a7037deb6e6","68.203.249.80","Mozilla/5.0 (Windows NT 10.0; Win64; x64) AppleWebKit/537.36 (KHTML, like Gecko) Chrome/132.0.0.0 Safari/537.36","WebKit","Chrome","132.0.0.0","Windows","10.0","https://app.prolific.com/","en-US,en;q=0.9","63d87d4ba0b86684507f201d","67949641171f97c04e14fb34","679c25b5448118756ae67005","","1173","","1","Intro Trial",""
"","","","","","html-button-response","13","1914016","0.0-4.9-0.9-0.9","64","1","2025-01-31 01:22:35","af8d355d56820e421d246a7037deb6e6","68.203.249.80","Mozilla/5.0 (Windows NT 10.0; Win64; x64) AppleWebKit/537.36 (KHTML, like Gecko) Chrome/132.0.0.0 Safari/537.36","WebKit","Chrome","132.0.0.0","Windows","10.0","https://app.prolific.com/","en-US,en;q=0.9","63d87d4ba0b86684507f201d","67949641171f97c04e14fb34","679c25b5448118756ae67005","","643","","0","Intro Trial",""
"","","","","","html-button-response","14","1915342","0.0-4.10-0.10-0.10","64","1","2025-01-31 01:22:35","af8d355d56820e421d246a7037deb6e6","68.203.249.80","Mozilla/5.0 (Windows NT 10.0; Win64; x64) AppleWebKit/537.36 (KHTML, like Gecko) Chrome/132.0.0.0 Safari/537.36","WebKit","Chrome","132.0.0.0","Windows","10.0","https://app.prolific.com/","en-US,en;q=0.9","63d87d4ba0b86684507f201d","67949641171f97c04e14fb34","679c25b5448118756ae67005","","1322","","1","Intro Trial",""
"","","","","","html-button-response","15","1915949","0.0-4.11-0.11-0.11","64","1","2025-01-31 01:22:35","af8d355d56820e421d246a7037deb6e6","68.203.249.80","Mozilla/5.0 (Windows NT 10.0; Win64; x64) AppleWebKit/537.36 (KHTML, like Gecko) Chrome/132.0.0.0 Safari/537.36","WebKit","Chrome","132.0.0.0","Windows","10.0","https://app.prolific.com/","en-US,en;q=0.9","63d87d4ba0b86684507f201d","67949641171f97c04e14fb34","679c25b5448118756ae67005","","605","","0","Intro Trial",""
"","","","","","html-button-response","16","1916589","0.0-4.12-0.12-0.12","64","1","2025-01-31 01:22:35","af8d355d56820e421d246a7037deb6e6","68.203.249.80","Mozilla/5.0 (Windows NT 10.0; Win64; x64) AppleWebKit/537.36 (KHTML, like Gecko) Chrome/132.0.0.0 Safari/537.36","WebKit","Chrome","132.0.0.0","Windows","10.0","https://app.prolific.com/","en-US,en;q=0.9","63d87d4ba0b86684507f201d","67949641171f97c04e14fb34","679c25b5448118756ae67005","","635","","0","Intro Trial",""
"","","","","","html-button-response","17","1917233","0.0-4.13-0.13-0.13","64","1","2025-01-31 01:22:35","af8d355d56820e421d246a7037deb6e6","68.203.249.80","Mozilla/5.0 (Windows NT 10.0; Win64; x64) AppleWebKit/537.36 (KHTML, like Gecko) Chrome/132.0.0.0 Safari/537.36","WebKit","Chrome","132.0.0.0","Windows","10.0","https://app.prolific.com/","en-US,en;q=0.9","63d87d4ba0b86684507f201d","67949641171f97c04e14fb34","679c25b5448118756ae67005","","640","","1","Intro Trial",""
"","","","","","html-button-response","18","1921091","0.0-4.14-0.14-0.14","64","1","2025-01-31 01:22:35","af8d355d56820e421d246a7037deb6e6","68.203.249.80","Mozilla/5.0 (Windows NT 10.0; Win64; x64) AppleWebKit/537.36 (KHTML, like Gecko) Chrome/132.0.0.0 Safari/537.36","WebKit","Chrome","132.0.0.0","Windows","10.0","https://app.prolific.com/","en-US,en;q=0.9","63d87d4ba0b86684507f201d","67949641171f97c04e14fb34","679c25b5448118756ae67005","","3850","","4","Intro Trial",""
"","","","","","html-button-response","19","1921744","0.0-4.15-0.15-0.15","64","1","2025-01-31 01:22:35","af8d355d56820e421d246a7037deb6e6","68.203.249.80","Mozilla/5.0 (Windows NT 10.0; Win64; x64) AppleWebKit/537.36 (KHTML, like Gecko) Chrome/132.0.0.0 Safari/537.36","WebKit","Chrome","132.0.0.0","Windows","10.0","https://app.prolific.com/","en-US,en;q=0.9","63d87d4ba0b86684507f201d","67949641171f97c04e14fb34","679c25b5448118756ae67005","","650","","3","Intro Trial",""
"","","","","","html-button-response","20","1922737","0.0-4.16-0.16-0.16","64","1","2025-01-31 01:22:35","af8d355d56820e421d246a7037deb6e6","68.203.249.80","Mozilla/5.0 (Windows NT 10.0; Win64; x64) AppleWebKit/537.36 (KHTML, like Gecko) Chrome/132.0.0.0 Safari/537.36","WebKit","Chrome","132.0.0.0","Windows","10.0","https://app.prolific.com/","en-US,en;q=0.9","63d87d4ba0b86684507f201d","67949641171f97c04e14fb34","679c25b5448118756ae67005","","991","","3","Intro Trial",""
"","","","","","html-button-response","21","1923373","0.0-4.17-0.17-0.17","64","1","2025-01-31 01:22:35","af8d355d56820e421d246a7037deb6e6","68.203.249.80","Mozilla/5.0 (Windows NT 10.0; Win64; x64) AppleWebKit/537.36 (KHTML, like Gecko) Chrome/132.0.0.0 Safari/537.36","WebKit","Chrome","132.0.0.0","Windows","10.0","https://app.prolific.com/","en-US,en;q=0.9","63d87d4ba0b86684507f201d","67949641171f97c04e14fb34","679c25b5448118756ae67005","","634","","4","Intro Trial",""
"","","","","","html-button-response","22","1924237","0.0-4.18-0.18-0.18","64","1","2025-01-31 01:22:35","af8d355d56820e421d246a7037deb6e6","68.203.249.80","Mozilla/5.0 (Windows NT 10.0; Win64; x64) AppleWebKit/537.36 (KHTML, like Gecko) Chrome/132.0.0.0 Safari/537.36","WebKit","Chrome","132.0.0.0","Windows","10.0","https://app.prolific.com/","en-US,en;q=0.9","63d87d4ba0b86684507f201d","67949641171f97c04e14fb34","679c25b5448118756ae67005","","861","","3","Intro Trial",""
"","","","","","html-button-response","23","1924913","0.0-4.19-0.19-0.19","64","1","2025-01-31 01:22:35","af8d355d56820e421d246a7037deb6e6","68.203.249.80","Mozilla/5.0 (Windows NT 10.0; Win64; x64) AppleWebKit/537.36 (KHTML, like Gecko) Chrome/132.0.0.0 Safari/537.36","WebKit","Chrome","132.0.0.0","Windows","10.0","https://app.prolific.com/","en-US,en;q=0.9","63d87d4ba0b86684507f201d","67949641171f97c04e14fb34","679c25b5448118756ae67005","","673","","2","Intro Trial",""
"","","","","","html-button-response","24","1925777","0.0-4.20-0.20-0.20","64","1","2025-01-31 01:22:35","af8d355d56820e421d246a7037deb6e6","68.203.249.80","Mozilla/5.0 (Windows NT 10.0; Win64; x64) AppleWebKit/537.36 (KHTML, like Gecko) Chrome/132.0.0.0 Safari/537.36","WebKit","Chrome","132.0.0.0","Windows","10.0","https://app.prolific.com/","en-US,en;q=0.9","63d87d4ba0b86684507f201d","67949641171f97c04e14fb34","679c25b5448118756ae67005","","861","","2","Intro Trial",""
"","","","","","html-button-response","25","1926424","0.0-4.21-0.21-0.21","64","1","2025-01-31 01:22:35","af8d355d56820e421d246a7037deb6e6","68.203.249.80","Mozilla/5.0 (Windows NT 10.0; Win64; x64) AppleWebKit/537.36 (KHTML, like Gecko) Chrome/132.0.0.0 Safari/537.36","WebKit","Chrome","132.0.0.0","Windows","10.0","https://app.prolific.com/","en-US,en;q=0.9","63d87d4ba0b86684507f201d","67949641171f97c04e14fb34","679c25b5448118756ae67005","","643","","1","Intro Trial",""
"","","","","","html-button-response","26","1927459","0.0-4.22-0.22-0.22","64","1","2025-01-31 01:22:35","af8d355d56820e421d246a7037deb6e6","68.203.249.80","Mozilla/5.0 (Windows NT 10.0; Win64; x64) AppleWebKit/537.36 (KHTML, like Gecko) Chrome/132.0.0.0 Safari/537.36","WebKit","Chrome","132.0.0.0","Windows","10.0","https://app.prolific.com/","en-US,en;q=0.9","63d87d4ba0b86684507f201d","67949641171f97c04e14fb34","679c25b5448118756ae67005","","1031","","1","Intro Trial",""
"","","","","","html-button-response","27","1928114","0.0-4.23-0.23-0.23","64","1","2025-01-31 01:22:35","af8d355d56820e421d246a7037deb6e6","68.203.249.80","Mozilla/5.0 (Windows NT 10.0; Win64; x64) AppleWebKit/537.36 (KHTML, like Gecko) Chrome/132.0.0.0 Safari/537.36","WebKit","Chrome","132.0.0.0","Windows","10.0","https://app.prolific.com/","en-US,en;q=0.9","63d87d4ba0b86684507f201d","67949641171f97c04e14fb34","679c25b5448118756ae67005","","653","","0","Intro Trial",""
"","","","","","html-button-response","28","1929404","0.0-4.24-0.24-0.24","64","1","2025-01-31 01:22:35","af8d355d56820e421d246a7037deb6e6","68.203.249.80","Mozilla/5.0 (Windows NT 10.0; Win64; x64) AppleWebKit/537.36 (KHTML, like Gecko) Chrome/132.0.0.0 Safari/537.36","WebKit","Chrome","132.0.0.0","Windows","10.0","https://app.prolific.com/","en-US,en;q=0.9","63d87d4ba0b86684507f201d","67949641171f97c04e14fb34","679c25b5448118756ae67005","","1284","","1","Intro Trial",""
"","","","","","html-button-response","29","1930049","0.0-4.25-0.25-0.25","64","1","2025-01-31 01:22:35","af8d355d56820e421d246a7037deb6e6","68.203.249.80","Mozilla/5.0 (Windows NT 10.0; Win64; x64) AppleWebKit/537.36 (KHTML, like Gecko) Chrome/132.0.0.0 Safari/537.36","WebKit","Chrome","132.0.0.0","Windows","10.0","https://app.prolific.com/","en-US,en;q=0.9","63d87d4ba0b86684507f201d","67949641171f97c04e14fb34","679c25b5448118756ae67005","","642","","0","Intro Trial",""
"","","","","","html-button-response","30","1931295","0.0-4.26-0.26-0.26","64","1","2025-01-31 01:22:35","af8d355d56820e421d246a7037deb6e6","68.203.249.80","Mozilla/5.0 (Windows NT 10.0; Win64; x64) AppleWebKit/537.36 (KHTML, like Gecko) Chrome/132.0.0.0 Safari/537.36","WebKit","Chrome","132.0.0.0","Windows","10.0","https://app.prolific.com/","en-US,en;q=0.9","63d87d4ba0b86684507f201d","67949641171f97c04e14fb34","679c25b5448118756ae67005","","1243","","2","Intro Trial",""
"","","","","","html-button-response","31","1931934","0.0-4.27-0.27-0.27","64","1","2025-01-31 01:22:35","af8d355d56820e421d246a7037deb6e6","68.203.249.80","Mozilla/5.0 (Windows NT 10.0; Win64; x64) AppleWebKit/537.36 (KHTML, like Gecko) Chrome/132.0.0.0 Safari/537.36","WebKit","Chrome","132.0.0.0","Windows","10.0","https://app.prolific.com/","en-US,en;q=0.9","63d87d4ba0b86684507f201d","67949641171f97c04e14fb34","679c25b5448118756ae67005","","636","","1","Intro Trial",""
"","","","","","html-button-response","32","1936488","0.0-4.28-0.28-0.28","64","1","2025-01-31 01:22:35","af8d355d56820e421d246a7037deb6e6","68.203.249.80","Mozilla/5.0 (Windows NT 10.0; Win64; x64) AppleWebKit/537.36 (KHTML, like Gecko) Chrome/132.0.0.0 Safari/537.36","WebKit","Chrome","132.0.0.0","Windows","10.0","https://app.prolific.com/","en-US,en;q=0.9","63d87d4ba0b86684507f201d","67949641171f97c04e14fb34","679c25b5448118756ae67005","","4549","","3","Intro Trial",""
"","","","","","html-button-response","33","1937124","0.0-4.29-0.29-0.29","64","1","2025-01-31 01:22:35","af8d355d56820e421d246a7037deb6e6","68.203.249.80","Mozilla/5.0 (Windows NT 10.0; Win64; x64) AppleWebKit/537.36 (KHTML, like Gecko) Chrome/132.0.0.0 Safari/537.36","WebKit","Chrome","132.0.0.0","Windows","10.0","https://app.prolific.com/","en-US,en;q=0.9","63d87d4ba0b86684507f201d","67949641171f97c04e14fb34","679c25b5448118756ae67005","","631","","2","Intro Trial",""
"","","","","","html-button-response","34","1937841","0.0-4.30-0.30-0.30","64","1","2025-01-31 01:22:35","af8d355d56820e421d246a7037deb6e6","68.203.249.80","Mozilla/5.0 (Windows NT 10.0; Win64; x64) AppleWebKit/537.36 (KHTML, like Gecko) Chrome/132.0.0.0 Safari/537.36","WebKit","Chrome","132.0.0.0","Windows","10.0","https://app.prolific.com/","en-US,en;q=0.9","63d87d4ba0b86684507f201d","67949641171f97c04e14fb34","679c25b5448118756ae67005","","710","","1","Intro Trial",""
"","","","","","html-button-response","35","1938509","0.0-4.31-0.31-0.31","64","1","2025-01-31 01:22:35","af8d355d56820e421d246a7037deb6e6","68.203.249.80","Mozilla/5.0 (Windows NT 10.0; Win64; x64) AppleWebKit/537.36 (KHTML, like Gecko) Chrome/132.0.0.0 Safari/537.36","WebKit","Chrome","132.0.0.0","Windows","10.0","https://app.prolific.com/","en-US,en;q=0.9","63d87d4ba0b86684507f201d","67949641171f97c04e14fb34","679c25b5448118756ae67005","","665","","2","Intro Trial",""
"","","","","","html-button-response","36","1939800","0.0-4.32-0.32-0.32","64","1","2025-01-31 01:22:35","af8d355d56820e421d246a7037deb6e6","68.203.249.80","Mozilla/5.0 (Windows NT 10.0; Win64; x64) AppleWebKit/537.36 (KHTML, like Gecko) Chrome/132.0.0.0 Safari/537.36","WebKit","Chrome","132.0.0.0","Windows","10.0","https://app.prolific.com/","en-US,en;q=0.9","63d87d4ba0b86684507f201d","67949641171f97c04e14fb34","679c25b5448118756ae67005","","1288","","2","Intro Trial",""
"","","","","","html-button-response","37","1940455","0.0-4.33-0.33-0.33","64","1","2025-01-31 01:22:35","af8d355d56820e421d246a7037deb6e6","68.203.249.80","Mozilla/5.0 (Windows NT 10.0; Win64; x64) AppleWebKit/537.36 (KHTML, like Gecko) Chrome/132.0.0.0 Safari/537.36","WebKit","Chrome","132.0.0.0","Windows","10.0","https://app.prolific.com/","en-US,en;q=0.9","63d87d4ba0b86684507f201d","67949641171f97c04e14fb34","679c25b5448118756ae67005","","651","","1","Intro Trial",""
"","","","","","html-button-response","38","1944031","0.0-4.34-0.34-0.34","64","1","2025-01-31 01:22:35","af8d355d56820e421d246a7037deb6e6","68.203.249.80","Mozilla/5.0 (Windows NT 10.0; Win64; x64) AppleWebKit/537.36 (KHTML, like Gecko) Chrome/132.0.0.0 Safari/537.36","WebKit","Chrome","132.0.0.0","Windows","10.0","https://app.prolific.com/","en-US,en;q=0.9","63d87d4ba0b86684507f201d","67949641171f97c04e14fb34","679c25b5448118756ae67005","","3568","","5","Intro Trial",""
"","","","","","html-keyboard-response","39","1953046","0.0-5.0","64","1","2025-01-31 01:22:35","af8d355d56820e421d246a7037deb6e6","68.203.249.80","Mozilla/5.0 (Windows NT 10.0; Win64; x64) AppleWebKit/537.36 (KHTML, like Gecko) Chrome/132.0.0.0 Safari/537.36","WebKit","Chrome","132.0.0.0","Windows","10.0","https://app.prolific.com/","en-US,en;q=0.9","63d87d4ba0b86684507f201d","67949641171f97c04e14fb34","679c25b5448118756ae67005","","9011","[""You sorted correctly by using the balance 17 times. <br><br> <img src='G_5.jpg' height='90'><img src='G_2.jpg' height='90'><img src='G_3.jpg' height='90'><img src='G_1.jpg' height='90'><img src='G_4.jpg' height='90'><br><br> Your final order is 1,2,3,4,5<br><br><br>Omgne Sort in this game will allow you to sort correctly by using the balance 8 times. Press Enter to learn it!""]","enter","",""
"","","","","","html-keyboard-response","40","1957534","0.0-6.0","64","1","2025-01-31 01:22:35","af8d355d56820e421d246a7037deb6e6","68.203.249.80","Mozilla/5.0 (Windows NT 10.0; Win64; x64) AppleWebKit/537.36 (KHTML, like Gecko) Chrome/132.0.0.0 Safari/537.36","WebKit","Chrome","132.0.0.0","Windows","10.0","https://app.prolific.com/","en-US,en;q=0.9","63d87d4ba0b86684507f201d","67949641171f97c04e14fb34","679c25b5448118756ae67005","","4486","<p>Welcome to the learning phase! <br><br> You will learn by six examples. The following learning trials will not be used to calculate your performance. <br><br> Press Enter to continue.<p/>","enter","",""
"","","","","","html-keyboard-response","41","1966813","0.0-7.0","64","1","2025-01-31 01:22:35","af8d355d56820e421d246a7037deb6e6","68.203.249.80","Mozilla/5.0 (Windows NT 10.0; Win64; x64) AppleWebKit/537.36 (KHTML, like Gecko) Chrome/132.0.0.0 Safari/537.36","WebKit","Chrome","132.0.0.0","Windows","10.0","https://app.prolific.com/","en-US,en;q=0.9","63d87d4ba0b86684507f201d","67949641171f97c04e14fb34","679c25b5448118756ae67005","","9277","[""Example 1<br><br>You will watch Omnge Sort in action. Try to identify any patterns in the comparisons made by this method. <br><br>Press Enter to continue.""]","enter","",""
"","","","","","html-keyboard-response","42","1967327","0.0-8.0","64","1","2025-01-31 01:22:35","af8d355d56820e421d246a7037deb6e6","68.203.249.80","Mozilla/5.0 (Windows NT 10.0; Win64; x64) AppleWebKit/537.36 (KHTML, like Gecko) Chrome/132.0.0.0 Safari/537.36","WebKit","Chrome","132.0.0.0","Windows","10.0","https://app.prolific.com/","en-US,en;q=0.9","63d87d4ba0b86684507f201d","67949641171f97c04e14fb34","679c25b5448118756ae67005","","null","<img id='selected' src='G_9.jpg' height='90'> <img src='G_5.jpg' height='90'> <img src='G_7.jpg' height='90'> <img src='G_1.jpg' height='90'> <img src='G_3.jpg' height='90'>","null","Animation0",""
"","","","","","html-keyboard-response","43","1967847","0.0-9.0","64","1","2025-01-31 01:22:35","af8d355d56820e421d246a7037deb6e6","68.203.249.80","Mozilla/5.0 (Windows NT 10.0; Win64; x64) AppleWebKit/537.36 (KHTML, like Gecko) Chrome/132.0.0.0 Safari/537.36","WebKit","Chrome","132.0.0.0","Windows","10.0","https://app.prolific.com/","en-US,en;q=0.9","63d87d4ba0b86684507f201d","67949641171f97c04e14fb34","679c25b5448118756ae67005","","null","<img id='selected' src='G_9.jpg' height='90'> <img id='selected' src='G_5.jpg' height='90'> <img src='G_7.jpg' height='90'> <img src='G_1.jpg' height='90'> <img src='G_3.jpg' height='90'>","null","Animation0",""
"","","","","","html-keyboard-response","44","1968357","0.0-10.0","64","1","2025-01-31 01:22:35","af8d355d56820e421d246a7037deb6e6","68.203.249.80","Mozilla/5.0 (Windows NT 10.0; Win64; x64) AppleWebKit/537.36 (KHTML, like Gecko) Chrome/132.0.0.0 Safari/537.36","WebKit","Chrome","132.0.0.0","Windows","10.0","https://app.prolific.com/","en-US,en;q=0.9","63d87d4ba0b86684507f201d","67949641171f97c04e14fb34","679c25b5448118756ae67005","","null","<img id='swapped' src='G_5.jpg' height='90'> <img id='swapped' src='G_9.jpg' height='90'> <img src='G_7.jpg' height='90'> <img src='G_1.jpg' height='90'> <img src='G_3.jpg' height='90'>","null","Animation0",""
"","","","","","html-keyboard-response","45","1968669","0.0-11.0","64","1","2025-01-31 01:22:35","af8d355d56820e421d246a7037deb6e6","68.203.249.80","Mozilla/5.0 (Windows NT 10.0; Win64; x64) AppleWebKit/537.36 (KHTML, like Gecko) Chrome/132.0.0.0 Safari/537.36","WebKit","Chrome","132.0.0.0","Windows","10.0","https://app.prolific.com/","en-US,en;q=0.9","63d87d4ba0b86684507f201d","67949641171f97c04e14fb34","679c25b5448118756ae67005","","null","<img  src='G_5.jpg' height='90'> <img  src='G_9.jpg' height='90'> <img src='G_7.jpg' height='90'> <img src='G_1.jpg' height='90'> <img src='G_3.jpg' height='90'>","null","Animation0",""
"","","","","","html-keyboard-response","46","1969186","0.0-12.0","64","1","2025-01-31 01:22:35","af8d355d56820e421d246a7037deb6e6","68.203.249.80","Mozilla/5.0 (Windows NT 10.0; Win64; x64) AppleWebKit/537.36 (KHTML, like Gecko) Chrome/132.0.0.0 Safari/537.36","WebKit","Chrome","132.0.0.0","Windows","10.0","https://app.prolific.com/","en-US,en;q=0.9","63d87d4ba0b86684507f201d","67949641171f97c04e14fb34","679c25b5448118756ae67005","","null","<img  src='G_5.jpg' height='90'> <img id='selected'  src='G_9.jpg' height='90'> <img src='G_7.jpg' height='90'> <img src='G_1.jpg' height='90'> <img src='G_3.jpg' height='90'>","null","Animation0",""
"","","","","","html-keyboard-response","47","1969698","0.0-13.0","64","1","2025-01-31 01:22:35","af8d355d56820e421d246a7037deb6e6","68.203.249.80","Mozilla/5.0 (Windows NT 10.0; Win64; x64) AppleWebKit/537.36 (KHTML, like Gecko) Chrome/132.0.0.0 Safari/537.36","WebKit","Chrome","132.0.0.0","Windows","10.0","https://app.prolific.com/","en-US,en;q=0.9","63d87d4ba0b86684507f201d","67949641171f97c04e14fb34","679c25b5448118756ae67005","","null","<img  src='G_5.jpg' height='90'> <img id='selected'  src='G_9.jpg' height='90'> <img id='selected' src='G_7.jpg' height='90'> <img src='G_1.jpg' height='90'> <img src='G_3.jpg' height='90'>","null","Animation0",""
"","","","","","html-keyboard-response","48","1970200","0.0-14.0","64","1","2025-01-31 01:22:35","af8d355d56820e421d246a7037deb6e6","68.203.249.80","Mozilla/5.0 (Windows NT 10.0; Win64; x64) AppleWebKit/537.36 (KHTML, like Gecko) Chrome/132.0.0.0 Safari/537.36","WebKit","Chrome","132.0.0.0","Windows","10.0","https://app.prolific.com/","en-US,en;q=0.9","63d87d4ba0b86684507f201d","67949641171f97c04e14fb34","679c25b5448118756ae67005","","null","<img  src='G_5.jpg' height='90'> <img id='selected'  src='G_9.jpg' height='90'> <img id='selected' src='G_7.jpg' height='90'> <img src='G_1.jpg' height='90'> <img src='G_3.jpg' height='90'>","null","Animation0",""
"","","","","","html-keyboard-response","49","1970509","0.0-15.0","64","1","2025-01-31 01:22:35","af8d355d56820e421d246a7037deb6e6","68.203.249.80","Mozilla/5.0 (Windows NT 10.0; Win64; x64) AppleWebKit/537.36 (KHTML, like Gecko) Chrome/132.0.0.0 Safari/537.36","WebKit","Chrome","132.0.0.0","Windows","10.0","https://app.prolific.com/","en-US,en;q=0.9","63d87d4ba0b86684507f201d","67949641171f97c04e14fb34","679c25b5448118756ae67005","","null","<img  src='G_5.jpg' height='90'> <img   src='G_9.jpg' height='90'> <img  src='G_7.jpg' height='90'> <img src='G_1.jpg' height='90'> <img src='G_3.jpg' height='90'>","null","Animation0",""
"","","","","","html-keyboard-response","50","1971020","0.0-16.0","64","1","2025-01-31 01:22:35","af8d355d56820e421d246a7037deb6e6","68.203.249.80","Mozilla/5.0 (Windows NT 10.0; Win64; x64) AppleWebKit/537.36 (KHTML, like Gecko) Chrome/132.0.0.0 Safari/537.36","WebKit","Chrome","132.0.0.0","Windows","10.0","https://app.prolific.com/","en-US,en;q=0.9","63d87d4ba0b86684507f201d","67949641171f97c04e14fb34","679c25b5448118756ae67005","","null","<img  src='G_5.jpg' height='90'> <img   src='G_9.jpg' height='90'> <img id='selected'  src='G_7.jpg' height='90'> <img src='G_1.jpg' height='90'> <img src='G_3.jpg' height='90'>","null","Animation0",""
"","","","","","html-keyboard-response","51","1971530","0.0-17.0","64","1","2025-01-31 01:22:35","af8d355d56820e421d246a7037deb6e6","68.203.249.80","Mozilla/5.0 (Windows NT 10.0; Win64; x64) AppleWebKit/537.36 (KHTML, like Gecko) Chrome/132.0.0.0 Safari/537.36","WebKit","Chrome","132.0.0.0","Windows","10.0","https://app.prolific.com/","en-US,en;q=0.9","63d87d4ba0b86684507f201d","67949641171f97c04e14fb34","679c25b5448118756ae67005","","null","<img  src='G_5.jpg' height='90'> <img   src='G_9.jpg' height='90'> <img id='selected'  src='G_7.jpg' height='90'> <img id='selected' src='G_1.jpg' height='90'> <img src='G_3.jpg' height='90'>","null","Animation0",""
"","","","","","html-keyboard-response","52","1972042","0.0-18.0","64","1","2025-01-31 01:22:35","af8d355d56820e421d246a7037deb6e6","68.203.249.80","Mozilla/5.0 (Windows NT 10.0; Win64; x64) AppleWebKit/537.36 (KHTML, like Gecko) Chrome/132.0.0.0 Safari/537.36","WebKit","Chrome","132.0.0.0","Windows","10.0","https://app.prolific.com/","en-US,en;q=0.9","63d87d4ba0b86684507f201d","67949641171f97c04e14fb34","679c25b5448118756ae67005","","null","<img  src='G_5.jpg' height='90'> <img   src='G_9.jpg' height='90'> <img id='selected'  src='G_7.jpg' height='90'> <img id='selected' src='G_1.jpg' height='90'> <img src='G_3.jpg' height='90'>","null","Animation0",""
"","","","","","html-keyboard-response","53","1972353","0.0-19.0","64","1","2025-01-31 01:22:35","af8d355d56820e421d246a7037deb6e6","68.203.249.80","Mozilla/5.0 (Windows NT 10.0; Win64; x64) AppleWebKit/537.36 (KHTML, like Gecko) Chrome/132.0.0.0 Safari/537.36","WebKit","Chrome","132.0.0.0","Windows","10.0","https://app.prolific.com/","en-US,en;q=0.9","63d87d4ba0b86684507f201d","67949641171f97c04e14fb34","679c25b5448118756ae67005","","null","<img  src='G_5.jpg' height='90'> <img   src='G_9.jpg' height='90'> <img   src='G_7.jpg' height='90'> <img  src='G_1.jpg' height='90'> <img src='G_3.jpg' height='90'>","null","Animation0",""
"","","","","","html-keyboard-response","54","1972866","0.0-20.0","64","1","2025-01-31 01:22:35","af8d355d56820e421d246a7037deb6e6","68.203.249.80","Mozilla/5.0 (Windows NT 10.0; Win64; x64) AppleWebKit/537.36 (KHTML, like Gecko) Chrome/132.0.0.0 Safari/537.36","WebKit","Chrome","132.0.0.0","Windows","10.0","https://app.prolific.com/","en-US,en;q=0.9","63d87d4ba0b86684507f201d","67949641171f97c04e14fb34","679c25b5448118756ae67005","","null","<img  src='G_5.jpg' height='90'> <img   src='G_9.jpg' height='90'> <img   src='G_7.jpg' height='90'> <img id='selected'  src='G_1.jpg' height='90'> <img src='G_3.jpg' height='90'>","null","Animation0",""
"","","","","","html-keyboard-response","55","1973380","0.0-21.0","64","1","2025-01-31 01:22:35","af8d355d56820e421d246a7037deb6e6","68.203.249.80","Mozilla/5.0 (Windows NT 10.0; Win64; x64) AppleWebKit/537.36 (KHTML, like Gecko) Chrome/132.0.0.0 Safari/537.36","WebKit","Chrome","132.0.0.0","Windows","10.0","https://app.prolific.com/","en-US,en;q=0.9","63d87d4ba0b86684507f201d","67949641171f97c04e14fb34","679c25b5448118756ae67005","","null","<img  src='G_5.jpg' height='90'> <img   src='G_9.jpg' height='90'> <img   src='G_7.jpg' height='90'> <img id='selected'  src='G_1.jpg' height='90'> <img id='selected' src='G_3.jpg' height='90'>","null","Animation0",""
"","","","","","html-keyboard-response","56","1973894","0.0-22.0","64","1","2025-01-31 01:22:35","af8d355d56820e421d246a7037deb6e6","68.203.249.80","Mozilla/5.0 (Windows NT 10.0; Win64; x64) AppleWebKit/537.36 (KHTML, like Gecko) Chrome/132.0.0.0 Safari/537.36","WebKit","Chrome","132.0.0.0","Windows","10.0","https://app.prolific.com/","en-US,en;q=0.9","63d87d4ba0b86684507f201d","67949641171f97c04e14fb34","679c25b5448118756ae67005","","null","<img  src='G_5.jpg' height='90'> <img   src='G_9.jpg' height='90'> <img   src='G_7.jpg' height='90'> <img id='selected'  src='G_1.jpg' height='90'> <img id='selected' src='G_3.jpg' height='90'>","null","Animation0",""
"","","","","","html-keyboard-response","57","1974204","0.0-23.0","64","1","2025-01-31 01:22:35","af8d355d56820e421d246a7037deb6e6","68.203.249.80","Mozilla/5.0 (Windows NT 10.0; Win64; x64) AppleWebKit/537.36 (KHTML, like Gecko) Chrome/132.0.0.0 Safari/537.36","WebKit","Chrome","132.0.0.0","Windows","10.0","https://app.prolific.com/","en-US,en;q=0.9","63d87d4ba0b86684507f201d","67949641171f97c04e14fb34","679c25b5448118756ae67005","","null","<img  src='G_5.jpg' height='90'> <img   src='G_9.jpg' height='90'> <img   src='G_7.jpg' height='90'> <img   src='G_1.jpg' height='90'> <img  src='G_3.jpg' height='90'>","null","Animation0",""
"","","","","","html-keyboard-response","58","1977002","0.0-24.0","64","1","2025-01-31 01:22:35","af8d355d56820e421d246a7037deb6e6","68.203.249.80","Mozilla/5.0 (Windows NT 10.0; Win64; x64) AppleWebKit/537.36 (KHTML, like Gecko) Chrome/132.0.0.0 Safari/537.36","WebKit","Chrome","132.0.0.0","Windows","10.0","https://app.prolific.com/","en-US,en;q=0.9","63d87d4ba0b86684507f201d","67949641171f97c04e14fb34","679c25b5448118756ae67005","","2795","[""Did you notice any patterns? <br><br>Press Enter to watch that example again and follow the steps of Omgne Sort.""]","enter","",""
"","","","","","html-button-response","59","1977407","0.0-25.0","64","1","2025-01-31 01:22:35","af8d355d56820e421d246a7037deb6e6","68.203.249.80","Mozilla/5.0 (Windows NT 10.0; Win64; x64) AppleWebKit/537.36 (KHTML, like Gecko) Chrome/132.0.0.0 Safari/537.36","WebKit","Chrome","132.0.0.0","Windows","10.0","https://app.prolific.com/","en-US,en;q=0.9","63d87d4ba0b86684507f201d","67949641171f97c04e14fb34","679c25b5448118756ae67005","","null","<img id='selected' src='G_9.jpg' height='90'> <img src='G_5.jpg' height='90'> <img src='G_7.jpg' height='90'> <img src='G_1.jpg' height='90'> <img src='G_3.jpg' height='90'>","null","Learning example 0",""
"","","","","","html-button-response","60","1977719","0.0-26.0","64","1","2025-01-31 01:22:35","af8d355d56820e421d246a7037deb6e6","68.203.249.80","Mozilla/5.0 (Windows NT 10.0; Win64; x64) AppleWebKit/537.36 (KHTML, like Gecko) Chrome/132.0.0.0 Safari/537.36","WebKit","Chrome","132.0.0.0","Windows","10.0","https://app.prolific.com/","en-US,en;q=0.9","63d87d4ba0b86684507f201d","67949641171f97c04e14fb34","679c25b5448118756ae67005","","null","<img id='selected' src='G_9.jpg' height='90'> <img id='selected' src='G_5.jpg' height='90'> <img src='G_7.jpg' height='90'> <img src='G_1.jpg' height='90'> <img src='G_3.jpg' height='90'>","null","Learning example 0",""
"","","","","","html-button-response","61","1978030","0.0-27.0","64","1","2025-01-31 01:22:35","af8d355d56820e421d246a7037deb6e6","68.203.249.80","Mozilla/5.0 (Windows NT 10.0; Win64; x64) AppleWebKit/537.36 (KHTML, like Gecko) Chrome/132.0.0.0 Safari/537.36","WebKit","Chrome","132.0.0.0","Windows","10.0","https://app.prolific.com/","en-US,en;q=0.9","63d87d4ba0b86684507f201d","67949641171f97c04e14fb34","679c25b5448118756ae67005","","null","<img id='swapped' src='G_5.jpg' height='90'> <img id='swapped' src='G_9.jpg' height='90'> <img src='G_7.jpg' height='90'> <img src='G_1.jpg' height='90'> <img src='G_3.jpg' height='90'>","null","Learning example 0",""
"","","","","","html-button-response","62","1989854","0.0-28.0-0.0-0.0","64","1","2025-01-31 01:22:35","af8d355d56820e421d246a7037deb6e6","68.203.249.80","Mozilla/5.0 (Windows NT 10.0; Win64; x64) AppleWebKit/537.36 (KHTML, like Gecko) Chrome/132.0.0.0 Safari/537.36","WebKit","Chrome","132.0.0.0","Windows","10.0","https://app.prolific.com/","en-US,en;q=0.9","63d87d4ba0b86684507f201d","67949641171f97c04e14fb34","679c25b5448118756ae67005","","11821","<img id='swapped' src='G_5.jpg' height='90'> <img id='swapped' src='G_9.jpg' height='90'> <img src='G_7.jpg' height='90'> <img src='G_1.jpg' height='90'> <img src='G_3.jpg' height='90'>","0","Learning example 0",""
"","","","","","html-button-response","63","1990541","0.0-28.1-0.1-0.1","64","1","2025-01-31 01:22:35","af8d355d56820e421d246a7037deb6e6","68.203.249.80","Mozilla/5.0 (Windows NT 10.0; Win64; x64) AppleWebKit/537.36 (KHTML, like Gecko) Chrome/132.0.0.0 Safari/537.36","WebKit","Chrome","132.0.0.0","Windows","10.0","https://app.prolific.com/","en-US,en;q=0.9","63d87d4ba0b86684507f201d","67949641171f97c04e14fb34","679c25b5448118756ae67005","","681","<img id='swapped' src='G_5.jpg' height='90'> <img id='swapped' src='G_9.jpg' height='90'> <img src='G_7.jpg' height='90'> <img src='G_1.jpg' height='90'> <img src='G_3.jpg' height='90'>","1","Learning example 0",""
"","","","","","html-button-response","64","1990745","0.0-29.0","64","1","2025-01-31 01:22:35","af8d355d56820e421d246a7037deb6e6","68.203.249.80","Mozilla/5.0 (Windows NT 10.0; Win64; x64) AppleWebKit/537.36 (KHTML, like Gecko) Chrome/132.0.0.0 Safari/537.36","WebKit","Chrome","132.0.0.0","Windows","10.0","https://app.prolific.com/","en-US,en;q=0.9","63d87d4ba0b86684507f201d","67949641171f97c04e14fb34","679c25b5448118756ae67005","","null","<img  src='G_5.jpg' height='90'> <img  src='G_9.jpg' height='90'> <img src='G_7.jpg' height='90'> <img src='G_1.jpg' height='90'> <img src='G_3.jpg' height='90'>","null","Learning example 0",""
"","","","","","html-button-response","65","1991150","0.0-30.0","64","1","2025-01-31 01:22:35","af8d355d56820e421d246a7037deb6e6","68.203.249.80","Mozilla/5.0 (Windows NT 10.0; Win64; x64) AppleWebKit/537.36 (KHTML, like Gecko) Chrome/132.0.0.0 Safari/537.36","WebKit","Chrome","132.0.0.0","Windows","10.0","https://app.prolific.com/","en-US,en;q=0.9","63d87d4ba0b86684507f201d","67949641171f97c04e14fb34","679c25b5448118756ae67005","","null","<img  src='G_5.jpg' height='90'> <img id='selected'  src='G_9.jpg' height='90'> <img src='G_7.jpg' height='90'> <img src='G_1.jpg' height='90'> <img src='G_3.jpg' height='90'>","null","Learning example 0",""
"","","","","","html-button-response","66","1991456","0.0-31.0","64","1","2025-01-31 01:22:35","af8d355d56820e421d246a7037deb6e6","68.203.249.80","Mozilla/5.0 (Windows NT 10.0; Win64; x64) AppleWebKit/537.36 (KHTML, like Gecko) Chrome/132.0.0.0 Safari/537.36","WebKit","Chrome","132.0.0.0","Windows","10.0","https://app.prolific.com/","en-US,en;q=0.9","63d87d4ba0b86684507f201d","67949641171f97c04e14fb34","679c25b5448118756ae67005","","null","<img  src='G_5.jpg' height='90'> <img id='selected'  src='G_9.jpg' height='90'> <img id='selected' src='G_7.jpg' height='90'> <img src='G_1.jpg' height='90'> <img src='G_3.jpg' height='90'>","null","Learning example 0",""
"","","","","","html-button-response","67","1991757","0.0-32.0","64","1","2025-01-31 01:22:35","af8d355d56820e421d246a7037deb6e6","68.203.249.80","Mozilla/5.0 (Windows NT 10.0; Win64; x64) AppleWebKit/537.36 (KHTML, like Gecko) Chrome/132.0.0.0 Safari/537.36","WebKit","Chrome","132.0.0.0","Windows","10.0","https://app.prolific.com/","en-US,en;q=0.9","63d87d4ba0b86684507f201d","67949641171f97c04e14fb34","679c25b5448118756ae67005","","297","<img  src='G_5.jpg' height='90'> <img id='selected'  src='G_9.jpg' height='90'> <img id='selected' src='G_7.jpg' height='90'> <img src='G_1.jpg' height='90'> <img src='G_3.jpg' height='90'>","2","Learning example 0",""
"","","","","","html-button-response","68","1992536","0.0-33.0-0.0-0.0","64","1","2025-01-31 01:22:35","af8d355d56820e421d246a7037deb6e6","68.203.249.80","Mozilla/5.0 (Windows NT 10.0; Win64; x64) AppleWebKit/537.36 (KHTML, like Gecko) Chrome/132.0.0.0 Safari/537.36","WebKit","Chrome","132.0.0.0","Windows","10.0","https://app.prolific.com/","en-US,en;q=0.9","63d87d4ba0b86684507f201d","67949641171f97c04e14fb34","679c25b5448118756ae67005","","773","<img  src='G_5.jpg' height='90'> <img id='selected'  src='G_9.jpg' height='90'> <img id='selected' src='G_7.jpg' height='90'> <img src='G_1.jpg' height='90'> <img src='G_3.jpg' height='90'>","1","Learning example 0",""
"","","","","","html-button-response","69","1992742","0.0-34.0","64","1","2025-01-31 01:22:35","af8d355d56820e421d246a7037deb6e6","68.203.249.80","Mozilla/5.0 (Windows NT 10.0; Win64; x64) AppleWebKit/537.36 (KHTML, like Gecko) Chrome/132.0.0.0 Safari/537.36","WebKit","Chrome","132.0.0.0","Windows","10.0","https://app.prolific.com/","en-US,en;q=0.9","63d87d4ba0b86684507f201d","67949641171f97c04e14fb34","679c25b5448118756ae67005","","null","<img  src='G_5.jpg' height='90'> <img   src='G_9.jpg' height='90'> <img  src='G_7.jpg' height='90'> <img src='G_1.jpg' height='90'> <img src='G_3.jpg' height='90'>","null","Learning example 0",""
"","","","","","html-button-response","70","1993148","0.0-35.0","64","1","2025-01-31 01:22:35","af8d355d56820e421d246a7037deb6e6","68.203.249.80","Mozilla/5.0 (Windows NT 10.0; Win64; x64) AppleWebKit/537.36 (KHTML, like Gecko) Chrome/132.0.0.0 Safari/537.36","WebKit","Chrome","132.0.0.0","Windows","10.0","https://app.prolific.com/","en-US,en;q=0.9","63d87d4ba0b86684507f201d","67949641171f97c04e14fb34","679c25b5448118756ae67005","","null","<img  src='G_5.jpg' height='90'> <img   src='G_9.jpg' height='90'> <img id='selected'  src='G_7.jpg' height='90'> <img src='G_1.jpg' height='90'> <img src='G_3.jpg' height='90'>","null","Learning example 0",""
"","","","","","html-button-response","71","1993457","0.0-36.0","64","1","2025-01-31 01:22:35","af8d355d56820e421d246a7037deb6e6","68.203.249.80","Mozilla/5.0 (Windows NT 10.0; Win64; x64) AppleWebKit/537.36 (KHTML, like Gecko) Chrome/132.0.0.0 Safari/537.36","WebKit","Chrome","132.0.0.0","Windows","10.0","https://app.prolific.com/","en-US,en;q=0.9","63d87d4ba0b86684507f201d","67949641171f97c04e14fb34","679c25b5448118756ae67005","","null","<img  src='G_5.jpg' height='90'> <img   src='G_9.jpg' height='90'> <img id='selected'  src='G_7.jpg' height='90'> <img id='selected' src='G_1.jpg' height='90'> <img src='G_3.jpg' height='90'>","null","Learning example 0",""
"","","","","","html-button-response","72","1993589","0.0-37.0","64","1","2025-01-31 01:22:35","af8d355d56820e421d246a7037deb6e6","68.203.249.80","Mozilla/5.0 (Windows NT 10.0; Win64; x64) AppleWebKit/537.36 (KHTML, like Gecko) Chrome/132.0.0.0 Safari/537.36","WebKit","Chrome","132.0.0.0","Windows","10.0","https://app.prolific.com/","en-US,en;q=0.9","63d87d4ba0b86684507f201d","67949641171f97c04e14fb34","679c25b5448118756ae67005","","129","<img  src='G_5.jpg' height='90'> <img   src='G_9.jpg' height='90'> <img id='selected'  src='G_7.jpg' height='90'> <img id='selected' src='G_1.jpg' height='90'> <img src='G_3.jpg' height='90'>","3","Learning example 0",""
"","","","","","html-button-response","73","1994197","0.0-38.0-0.0-0.0","64","1","2025-01-31 01:22:35","af8d355d56820e421d246a7037deb6e6","68.203.249.80","Mozilla/5.0 (Windows NT 10.0; Win64; x64) AppleWebKit/537.36 (KHTML, like Gecko) Chrome/132.0.0.0 Safari/537.36","WebKit","Chrome","132.0.0.0","Windows","10.0","https://app.prolific.com/","en-US,en;q=0.9","63d87d4ba0b86684507f201d","67949641171f97c04e14fb34","679c25b5448118756ae67005","","603","<img  src='G_5.jpg' height='90'> <img   src='G_9.jpg' height='90'> <img id='selected'  src='G_7.jpg' height='90'> <img id='selected' src='G_1.jpg' height='90'> <img src='G_3.jpg' height='90'>","2","Learning example 0",""
"","","","","","html-button-response","74","1994416","0.0-39.0","64","1","2025-01-31 01:22:35","af8d355d56820e421d246a7037deb6e6","68.203.249.80","Mozilla/5.0 (Windows NT 10.0; Win64; x64) AppleWebKit/537.36 (KHTML, like Gecko) Chrome/132.0.0.0 Safari/537.36","WebKit","Chrome","132.0.0.0","Windows","10.0","https://app.prolific.com/","en-US,en;q=0.9","63d87d4ba0b86684507f201d","67949641171f97c04e14fb34","679c25b5448118756ae67005","","null","<img  src='G_5.jpg' height='90'> <img   src='G_9.jpg' height='90'> <img   src='G_7.jpg' height='90'> <img  src='G_1.jpg' height='90'> <img src='G_3.jpg' height='90'>","null","Learning example 0",""
"","","","","","html-button-response","75","1994833","0.0-40.0","64","1","2025-01-31 01:22:35","af8d355d56820e421d246a7037deb6e6","68.203.249.80","Mozilla/5.0 (Windows NT 10.0; Win64; x64) AppleWebKit/537.36 (KHTML, like Gecko) Chrome/132.0.0.0 Safari/537.36","WebKit","Chrome","132.0.0.0","Windows","10.0","https://app.prolific.com/","en-US,en;q=0.9","63d87d4ba0b86684507f201d","67949641171f97c04e14fb34","679c25b5448118756ae67005","","null","<img  src='G_5.jpg' height='90'> <img   src='G_9.jpg' height='90'> <img   src='G_7.jpg' height='90'> <img id='selected'  src='G_1.jpg' height='90'> <img src='G_3.jpg' height='90'>","null","Learning example 0",""
"","","","","","html-button-response","76","1994939","0.0-41.0","64","1","2025-01-31 01:22:35","af8d355d56820e421d246a7037deb6e6","68.203.249.80","Mozilla/5.0 (Windows NT 10.0; Win64; x64) AppleWebKit/537.36 (KHTML, like Gecko) Chrome/132.0.0.0 Safari/537.36","WebKit","Chrome","132.0.0.0","Windows","10.0","https://app.prolific.com/","en-US,en;q=0.9","63d87d4ba0b86684507f201d","67949641171f97c04e14fb34","679c25b5448118756ae67005","","103","<img  src='G_5.jpg' height='90'> <img   src='G_9.jpg' height='90'> <img   src='G_7.jpg' height='90'> <img id='selected'  src='G_1.jpg' height='90'> <img id='selected' src='G_3.jpg' height='90'>","4","Learning example 0",""
"","","","","","html-button-response","77","1995244","0.0-42.0","64","1","2025-01-31 01:22:35","af8d355d56820e421d246a7037deb6e6","68.203.249.80","Mozilla/5.0 (Windows NT 10.0; Win64; x64) AppleWebKit/537.36 (KHTML, like Gecko) Chrome/132.0.0.0 Safari/537.36","WebKit","Chrome","132.0.0.0","Windows","10.0","https://app.prolific.com/","en-US,en;q=0.9","63d87d4ba0b86684507f201d","67949641171f97c04e14fb34","679c25b5448118756ae67005","","null","<img  src='G_5.jpg' height='90'> <img   src='G_9.jpg' height='90'> <img   src='G_7.jpg' height='90'> <img id='selected'  src='G_1.jpg' height='90'> <img id='selected' src='G_3.jpg' height='90'>","null","Learning example 0",""
"","","","","","html-button-response","78","1995575","0.0-43.0-0.0-0.0","64","1","2025-01-31 01:22:35","af8d355d56820e421d246a7037deb6e6","68.203.249.80","Mozilla/5.0 (Windows NT 10.0; Win64; x64) AppleWebKit/537.36 (KHTML, like Gecko) Chrome/132.0.0.0 Safari/537.36","WebKit","Chrome","132.0.0.0","Windows","10.0","https://app.prolific.com/","en-US,en;q=0.9","63d87d4ba0b86684507f201d","67949641171f97c04e14fb34","679c25b5448118756ae67005","","325","<img  src='G_5.jpg' height='90'> <img   src='G_9.jpg' height='90'> <img   src='G_7.jpg' height='90'> <img id='selected'  src='G_1.jpg' height='90'> <img id='selected' src='G_3.jpg' height='90'>","3","Learning example 0",""
"","","","","","html-button-response","79","1999223","0.0-43.1-0.1-0.1","64","1","2025-01-31 01:22:35","af8d355d56820e421d246a7037deb6e6","68.203.249.80","Mozilla/5.0 (Windows NT 10.0; Win64; x64) AppleWebKit/537.36 (KHTML, like Gecko) Chrome/132.0.0.0 Safari/537.36","WebKit","Chrome","132.0.0.0","Windows","10.0","https://app.prolific.com/","en-US,en;q=0.9","63d87d4ba0b86684507f201d","67949641171f97c04e14fb34","679c25b5448118756ae67005","","3641","<img  src='G_5.jpg' height='90'> <img   src='G_9.jpg' height='90'> <img   src='G_7.jpg' height='90'> <img id='selected'  src='G_1.jpg' height='90'> <img id='selected' src='G_3.jpg' height='90'>","2","Learning example 0",""
"","","","","","html-button-response","80","1999992","0.0-43.2-0.2-0.2","64","1","2025-01-31 01:22:35","af8d355d56820e421d246a7037deb6e6","68.203.249.80","Mozilla/5.0 (Windows NT 10.0; Win64; x64) AppleWebKit/537.36 (KHTML, like Gecko) Chrome/132.0.0.0 Safari/537.36","WebKit","Chrome","132.0.0.0","Windows","10.0","https://app.prolific.com/","en-US,en;q=0.9","63d87d4ba0b86684507f201d","67949641171f97c04e14fb34","679c25b5448118756ae67005","","760","<img  src='G_5.jpg' height='90'> <img   src='G_9.jpg' height='90'> <img   src='G_7.jpg' height='90'> <img id='selected'  src='G_1.jpg' height='90'> <img id='selected' src='G_3.jpg' height='90'>","1","Learning example 0",""
"","","","","","html-button-response","81","2001289","0.0-43.3-0.3-0.3","64","1","2025-01-31 01:22:35","af8d355d56820e421d246a7037deb6e6","68.203.249.80","Mozilla/5.0 (Windows NT 10.0; Win64; x64) AppleWebKit/537.36 (KHTML, like Gecko) Chrome/132.0.0.0 Safari/537.36","WebKit","Chrome","132.0.0.0","Windows","10.0","https://app.prolific.com/","en-US,en;q=0.9","63d87d4ba0b86684507f201d","67949641171f97c04e14fb34","679c25b5448118756ae67005","","1290","<img  src='G_5.jpg' height='90'> <img   src='G_9.jpg' height='90'> <img   src='G_7.jpg' height='90'> <img id='selected'  src='G_1.jpg' height='90'> <img id='selected' src='G_3.jpg' height='90'>","3","Learning example 0",""
"","","","","","html-button-response","82","2002637","0.0-43.4-0.4-0.4","64","1","2025-01-31 01:22:35","af8d355d56820e421d246a7037deb6e6","68.203.249.80","Mozilla/5.0 (Windows NT 10.0; Win64; x64) AppleWebKit/537.36 (KHTML, like Gecko) Chrome/132.0.0.0 Safari/537.36","WebKit","Chrome","132.0.0.0","Windows","10.0","https://app.prolific.com/","en-US,en;q=0.9","63d87d4ba0b86684507f201d","67949641171f97c04e14fb34","679c25b5448118756ae67005","","1340","<img  src='G_5.jpg' height='90'> <img   src='G_9.jpg' height='90'> <img   src='G_7.jpg' height='90'> <img id='selected'  src='G_1.jpg' height='90'> <img id='selected' src='G_3.jpg' height='90'>","0","Learning example 0",""
"","","","","","html-button-response","83","2010864","0.0-43.5-0.5-0.5","64","1","2025-01-31 01:22:35","af8d355d56820e421d246a7037deb6e6","68.203.249.80","Mozilla/5.0 (Windows NT 10.0; Win64; x64) AppleWebKit/537.36 (KHTML, like Gecko) Chrome/132.0.0.0 Safari/537.36","WebKit","Chrome","132.0.0.0","Windows","10.0","https://app.prolific.com/","en-US,en;q=0.9","63d87d4ba0b86684507f201d","67949641171f97c04e14fb34","679c25b5448118756ae67005","","8222","<img  src='G_5.jpg' height='90'> <img   src='G_9.jpg' height='90'> <img   src='G_7.jpg' height='90'> <img id='selected'  src='G_1.jpg' height='90'> <img id='selected' src='G_3.jpg' height='90'>","4","Learning example 0",""
"","","","","","html-button-response","84","2012010","0.0-43.6-0.6-0.6","64","1","2025-01-31 01:22:35","af8d355d56820e421d246a7037deb6e6","68.203.249.80","Mozilla/5.0 (Windows NT 10.0; Win64; x64) AppleWebKit/537.36 (KHTML, like Gecko) Chrome/132.0.0.0 Safari/537.36","WebKit","Chrome","132.0.0.0","Windows","10.0","https://app.prolific.com/","en-US,en;q=0.9","63d87d4ba0b86684507f201d","67949641171f97c04e14fb34","679c25b5448118756ae67005","","1141","<img  src='G_5.jpg' height='90'> <img   src='G_9.jpg' height='90'> <img   src='G_7.jpg' height='90'> <img id='selected'  src='G_1.jpg' height='90'> <img id='selected' src='G_3.jpg' height='90'>","3","Learning example 0",""
"","","","","","html-button-response","85","2012227","0.0-44.0","64","1","2025-01-31 01:22:35","af8d355d56820e421d246a7037deb6e6","68.203.249.80","Mozilla/5.0 (Windows NT 10.0; Win64; x64) AppleWebKit/537.36 (KHTML, like Gecko) Chrome/132.0.0.0 Safari/537.36","WebKit","Chrome","132.0.0.0","Windows","10.0","https://app.prolific.com/","en-US,en;q=0.9","63d87d4ba0b86684507f201d","67949641171f97c04e14fb34","679c25b5448118756ae67005","","null","<img  src='G_5.jpg' height='90'> <img   src='G_9.jpg' height='90'> <img   src='G_7.jpg' height='90'> <img   src='G_1.jpg' height='90'> <img  src='G_3.jpg' height='90'>","null","Learning example 0",""
"","","","","","html-keyboard-response","86","2017443","0.0-45.0","64","1","2025-01-31 01:22:35","af8d355d56820e421d246a7037deb6e6","68.203.249.80","Mozilla/5.0 (Windows NT 10.0; Win64; x64) AppleWebKit/537.36 (KHTML, like Gecko) Chrome/132.0.0.0 Safari/537.36","WebKit","Chrome","132.0.0.0","Windows","10.0","https://app.prolific.com/","en-US,en;q=0.9","63d87d4ba0b86684507f201d","67949641171f97c04e14fb34","679c25b5448118756ae67005","","5213","[""Final order was 1,2,3,4,5. The initial order was 2,1,3,4,5.<br>It took 1 swaps to sort it correctly with Omgne Sort. <br><br>Press Enter to continue.""]","enter","",""
"","","","","","html-keyboard-response","87","2021537","0.0-46.0","64","1","2025-01-31 01:22:35","af8d355d56820e421d246a7037deb6e6","68.203.249.80","Mozilla/5.0 (Windows NT 10.0; Win64; x64) AppleWebKit/537.36 (KHTML, like Gecko) Chrome/132.0.0.0 Safari/537.36","WebKit","Chrome","132.0.0.0","Windows","10.0","https://app.prolific.com/","en-US,en;q=0.9","63d87d4ba0b86684507f201d","67949641171f97c04e14fb34","679c25b5448118756ae67005","","4091","[""Example 2<br><br>You will watch Omnge Sort in action. Try to identify any patterns in the comparisons made by this method. <br><br>Press Enter to continue.""]","enter","",""
"","","","","","html-keyboard-response","88","2022055","0.0-47.0","64","1","2025-01-31 01:22:35","af8d355d56820e421d246a7037deb6e6","68.203.249.80","Mozilla/5.0 (Windows NT 10.0; Win64; x64) AppleWebKit/537.36 (KHTML, like Gecko) Chrome/132.0.0.0 Safari/537.36","WebKit","Chrome","132.0.0.0","Windows","10.0","https://app.prolific.com/","en-US,en;q=0.9","63d87d4ba0b86684507f201d","67949641171f97c04e14fb34","679c25b5448118756ae67005","","null","<img id='selected' src='G_1.jpg' height='90'> <img src='G_3.jpg' height='90'> <img src='G_7.jpg' height='90'> <img src='G_5.jpg' height='90'> <img src='G_8.jpg' height='90'> <img src='G_4.jpg' height='90'> <img src='G_2.jpg' height='90'> <img src='G_6.jpg' height='90'>","null","Animation1",""
"","","","","","html-keyboard-response","89","2022569","0.0-48.0","64","1","2025-01-31 01:22:35","af8d355d56820e421d246a7037deb6e6","68.203.249.80","Mozilla/5.0 (Windows NT 10.0; Win64; x64) AppleWebKit/537.36 (KHTML, like Gecko) Chrome/132.0.0.0 Safari/537.36","WebKit","Chrome","132.0.0.0","Windows","10.0","https://app.prolific.com/","en-US,en;q=0.9","63d87d4ba0b86684507f201d","67949641171f97c04e14fb34","679c25b5448118756ae67005","","null","<img id='selected' src='G_1.jpg' height='90'> <img id='selected' src='G_3.jpg' height='90'> <img src='G_7.jpg' height='90'> <img src='G_5.jpg' height='90'> <img src='G_8.jpg' height='90'> <img src='G_4.jpg' height='90'> <img src='G_2.jpg' height='90'> <img src='G_6.jpg' height='90'>","null","Animation1",""
"","","","","","html-keyboard-response","90","2023083","0.0-49.0","64","1","2025-01-31 01:22:35","af8d355d56820e421d246a7037deb6e6","68.203.249.80","Mozilla/5.0 (Windows NT 10.0; Win64; x64) AppleWebKit/537.36 (KHTML, like Gecko) Chrome/132.0.0.0 Safari/537.36","WebKit","Chrome","132.0.0.0","Windows","10.0","https://app.prolific.com/","en-US,en;q=0.9","63d87d4ba0b86684507f201d","67949641171f97c04e14fb34","679c25b5448118756ae67005","","null","<img id='selected' src='G_1.jpg' height='90'> <img id='selected' src='G_3.jpg' height='90'> <img src='G_7.jpg' height='90'> <img src='G_5.jpg' height='90'> <img src='G_8.jpg' height='90'> <img src='G_4.jpg' height='90'> <img src='G_2.jpg' height='90'> <img src='G_6.jpg' height='90'>","null","Animation1",""
"","","","","","html-keyboard-response","91","2023398","0.0-50.0","64","1","2025-01-31 01:22:35","af8d355d56820e421d246a7037deb6e6","68.203.249.80","Mozilla/5.0 (Windows NT 10.0; Win64; x64) AppleWebKit/537.36 (KHTML, like Gecko) Chrome/132.0.0.0 Safari/537.36","WebKit","Chrome","132.0.0.0","Windows","10.0","https://app.prolific.com/","en-US,en;q=0.9","63d87d4ba0b86684507f201d","67949641171f97c04e14fb34","679c25b5448118756ae67005","","null","<img  src='G_1.jpg' height='90'> <img  src='G_3.jpg' height='90'> <img src='G_7.jpg' height='90'> <img src='G_5.jpg' height='90'> <img src='G_8.jpg' height='90'> <img src='G_4.jpg' height='90'> <img src='G_2.jpg' height='90'> <img src='G_6.jpg' height='90'>","null","Animation1",""
"","","","","","html-keyboard-response","92","2023911","0.0-51.0","64","1","2025-01-31 01:22:35","af8d355d56820e421d246a7037deb6e6","68.203.249.80","Mozilla/5.0 (Windows NT 10.0; Win64; x64) AppleWebKit/537.36 (KHTML, like Gecko) Chrome/132.0.0.0 Safari/537.36","WebKit","Chrome","132.0.0.0","Windows","10.0","https://app.prolific.com/","en-US,en;q=0.9","63d87d4ba0b86684507f201d","67949641171f97c04e14fb34","679c25b5448118756ae67005","","null","<img  src='G_1.jpg' height='90'> <img id='selected'  src='G_3.jpg' height='90'> <img src='G_7.jpg' height='90'> <img src='G_5.jpg' height='90'> <img src='G_8.jpg' height='90'> <img src='G_4.jpg' height='90'> <img src='G_2.jpg' height='90'> <img src='G_6.jpg' height='90'>","null","Animation1",""
"","","","","","html-keyboard-response","93","2024426","0.0-52.0","64","1","2025-01-31 01:22:35","af8d355d56820e421d246a7037deb6e6","68.203.249.80","Mozilla/5.0 (Windows NT 10.0; Win64; x64) AppleWebKit/537.36 (KHTML, like Gecko) Chrome/132.0.0.0 Safari/537.36","WebKit","Chrome","132.0.0.0","Windows","10.0","https://app.prolific.com/","en-US,en;q=0.9","63d87d4ba0b86684507f201d","67949641171f97c04e14fb34","679c25b5448118756ae67005","","null","<img  src='G_1.jpg' height='90'> <img id='selected'  src='G_3.jpg' height='90'> <img id='selected' src='G_7.jpg' height='90'> <img src='G_5.jpg' height='90'> <img src='G_8.jpg' height='90'> <img src='G_4.jpg' height='90'> <img src='G_2.jpg' height='90'> <img src='G_6.jpg' height='90'>","null","Animation1",""
"","","","","","html-keyboard-response","94","2024936","0.0-53.0","64","1","2025-01-31 01:22:35","af8d355d56820e421d246a7037deb6e6","68.203.249.80","Mozilla/5.0 (Windows NT 10.0; Win64; x64) AppleWebKit/537.36 (KHTML, like Gecko) Chrome/132.0.0.0 Safari/537.36","WebKit","Chrome","132.0.0.0","Windows","10.0","https://app.prolific.com/","en-US,en;q=0.9","63d87d4ba0b86684507f201d","67949641171f97c04e14fb34","679c25b5448118756ae67005","","null","<img  src='G_1.jpg' height='90'> <img id='swapped' src='G_7.jpg' height='90'> <img id='swapped'  src='G_3.jpg' height='90'> <img src='G_5.jpg' height='90'> <img src='G_8.jpg' height='90'> <img src='G_4.jpg' height='90'> <img src='G_2.jpg' height='90'> <img src='G_6.jpg' height='90'>","null","Animation1",""
"","","","","","html-keyboard-response","95","2025247","0.0-54.0","64","1","2025-01-31 01:22:35","af8d355d56820e421d246a7037deb6e6","68.203.249.80","Mozilla/5.0 (Windows NT 10.0; Win64; x64) AppleWebKit/537.36 (KHTML, like Gecko) Chrome/132.0.0.0 Safari/537.36","WebKit","Chrome","132.0.0.0","Windows","10.0","https://app.prolific.com/","en-US,en;q=0.9","63d87d4ba0b86684507f201d","67949641171f97c04e14fb34","679c25b5448118756ae67005","","null","<img  src='G_1.jpg' height='90'> <img  src='G_7.jpg' height='90'> <img   src='G_3.jpg' height='90'> <img src='G_5.jpg' height='90'> <img src='G_8.jpg' height='90'> <img src='G_4.jpg' height='90'> <img src='G_2.jpg' height='90'> <img src='G_6.jpg' height='90'>","null","Animation1",""
"","","","","","html-keyboard-response","96","2025758","0.0-55.0","64","1","2025-01-31 01:22:35","af8d355d56820e421d246a7037deb6e6","68.203.249.80","Mozilla/5.0 (Windows NT 10.0; Win64; x64) AppleWebKit/537.36 (KHTML, like Gecko) Chrome/132.0.0.0 Safari/537.36","WebKit","Chrome","132.0.0.0","Windows","10.0","https://app.prolific.com/","en-US,en;q=0.9","63d87d4ba0b86684507f201d","67949641171f97c04e14fb34","679c25b5448118756ae67005","","null","<img id='selected'  src='G_1.jpg' height='90'> <img  src='G_7.jpg' height='90'> <img   src='G_3.jpg' height='90'> <img src='G_5.jpg' height='90'> <img src='G_8.jpg' height='90'> <img src='G_4.jpg' height='90'> <img src='G_2.jpg' height='90'> <img src='G_6.jpg' height='90'>","null","Animation1",""
"","","","","","html-keyboard-response","97","2026270","0.0-56.0","64","1","2025-01-31 01:22:35","af8d355d56820e421d246a7037deb6e6","68.203.249.80","Mozilla/5.0 (Windows NT 10.0; Win64; x64) AppleWebKit/537.36 (KHTML, like Gecko) Chrome/132.0.0.0 Safari/537.36","WebKit","Chrome","132.0.0.0","Windows","10.0","https://app.prolific.com/","en-US,en;q=0.9","63d87d4ba0b86684507f201d","67949641171f97c04e14fb34","679c25b5448118756ae67005","","null","<img id='selected'  src='G_1.jpg' height='90'> <img id='selected'  src='G_7.jpg' height='90'> <img   src='G_3.jpg' height='90'> <img src='G_5.jpg' height='90'> <img src='G_8.jpg' height='90'> <img src='G_4.jpg' height='90'> <img src='G_2.jpg' height='90'> <img src='G_6.jpg' height='90'>","null","Animation1",""
"","","","","","html-keyboard-response","98","2026787","0.0-57.0","64","1","2025-01-31 01:22:35","af8d355d56820e421d246a7037deb6e6","68.203.249.80","Mozilla/5.0 (Windows NT 10.0; Win64; x64) AppleWebKit/537.36 (KHTML, like Gecko) Chrome/132.0.0.0 Safari/537.36","WebKit","Chrome","132.0.0.0","Windows","10.0","https://app.prolific.com/","en-US,en;q=0.9","63d87d4ba0b86684507f201d","67949641171f97c04e14fb34","679c25b5448118756ae67005","","null","<img id='swapped'  src='G_7.jpg' height='90'> <img id='swapped'  src='G_1.jpg' height='90'> <img   src='G_3.jpg' height='90'> <img src='G_5.jpg' height='90'> <img src='G_8.jpg' height='90'> <img src='G_4.jpg' height='90'> <img src='G_2.jpg' height='90'> <img src='G_6.jpg' height='90'>","null","Animation1",""
"","","","","","html-keyboard-response","99","2027095","0.0-58.0","64","1","2025-01-31 01:22:35","af8d355d56820e421d246a7037deb6e6","68.203.249.80","Mozilla/5.0 (Windows NT 10.0; Win64; x64) AppleWebKit/537.36 (KHTML, like Gecko) Chrome/132.0.0.0 Safari/537.36","WebKit","Chrome","132.0.0.0","Windows","10.0","https://app.prolific.com/","en-US,en;q=0.9","63d87d4ba0b86684507f201d","67949641171f97c04e14fb34","679c25b5448118756ae67005","","null","<img   src='G_7.jpg' height='90'> <img   src='G_1.jpg' height='90'> <img   src='G_3.jpg' height='90'> <img src='G_5.jpg' height='90'> <img src='G_8.jpg' height='90'> <img src='G_4.jpg' height='90'> <img src='G_2.jpg' height='90'> <img src='G_6.jpg' height='90'>","null","Animation1",""
"","","","","","html-keyboard-response","100","2027609","0.0-59.0","64","1","2025-01-31 01:22:35","af8d355d56820e421d246a7037deb6e6","68.203.249.80","Mozilla/5.0 (Windows NT 10.0; Win64; x64) AppleWebKit/537.36 (KHTML, like Gecko) Chrome/132.0.0.0 Safari/537.36","WebKit","Chrome","132.0.0.0","Windows","10.0","https://app.prolific.com/","en-US,en;q=0.9","63d87d4ba0b86684507f201d","67949641171f97c04e14fb34","679c25b5448118756ae67005","","null","<img   src='G_7.jpg' height='90'> <img   src='G_1.jpg' height='90'> <img id='selected'   src='G_3.jpg' height='90'> <img src='G_5.jpg' height='90'> <img src='G_8.jpg' height='90'> <img src='G_4.jpg' height='90'> <img src='G_2.jpg' height='90'> <img src='G_6.jpg' height='90'>","null","Animation1",""
"","","","","","html-keyboard-response","101","2028123","0.0-60.0","64","1","2025-01-31 01:22:35","af8d355d56820e421d246a7037deb6e6","68.203.249.80","Mozilla/5.0 (Windows NT 10.0; Win64; x64) AppleWebKit/537.36 (KHTML, like Gecko) Chrome/132.0.0.0 Safari/537.36","WebKit","Chrome","132.0.0.0","Windows","10.0","https://app.prolific.com/","en-US,en;q=0.9","63d87d4ba0b86684507f201d","67949641171f97c04e14fb34","679c25b5448118756ae67005","","null","<img   src='G_7.jpg' height='90'> <img   src='G_1.jpg' height='90'> <img id='selected'   src='G_3.jpg' height='90'> <img id='selected' src='G_5.jpg' height='90'> <img src='G_8.jpg' height='90'> <img src='G_4.jpg' height='90'> <img src='G_2.jpg' height='90'> <img src='G_6.jpg' height='90'>","null","Animation1",""
"","","","","","html-keyboard-response","102","2028637","0.0-61.0","64","1","2025-01-31 01:22:35","af8d355d56820e421d246a7037deb6e6","68.203.249.80","Mozilla/5.0 (Windows NT 10.0; Win64; x64) AppleWebKit/537.36 (KHTML, like Gecko) Chrome/132.0.0.0 Safari/537.36","WebKit","Chrome","132.0.0.0","Windows","10.0","https://app.prolific.com/","en-US,en;q=0.9","63d87d4ba0b86684507f201d","67949641171f97c04e14fb34","679c25b5448118756ae67005","","null","<img   src='G_7.jpg' height='90'> <img   src='G_1.jpg' height='90'> <img id='swapped' src='G_5.jpg' height='90'> <img id='swapped'   src='G_3.jpg' height='90'> <img src='G_8.jpg' height='90'> <img src='G_4.jpg' height='90'> <img src='G_2.jpg' height='90'> <img src='G_6.jpg' height='90'>","null","Animation1",""
"","","","","","html-keyboard-response","103","2028948","0.0-62.0","64","1","2025-01-31 01:22:35","af8d355d56820e421d246a7037deb6e6","68.203.249.80","Mozilla/5.0 (Windows NT 10.0; Win64; x64) AppleWebKit/537.36 (KHTML, like Gecko) Chrome/132.0.0.0 Safari/537.36","WebKit","Chrome","132.0.0.0","Windows","10.0","https://app.prolific.com/","en-US,en;q=0.9","63d87d4ba0b86684507f201d","67949641171f97c04e14fb34","679c25b5448118756ae67005","","null","<img   src='G_7.jpg' height='90'> <img   src='G_1.jpg' height='90'> <img  src='G_5.jpg' height='90'> <img    src='G_3.jpg' height='90'> <img src='G_8.jpg' height='90'> <img src='G_4.jpg' height='90'> <img src='G_2.jpg' height='90'> <img src='G_6.jpg' height='90'>","null","Animation1",""
"","","","","","html-keyboard-response","104","2029461","0.0-63.0","64","1","2025-01-31 01:22:35","af8d355d56820e421d246a7037deb6e6","68.203.249.80","Mozilla/5.0 (Windows NT 10.0; Win64; x64) AppleWebKit/537.36 (KHTML, like Gecko) Chrome/132.0.0.0 Safari/537.36","WebKit","Chrome","132.0.0.0","Windows","10.0","https://app.prolific.com/","en-US,en;q=0.9","63d87d4ba0b86684507f201d","67949641171f97c04e14fb34","679c25b5448118756ae67005","","null","<img   src='G_7.jpg' height='90'> <img id='selected'   src='G_1.jpg' height='90'> <img  src='G_5.jpg' height='90'> <img    src='G_3.jpg' height='90'> <img src='G_8.jpg' height='90'> <img src='G_4.jpg' height='90'> <img src='G_2.jpg' height='90'> <img src='G_6.jpg' height='90'>","null","Animation1",""
"","","","","","html-keyboard-response","105","2029973","0.0-64.0","64","1","2025-01-31 01:22:35","af8d355d56820e421d246a7037deb6e6","68.203.249.80","Mozilla/5.0 (Windows NT 10.0; Win64; x64) AppleWebKit/537.36 (KHTML, like Gecko) Chrome/132.0.0.0 Safari/537.36","WebKit","Chrome","132.0.0.0","Windows","10.0","https://app.prolific.com/","en-US,en;q=0.9","63d87d4ba0b86684507f201d","67949641171f97c04e14fb34","679c25b5448118756ae67005","","null","<img   src='G_7.jpg' height='90'> <img id='selected'   src='G_1.jpg' height='90'> <img id='selected'  src='G_5.jpg' height='90'> <img    src='G_3.jpg' height='90'> <img src='G_8.jpg' height='90'> <img src='G_4.jpg' height='90'> <img src='G_2.jpg' height='90'> <img src='G_6.jpg' height='90'>","null","Animation1",""
"","","","","","html-keyboard-response","106","2030483","0.0-65.0","64","1","2025-01-31 01:22:35","af8d355d56820e421d246a7037deb6e6","68.203.249.80","Mozilla/5.0 (Windows NT 10.0; Win64; x64) AppleWebKit/537.36 (KHTML, like Gecko) Chrome/132.0.0.0 Safari/537.36","WebKit","Chrome","132.0.0.0","Windows","10.0","https://app.prolific.com/","en-US,en;q=0.9","63d87d4ba0b86684507f201d","67949641171f97c04e14fb34","679c25b5448118756ae67005","","null","<img   src='G_7.jpg' height='90'> <img id='swapped'  src='G_5.jpg' height='90'> <img id='swapped'   src='G_1.jpg' height='90'> <img    src='G_3.jpg' height='90'> <img src='G_8.jpg' height='90'> <img src='G_4.jpg' height='90'> <img src='G_2.jpg' height='90'> <img src='G_6.jpg' height='90'>","null","Animation1",""
"","","","","","html-keyboard-response","107","2030797","0.0-66.0","64","1","2025-01-31 01:22:35","af8d355d56820e421d246a7037deb6e6","68.203.249.80","Mozilla/5.0 (Windows NT 10.0; Win64; x64) AppleWebKit/537.36 (KHTML, like Gecko) Chrome/132.0.0.0 Safari/537.36","WebKit","Chrome","132.0.0.0","Windows","10.0","https://app.prolific.com/","en-US,en;q=0.9","63d87d4ba0b86684507f201d","67949641171f97c04e14fb34","679c25b5448118756ae67005","","null","<img   src='G_7.jpg' height='90'> <img   src='G_5.jpg' height='90'> <img    src='G_1.jpg' height='90'> <img    src='G_3.jpg' height='90'> <img src='G_8.jpg' height='90'> <img src='G_4.jpg' height='90'> <img src='G_2.jpg' height='90'> <img src='G_6.jpg' height='90'>","null","Animation1",""
"","","","","","html-keyboard-response","108","2031309","0.0-67.0","64","1","2025-01-31 01:22:35","af8d355d56820e421d246a7037deb6e6","68.203.249.80","Mozilla/5.0 (Windows NT 10.0; Win64; x64) AppleWebKit/537.36 (KHTML, like Gecko) Chrome/132.0.0.0 Safari/537.36","WebKit","Chrome","132.0.0.0","Windows","10.0","https://app.prolific.com/","en-US,en;q=0.9","63d87d4ba0b86684507f201d","67949641171f97c04e14fb34","679c25b5448118756ae67005","","null","<img id='selected'   src='G_7.jpg' height='90'> <img   src='G_5.jpg' height='90'> <img    src='G_1.jpg' height='90'> <img    src='G_3.jpg' height='90'> <img src='G_8.jpg' height='90'> <img src='G_4.jpg' height='90'> <img src='G_2.jpg' height='90'> <img src='G_6.jpg' height='90'>","null","Animation1",""
"","","","","","html-keyboard-response","109","2031822","0.0-68.0","64","1","2025-01-31 01:22:35","af8d355d56820e421d246a7037deb6e6","68.203.249.80","Mozilla/5.0 (Windows NT 10.0; Win64; x64) AppleWebKit/537.36 (KHTML, like Gecko) Chrome/132.0.0.0 Safari/537.36","WebKit","Chrome","132.0.0.0","Windows","10.0","https://app.prolific.com/","en-US,en;q=0.9","63d87d4ba0b86684507f201d","67949641171f97c04e14fb34","679c25b5448118756ae67005","","null","<img id='selected'   src='G_7.jpg' height='90'> <img id='selected'   src='G_5.jpg' height='90'> <img    src='G_1.jpg' height='90'> <img    src='G_3.jpg' height='90'> <img src='G_8.jpg' height='90'> <img src='G_4.jpg' height='90'> <img src='G_2.jpg' height='90'> <img src='G_6.jpg' height='90'>","null","Animation1",""
"","","","","","html-keyboard-response","110","2032337","0.0-69.0","64","1","2025-01-31 01:22:35","af8d355d56820e421d246a7037deb6e6","68.203.249.80","Mozilla/5.0 (Windows NT 10.0; Win64; x64) AppleWebKit/537.36 (KHTML, like Gecko) Chrome/132.0.0.0 Safari/537.36","WebKit","Chrome","132.0.0.0","Windows","10.0","https://app.prolific.com/","en-US,en;q=0.9","63d87d4ba0b86684507f201d","67949641171f97c04e14fb34","679c25b5448118756ae67005","","null","<img id='swapped'   src='G_5.jpg' height='90'> <img id='swapped'   src='G_7.jpg' height='90'> <img    src='G_1.jpg' height='90'> <img    src='G_3.jpg' height='90'> <img src='G_8.jpg' height='90'> <img src='G_4.jpg' height='90'> <img src='G_2.jpg' height='90'> <img src='G_6.jpg' height='90'>","null","Animation1",""
"","","","","","html-keyboard-response","111","2032648","0.0-70.0","64","1","2025-01-31 01:22:35","af8d355d56820e421d246a7037deb6e6","68.203.249.80","Mozilla/5.0 (Windows NT 10.0; Win64; x64) AppleWebKit/537.36 (KHTML, like Gecko) Chrome/132.0.0.0 Safari/537.36","WebKit","Chrome","132.0.0.0","Windows","10.0","https://app.prolific.com/","en-US,en;q=0.9","63d87d4ba0b86684507f201d","67949641171f97c04e14fb34","679c25b5448118756ae67005","","null","<img    src='G_5.jpg' height='90'> <img    src='G_7.jpg' height='90'> <img    src='G_1.jpg' height='90'> <img    src='G_3.jpg' height='90'> <img src='G_8.jpg' height='90'> <img src='G_4.jpg' height='90'> <img src='G_2.jpg' height='90'> <img src='G_6.jpg' height='90'>","null","Animation1",""
"","","","","","html-keyboard-response","112","2033164","0.0-71.0","64","1","2025-01-31 01:22:35","af8d355d56820e421d246a7037deb6e6","68.203.249.80","Mozilla/5.0 (Windows NT 10.0; Win64; x64) AppleWebKit/537.36 (KHTML, like Gecko) Chrome/132.0.0.0 Safari/537.36","WebKit","Chrome","132.0.0.0","Windows","10.0","https://app.prolific.com/","en-US,en;q=0.9","63d87d4ba0b86684507f201d","67949641171f97c04e14fb34","679c25b5448118756ae67005","","null","<img    src='G_5.jpg' height='90'> <img    src='G_7.jpg' height='90'> <img    src='G_1.jpg' height='90'> <img id='selected'    src='G_3.jpg' height='90'> <img src='G_8.jpg' height='90'> <img src='G_4.jpg' height='90'> <img src='G_2.jpg' height='90'> <img src='G_6.jpg' height='90'>","null","Animation1",""
"","","","","","html-keyboard-response","113","2033675","0.0-72.0","64","1","2025-01-31 01:22:35","af8d355d56820e421d246a7037deb6e6","68.203.249.80","Mozilla/5.0 (Windows NT 10.0; Win64; x64) AppleWebKit/537.36 (KHTML, like Gecko) Chrome/132.0.0.0 Safari/537.36","WebKit","Chrome","132.0.0.0","Windows","10.0","https://app.prolific.com/","en-US,en;q=0.9","63d87d4ba0b86684507f201d","67949641171f97c04e14fb34","679c25b5448118756ae67005","","null","<img    src='G_5.jpg' height='90'> <img    src='G_7.jpg' height='90'> <img    src='G_1.jpg' height='90'> <img id='selected'    src='G_3.jpg' height='90'> <img id='selected' src='G_8.jpg' height='90'> <img src='G_4.jpg' height='90'> <img src='G_2.jpg' height='90'> <img src='G_6.jpg' height='90'>","null","Animation1",""
"","","","","","html-keyboard-response","114","2034187","0.0-73.0","64","1","2025-01-31 01:22:35","af8d355d56820e421d246a7037deb6e6","68.203.249.80","Mozilla/5.0 (Windows NT 10.0; Win64; x64) AppleWebKit/537.36 (KHTML, like Gecko) Chrome/132.0.0.0 Safari/537.36","WebKit","Chrome","132.0.0.0","Windows","10.0","https://app.prolific.com/","en-US,en;q=0.9","63d87d4ba0b86684507f201d","67949641171f97c04e14fb34","679c25b5448118756ae67005","","null","<img    src='G_5.jpg' height='90'> <img    src='G_7.jpg' height='90'> <img    src='G_1.jpg' height='90'> <img id='swapped' src='G_8.jpg' height='90'> <img id='swapped'    src='G_3.jpg' height='90'> <img src='G_4.jpg' height='90'> <img src='G_2.jpg' height='90'> <img src='G_6.jpg' height='90'>","null","Animation1",""
"","","","","","html-keyboard-response","115","2034498","0.0-74.0","64","1","2025-01-31 01:22:35","af8d355d56820e421d246a7037deb6e6","68.203.249.80","Mozilla/5.0 (Windows NT 10.0; Win64; x64) AppleWebKit/537.36 (KHTML, like Gecko) Chrome/132.0.0.0 Safari/537.36","WebKit","Chrome","132.0.0.0","Windows","10.0","https://app.prolific.com/","en-US,en;q=0.9","63d87d4ba0b86684507f201d","67949641171f97c04e14fb34","679c25b5448118756ae67005","","null","<img    src='G_5.jpg' height='90'> <img    src='G_7.jpg' height='90'> <img    src='G_1.jpg' height='90'> <img  src='G_8.jpg' height='90'> <img     src='G_3.jpg' height='90'> <img src='G_4.jpg' height='90'> <img src='G_2.jpg' height='90'> <img src='G_6.jpg' height='90'>","null","Animation1",""
"","","","","","html-keyboard-response","116","2035011","0.0-75.0","64","1","2025-01-31 01:22:35","af8d355d56820e421d246a7037deb6e6","68.203.249.80","Mozilla/5.0 (Windows NT 10.0; Win64; x64) AppleWebKit/537.36 (KHTML, like Gecko) Chrome/132.0.0.0 Safari/537.36","WebKit","Chrome","132.0.0.0","Windows","10.0","https://app.prolific.com/","en-US,en;q=0.9","63d87d4ba0b86684507f201d","67949641171f97c04e14fb34","679c25b5448118756ae67005","","null","<img    src='G_5.jpg' height='90'> <img    src='G_7.jpg' height='90'> <img id='selected'    src='G_1.jpg' height='90'> <img  src='G_8.jpg' height='90'> <img     src='G_3.jpg' height='90'> <img src='G_4.jpg' height='90'> <img src='G_2.jpg' height='90'> <img src='G_6.jpg' height='90'>","null","Animation1",""
"","","","","","html-keyboard-response","117","2035526","0.0-76.0","64","1","2025-01-31 01:22:35","af8d355d56820e421d246a7037deb6e6","68.203.249.80","Mozilla/5.0 (Windows NT 10.0; Win64; x64) AppleWebKit/537.36 (KHTML, like Gecko) Chrome/132.0.0.0 Safari/537.36","WebKit","Chrome","132.0.0.0","Windows","10.0","https://app.prolific.com/","en-US,en;q=0.9","63d87d4ba0b86684507f201d","67949641171f97c04e14fb34","679c25b5448118756ae67005","","null","<img    src='G_5.jpg' height='90'> <img    src='G_7.jpg' height='90'> <img id='selected'    src='G_1.jpg' height='90'> <img id='selected'  src='G_8.jpg' height='90'> <img     src='G_3.jpg' height='90'> <img src='G_4.jpg' height='90'> <img src='G_2.jpg' height='90'> <img src='G_6.jpg' height='90'>","null","Animation1",""
"","","","","","html-keyboard-response","118","2036035","0.0-77.0","64","1","2025-01-31 01:22:35","af8d355d56820e421d246a7037deb6e6","68.203.249.80","Mozilla/5.0 (Windows NT 10.0; Win64; x64) AppleWebKit/537.36 (KHTML, like Gecko) Chrome/132.0.0.0 Safari/537.36","WebKit","Chrome","132.0.0.0","Windows","10.0","https://app.prolific.com/","en-US,en;q=0.9","63d87d4ba0b86684507f201d","67949641171f97c04e14fb34","679c25b5448118756ae67005","","null","<img    src='G_5.jpg' height='90'> <img    src='G_7.jpg' height='90'> <img id='swapped'  src='G_8.jpg' height='90'> <img id='swapped'    src='G_1.jpg' height='90'> <img     src='G_3.jpg' height='90'> <img src='G_4.jpg' height='90'> <img src='G_2.jpg' height='90'> <img src='G_6.jpg' height='90'>","null","Animation1",""
"","","","","","html-keyboard-response","119","2036345","0.0-78.0","64","1","2025-01-31 01:22:35","af8d355d56820e421d246a7037deb6e6","68.203.249.80","Mozilla/5.0 (Windows NT 10.0; Win64; x64) AppleWebKit/537.36 (KHTML, like Gecko) Chrome/132.0.0.0 Safari/537.36","WebKit","Chrome","132.0.0.0","Windows","10.0","https://app.prolific.com/","en-US,en;q=0.9","63d87d4ba0b86684507f201d","67949641171f97c04e14fb34","679c25b5448118756ae67005","","null","<img    src='G_5.jpg' height='90'> <img    src='G_7.jpg' height='90'> <img   src='G_8.jpg' height='90'> <img     src='G_1.jpg' height='90'> <img     src='G_3.jpg' height='90'> <img src='G_4.jpg' height='90'> <img src='G_2.jpg' height='90'> <img src='G_6.jpg' height='90'>","null","Animation1",""
"","","","","","html-keyboard-response","120","2036858","0.0-79.0","64","1","2025-01-31 01:22:35","af8d355d56820e421d246a7037deb6e6","68.203.249.80","Mozilla/5.0 (Windows NT 10.0; Win64; x64) AppleWebKit/537.36 (KHTML, like Gecko) Chrome/132.0.0.0 Safari/537.36","WebKit","Chrome","132.0.0.0","Windows","10.0","https://app.prolific.com/","en-US,en;q=0.9","63d87d4ba0b86684507f201d","67949641171f97c04e14fb34","679c25b5448118756ae67005","","null","<img    src='G_5.jpg' height='90'> <img id='selected'    src='G_7.jpg' height='90'> <img   src='G_8.jpg' height='90'> <img     src='G_1.jpg' height='90'> <img     src='G_3.jpg' height='90'> <img src='G_4.jpg' height='90'> <img src='G_2.jpg' height='90'> <img src='G_6.jpg' height='90'>","null","Animation1",""
"","","","","","html-keyboard-response","121","2037373","0.0-80.0","64","1","2025-01-31 01:22:35","af8d355d56820e421d246a7037deb6e6","68.203.249.80","Mozilla/5.0 (Windows NT 10.0; Win64; x64) AppleWebKit/537.36 (KHTML, like Gecko) Chrome/132.0.0.0 Safari/537.36","WebKit","Chrome","132.0.0.0","Windows","10.0","https://app.prolific.com/","en-US,en;q=0.9","63d87d4ba0b86684507f201d","67949641171f97c04e14fb34","679c25b5448118756ae67005","","null","<img    src='G_5.jpg' height='90'> <img id='selected'    src='G_7.jpg' height='90'> <img id='selected'   src='G_8.jpg' height='90'> <img     src='G_1.jpg' height='90'> <img     src='G_3.jpg' height='90'> <img src='G_4.jpg' height='90'> <img src='G_2.jpg' height='90'> <img src='G_6.jpg' height='90'>","null","Animation1",""
"","","","","","html-keyboard-response","122","2037885","0.0-81.0","64","1","2025-01-31 01:22:35","af8d355d56820e421d246a7037deb6e6","68.203.249.80","Mozilla/5.0 (Windows NT 10.0; Win64; x64) AppleWebKit/537.36 (KHTML, like Gecko) Chrome/132.0.0.0 Safari/537.36","WebKit","Chrome","132.0.0.0","Windows","10.0","https://app.prolific.com/","en-US,en;q=0.9","63d87d4ba0b86684507f201d","67949641171f97c04e14fb34","679c25b5448118756ae67005","","null","<img    src='G_5.jpg' height='90'> <img id='swapped'   src='G_8.jpg' height='90'> <img id='swapped'    src='G_7.jpg' height='90'> <img     src='G_1.jpg' height='90'> <img     src='G_3.jpg' height='90'> <img src='G_4.jpg' height='90'> <img src='G_2.jpg' height='90'> <img src='G_6.jpg' height='90'>","null","Animation1",""
"","","","","","html-keyboard-response","123","2038196","0.0-82.0","64","1","2025-01-31 01:22:35","af8d355d56820e421d246a7037deb6e6","68.203.249.80","Mozilla/5.0 (Windows NT 10.0; Win64; x64) AppleWebKit/537.36 (KHTML, like Gecko) Chrome/132.0.0.0 Safari/537.36","WebKit","Chrome","132.0.0.0","Windows","10.0","https://app.prolific.com/","en-US,en;q=0.9","63d87d4ba0b86684507f201d","67949641171f97c04e14fb34","679c25b5448118756ae67005","","null","<img    src='G_5.jpg' height='90'> <img    src='G_8.jpg' height='90'> <img     src='G_7.jpg' height='90'> <img     src='G_1.jpg' height='90'> <img     src='G_3.jpg' height='90'> <img src='G_4.jpg' height='90'> <img src='G_2.jpg' height='90'> <img src='G_6.jpg' height='90'>","null","Animation1",""
"","","","","","html-keyboard-response","124","2038708","0.0-83.0","64","1","2025-01-31 01:22:35","af8d355d56820e421d246a7037deb6e6","68.203.249.80","Mozilla/5.0 (Windows NT 10.0; Win64; x64) AppleWebKit/537.36 (KHTML, like Gecko) Chrome/132.0.0.0 Safari/537.36","WebKit","Chrome","132.0.0.0","Windows","10.0","https://app.prolific.com/","en-US,en;q=0.9","63d87d4ba0b86684507f201d","67949641171f97c04e14fb34","679c25b5448118756ae67005","","null","<img id='selected'    src='G_5.jpg' height='90'> <img    src='G_8.jpg' height='90'> <img     src='G_7.jpg' height='90'> <img     src='G_1.jpg' height='90'> <img     src='G_3.jpg' height='90'> <img src='G_4.jpg' height='90'> <img src='G_2.jpg' height='90'> <img src='G_6.jpg' height='90'>","null","Animation1",""
"","","","","","html-keyboard-response","125","2039218","0.0-84.0","64","1","2025-01-31 01:22:35","af8d355d56820e421d246a7037deb6e6","68.203.249.80","Mozilla/5.0 (Windows NT 10.0; Win64; x64) AppleWebKit/537.36 (KHTML, like Gecko) Chrome/132.0.0.0 Safari/537.36","WebKit","Chrome","132.0.0.0","Windows","10.0","https://app.prolific.com/","en-US,en;q=0.9","63d87d4ba0b86684507f201d","67949641171f97c04e14fb34","679c25b5448118756ae67005","","null","<img id='selected'    src='G_5.jpg' height='90'> <img id='selected'    src='G_8.jpg' height='90'> <img     src='G_7.jpg' height='90'> <img     src='G_1.jpg' height='90'> <img     src='G_3.jpg' height='90'> <img src='G_4.jpg' height='90'> <img src='G_2.jpg' height='90'> <img src='G_6.jpg' height='90'>","null","Animation1",""
"","","","","","html-keyboard-response","126","2039728","0.0-85.0","64","1","2025-01-31 01:22:35","af8d355d56820e421d246a7037deb6e6","68.203.249.80","Mozilla/5.0 (Windows NT 10.0; Win64; x64) AppleWebKit/537.36 (KHTML, like Gecko) Chrome/132.0.0.0 Safari/537.36","WebKit","Chrome","132.0.0.0","Windows","10.0","https://app.prolific.com/","en-US,en;q=0.9","63d87d4ba0b86684507f201d","67949641171f97c04e14fb34","679c25b5448118756ae67005","","null","<img id='selected'    src='G_5.jpg' height='90'> <img id='selected'    src='G_8.jpg' height='90'> <img     src='G_7.jpg' height='90'> <img     src='G_1.jpg' height='90'> <img     src='G_3.jpg' height='90'> <img src='G_4.jpg' height='90'> <img src='G_2.jpg' height='90'> <img src='G_6.jpg' height='90'>","null","Animation1",""
"","","","","","html-keyboard-response","127","2040039","0.0-86.0","64","1","2025-01-31 01:22:35","af8d355d56820e421d246a7037deb6e6","68.203.249.80","Mozilla/5.0 (Windows NT 10.0; Win64; x64) AppleWebKit/537.36 (KHTML, like Gecko) Chrome/132.0.0.0 Safari/537.36","WebKit","Chrome","132.0.0.0","Windows","10.0","https://app.prolific.com/","en-US,en;q=0.9","63d87d4ba0b86684507f201d","67949641171f97c04e14fb34","679c25b5448118756ae67005","","null","<img     src='G_5.jpg' height='90'> <img     src='G_8.jpg' height='90'> <img     src='G_7.jpg' height='90'> <img     src='G_1.jpg' height='90'> <img     src='G_3.jpg' height='90'> <img src='G_4.jpg' height='90'> <img src='G_2.jpg' height='90'> <img src='G_6.jpg' height='90'>","null","Animation1",""
"","","","","","html-keyboard-response","128","2040550","0.0-87.0","64","1","2025-01-31 01:22:35","af8d355d56820e421d246a7037deb6e6","68.203.249.80","Mozilla/5.0 (Windows NT 10.0; Win64; x64) AppleWebKit/537.36 (KHTML, like Gecko) Chrome/132.0.0.0 Safari/537.36","WebKit","Chrome","132.0.0.0","Windows","10.0","https://app.prolific.com/","en-US,en;q=0.9","63d87d4ba0b86684507f201d","67949641171f97c04e14fb34","679c25b5448118756ae67005","","null","<img     src='G_5.jpg' height='90'> <img     src='G_8.jpg' height='90'> <img     src='G_7.jpg' height='90'> <img     src='G_1.jpg' height='90'> <img id='selected'     src='G_3.jpg' height='90'> <img src='G_4.jpg' height='90'> <img src='G_2.jpg' height='90'> <img src='G_6.jpg' height='90'>","null","Animation1",""
"","","","","","html-keyboard-response","129","2041060","0.0-88.0","64","1","2025-01-31 01:22:35","af8d355d56820e421d246a7037deb6e6","68.203.249.80","Mozilla/5.0 (Windows NT 10.0; Win64; x64) AppleWebKit/537.36 (KHTML, like Gecko) Chrome/132.0.0.0 Safari/537.36","WebKit","Chrome","132.0.0.0","Windows","10.0","https://app.prolific.com/","en-US,en;q=0.9","63d87d4ba0b86684507f201d","67949641171f97c04e14fb34","679c25b5448118756ae67005","","null","<img     src='G_5.jpg' height='90'> <img     src='G_8.jpg' height='90'> <img     src='G_7.jpg' height='90'> <img     src='G_1.jpg' height='90'> <img id='selected'     src='G_3.jpg' height='90'> <img id='selected' src='G_4.jpg' height='90'> <img src='G_2.jpg' height='90'> <img src='G_6.jpg' height='90'>","null","Animation1",""
"","","","","","html-keyboard-response","130","2041577","0.0-89.0","64","1","2025-01-31 01:22:35","af8d355d56820e421d246a7037deb6e6","68.203.249.80","Mozilla/5.0 (Windows NT 10.0; Win64; x64) AppleWebKit/537.36 (KHTML, like Gecko) Chrome/132.0.0.0 Safari/537.36","WebKit","Chrome","132.0.0.0","Windows","10.0","https://app.prolific.com/","en-US,en;q=0.9","63d87d4ba0b86684507f201d","67949641171f97c04e14fb34","679c25b5448118756ae67005","","null","<img     src='G_5.jpg' height='90'> <img     src='G_8.jpg' height='90'> <img     src='G_7.jpg' height='90'> <img     src='G_1.jpg' height='90'> <img id='swapped' src='G_4.jpg' height='90'> <img id='swapped'     src='G_3.jpg' height='90'> <img src='G_2.jpg' height='90'> <img src='G_6.jpg' height='90'>","null","Animation1",""
"","","","","","html-keyboard-response","131","2041885","0.0-90.0","64","1","2025-01-31 01:22:35","af8d355d56820e421d246a7037deb6e6","68.203.249.80","Mozilla/5.0 (Windows NT 10.0; Win64; x64) AppleWebKit/537.36 (KHTML, like Gecko) Chrome/132.0.0.0 Safari/537.36","WebKit","Chrome","132.0.0.0","Windows","10.0","https://app.prolific.com/","en-US,en;q=0.9","63d87d4ba0b86684507f201d","67949641171f97c04e14fb34","679c25b5448118756ae67005","","null","<img     src='G_5.jpg' height='90'> <img     src='G_8.jpg' height='90'> <img     src='G_7.jpg' height='90'> <img     src='G_1.jpg' height='90'> <img  src='G_4.jpg' height='90'> <img      src='G_3.jpg' height='90'> <img src='G_2.jpg' height='90'> <img src='G_6.jpg' height='90'>","null","Animation1",""
"","","","","","html-keyboard-response","132","2042397","0.0-91.0","64","1","2025-01-31 01:22:35","af8d355d56820e421d246a7037deb6e6","68.203.249.80","Mozilla/5.0 (Windows NT 10.0; Win64; x64) AppleWebKit/537.36 (KHTML, like Gecko) Chrome/132.0.0.0 Safari/537.36","WebKit","Chrome","132.0.0.0","Windows","10.0","https://app.prolific.com/","en-US,en;q=0.9","63d87d4ba0b86684507f201d","67949641171f97c04e14fb34","679c25b5448118756ae67005","","null","<img     src='G_5.jpg' height='90'> <img     src='G_8.jpg' height='90'> <img     src='G_7.jpg' height='90'> <img id='selected'     src='G_1.jpg' height='90'> <img  src='G_4.jpg' height='90'> <img      src='G_3.jpg' height='90'> <img src='G_2.jpg' height='90'> <img src='G_6.jpg' height='90'>","null","Animation1",""
"","","","","","html-keyboard-response","133","2042908","0.0-92.0","64","1","2025-01-31 01:22:35","af8d355d56820e421d246a7037deb6e6","68.203.249.80","Mozilla/5.0 (Windows NT 10.0; Win64; x64) AppleWebKit/537.36 (KHTML, like Gecko) Chrome/132.0.0.0 Safari/537.36","WebKit","Chrome","132.0.0.0","Windows","10.0","https://app.prolific.com/","en-US,en;q=0.9","63d87d4ba0b86684507f201d","67949641171f97c04e14fb34","679c25b5448118756ae67005","","null","<img     src='G_5.jpg' height='90'> <img     src='G_8.jpg' height='90'> <img     src='G_7.jpg' height='90'> <img id='selected'     src='G_1.jpg' height='90'> <img id='selected'  src='G_4.jpg' height='90'> <img      src='G_3.jpg' height='90'> <img src='G_2.jpg' height='90'> <img src='G_6.jpg' height='90'>","null","Animation1",""
"","","","","","html-keyboard-response","134","2043425","0.0-93.0","64","1","2025-01-31 01:22:35","af8d355d56820e421d246a7037deb6e6","68.203.249.80","Mozilla/5.0 (Windows NT 10.0; Win64; x64) AppleWebKit/537.36 (KHTML, like Gecko) Chrome/132.0.0.0 Safari/537.36","WebKit","Chrome","132.0.0.0","Windows","10.0","https://app.prolific.com/","en-US,en;q=0.9","63d87d4ba0b86684507f201d","67949641171f97c04e14fb34","679c25b5448118756ae67005","","null","<img     src='G_5.jpg' height='90'> <img     src='G_8.jpg' height='90'> <img     src='G_7.jpg' height='90'> <img id='selected'     src='G_1.jpg' height='90'> <img id='selected'  src='G_4.jpg' height='90'> <img      src='G_3.jpg' height='90'> <img src='G_2.jpg' height='90'> <img src='G_6.jpg' height='90'>","null","Animation1",""
"","","","","","html-keyboard-response","135","2043733","0.0-94.0","64","1","2025-01-31 01:22:35","af8d355d56820e421d246a7037deb6e6","68.203.249.80","Mozilla/5.0 (Windows NT 10.0; Win64; x64) AppleWebKit/537.36 (KHTML, like Gecko) Chrome/132.0.0.0 Safari/537.36","WebKit","Chrome","132.0.0.0","Windows","10.0","https://app.prolific.com/","en-US,en;q=0.9","63d87d4ba0b86684507f201d","67949641171f97c04e14fb34","679c25b5448118756ae67005","","null","<img     src='G_5.jpg' height='90'> <img     src='G_8.jpg' height='90'> <img     src='G_7.jpg' height='90'> <img      src='G_1.jpg' height='90'> <img   src='G_4.jpg' height='90'> <img      src='G_3.jpg' height='90'> <img src='G_2.jpg' height='90'> <img src='G_6.jpg' height='90'>","null","Animation1",""
"","","","","","html-keyboard-response","136","2044246","0.0-95.0","64","1","2025-01-31 01:22:35","af8d355d56820e421d246a7037deb6e6","68.203.249.80","Mozilla/5.0 (Windows NT 10.0; Win64; x64) AppleWebKit/537.36 (KHTML, like Gecko) Chrome/132.0.0.0 Safari/537.36","WebKit","Chrome","132.0.0.0","Windows","10.0","https://app.prolific.com/","en-US,en;q=0.9","63d87d4ba0b86684507f201d","67949641171f97c04e14fb34","679c25b5448118756ae67005","","null","<img     src='G_5.jpg' height='90'> <img     src='G_8.jpg' height='90'> <img     src='G_7.jpg' height='90'> <img      src='G_1.jpg' height='90'> <img   src='G_4.jpg' height='90'> <img id='selected'      src='G_3.jpg' height='90'> <img src='G_2.jpg' height='90'> <img src='G_6.jpg' height='90'>","null","Animation1",""
"","","","","","html-keyboard-response","137","2044757","0.0-96.0","64","1","2025-01-31 01:22:35","af8d355d56820e421d246a7037deb6e6","68.203.249.80","Mozilla/5.0 (Windows NT 10.0; Win64; x64) AppleWebKit/537.36 (KHTML, like Gecko) Chrome/132.0.0.0 Safari/537.36","WebKit","Chrome","132.0.0.0","Windows","10.0","https://app.prolific.com/","en-US,en;q=0.9","63d87d4ba0b86684507f201d","67949641171f97c04e14fb34","679c25b5448118756ae67005","","null","<img     src='G_5.jpg' height='90'> <img     src='G_8.jpg' height='90'> <img     src='G_7.jpg' height='90'> <img      src='G_1.jpg' height='90'> <img   src='G_4.jpg' height='90'> <img id='selected'      src='G_3.jpg' height='90'> <img id='selected' src='G_2.jpg' height='90'> <img src='G_6.jpg' height='90'>","null","Animation1",""
"","","","","","html-keyboard-response","138","2045272","0.0-97.0","64","1","2025-01-31 01:22:35","af8d355d56820e421d246a7037deb6e6","68.203.249.80","Mozilla/5.0 (Windows NT 10.0; Win64; x64) AppleWebKit/537.36 (KHTML, like Gecko) Chrome/132.0.0.0 Safari/537.36","WebKit","Chrome","132.0.0.0","Windows","10.0","https://app.prolific.com/","en-US,en;q=0.9","63d87d4ba0b86684507f201d","67949641171f97c04e14fb34","679c25b5448118756ae67005","","null","<img     src='G_5.jpg' height='90'> <img     src='G_8.jpg' height='90'> <img     src='G_7.jpg' height='90'> <img      src='G_1.jpg' height='90'> <img   src='G_4.jpg' height='90'> <img id='selected'      src='G_3.jpg' height='90'> <img id='selected' src='G_2.jpg' height='90'> <img src='G_6.jpg' height='90'>","null","Animation1",""
"","","","","","html-keyboard-response","139","2045582","0.0-98.0","64","1","2025-01-31 01:22:35","af8d355d56820e421d246a7037deb6e6","68.203.249.80","Mozilla/5.0 (Windows NT 10.0; Win64; x64) AppleWebKit/537.36 (KHTML, like Gecko) Chrome/132.0.0.0 Safari/537.36","WebKit","Chrome","132.0.0.0","Windows","10.0","https://app.prolific.com/","en-US,en;q=0.9","63d87d4ba0b86684507f201d","67949641171f97c04e14fb34","679c25b5448118756ae67005","","null","<img     src='G_5.jpg' height='90'> <img     src='G_8.jpg' height='90'> <img     src='G_7.jpg' height='90'> <img      src='G_1.jpg' height='90'> <img   src='G_4.jpg' height='90'> <img       src='G_3.jpg' height='90'> <img  src='G_2.jpg' height='90'> <img src='G_6.jpg' height='90'>","null","Animation1",""
"","","","","","html-keyboard-response","140","2046094","0.0-99.0","64","1","2025-01-31 01:22:35","af8d355d56820e421d246a7037deb6e6","68.203.249.80","Mozilla/5.0 (Windows NT 10.0; Win64; x64) AppleWebKit/537.36 (KHTML, like Gecko) Chrome/132.0.0.0 Safari/537.36","WebKit","Chrome","132.0.0.0","Windows","10.0","https://app.prolific.com/","en-US,en;q=0.9","63d87d4ba0b86684507f201d","67949641171f97c04e14fb34","679c25b5448118756ae67005","","null","<img     src='G_5.jpg' height='90'> <img     src='G_8.jpg' height='90'> <img     src='G_7.jpg' height='90'> <img      src='G_1.jpg' height='90'> <img   src='G_4.jpg' height='90'> <img       src='G_3.jpg' height='90'> <img id='selected'  src='G_2.jpg' height='90'> <img src='G_6.jpg' height='90'>","null","Animation1",""
"","","","","","html-keyboard-response","141","2046606","0.0-100.0","64","1","2025-01-31 01:22:35","af8d355d56820e421d246a7037deb6e6","68.203.249.80","Mozilla/5.0 (Windows NT 10.0; Win64; x64) AppleWebKit/537.36 (KHTML, like Gecko) Chrome/132.0.0.0 Safari/537.36","WebKit","Chrome","132.0.0.0","Windows","10.0","https://app.prolific.com/","en-US,en;q=0.9","63d87d4ba0b86684507f201d","67949641171f97c04e14fb34","679c25b5448118756ae67005","","null","<img     src='G_5.jpg' height='90'> <img     src='G_8.jpg' height='90'> <img     src='G_7.jpg' height='90'> <img      src='G_1.jpg' height='90'> <img   src='G_4.jpg' height='90'> <img       src='G_3.jpg' height='90'> <img id='selected'  src='G_2.jpg' height='90'> <img id='selected' src='G_6.jpg' height='90'>","null","Animation1",""
"","","","","","html-keyboard-response","142","2047119","0.0-101.0","64","1","2025-01-31 01:22:35","af8d355d56820e421d246a7037deb6e6","68.203.249.80","Mozilla/5.0 (Windows NT 10.0; Win64; x64) AppleWebKit/537.36 (KHTML, like Gecko) Chrome/132.0.0.0 Safari/537.36","WebKit","Chrome","132.0.0.0","Windows","10.0","https://app.prolific.com/","en-US,en;q=0.9","63d87d4ba0b86684507f201d","67949641171f97c04e14fb34","679c25b5448118756ae67005","","null","<img     src='G_5.jpg' height='90'> <img     src='G_8.jpg' height='90'> <img     src='G_7.jpg' height='90'> <img      src='G_1.jpg' height='90'> <img   src='G_4.jpg' height='90'> <img       src='G_3.jpg' height='90'> <img id='swapped' src='G_6.jpg' height='90'> <img id='swapped'  src='G_2.jpg' height='90'>","null","Animation1",""
"","","","","","html-keyboard-response","143","2047430","0.0-102.0","64","1","2025-01-31 01:22:35","af8d355d56820e421d246a7037deb6e6","68.203.249.80","Mozilla/5.0 (Windows NT 10.0; Win64; x64) AppleWebKit/537.36 (KHTML, like Gecko) Chrome/132.0.0.0 Safari/537.36","WebKit","Chrome","132.0.0.0","Windows","10.0","https://app.prolific.com/","en-US,en;q=0.9","63d87d4ba0b86684507f201d","67949641171f97c04e14fb34","679c25b5448118756ae67005","","null","<img     src='G_5.jpg' height='90'> <img     src='G_8.jpg' height='90'> <img     src='G_7.jpg' height='90'> <img      src='G_1.jpg' height='90'> <img   src='G_4.jpg' height='90'> <img       src='G_3.jpg' height='90'> <img  src='G_6.jpg' height='90'> <img   src='G_2.jpg' height='90'>","null","Animation1",""
"","","","","","html-keyboard-response","144","2047941","0.0-103.0","64","1","2025-01-31 01:22:35","af8d355d56820e421d246a7037deb6e6","68.203.249.80","Mozilla/5.0 (Windows NT 10.0; Win64; x64) AppleWebKit/537.36 (KHTML, like Gecko) Chrome/132.0.0.0 Safari/537.36","WebKit","Chrome","132.0.0.0","Windows","10.0","https://app.prolific.com/","en-US,en;q=0.9","63d87d4ba0b86684507f201d","67949641171f97c04e14fb34","679c25b5448118756ae67005","","null","<img     src='G_5.jpg' height='90'> <img     src='G_8.jpg' height='90'> <img     src='G_7.jpg' height='90'> <img      src='G_1.jpg' height='90'> <img   src='G_4.jpg' height='90'> <img id='selected'       src='G_3.jpg' height='90'> <img  src='G_6.jpg' height='90'> <img   src='G_2.jpg' height='90'>","null","Animation1",""
"","","","","","html-keyboard-response","145","2048455","0.0-104.0","64","1","2025-01-31 01:22:35","af8d355d56820e421d246a7037deb6e6","68.203.249.80","Mozilla/5.0 (Windows NT 10.0; Win64; x64) AppleWebKit/537.36 (KHTML, like Gecko) Chrome/132.0.0.0 Safari/537.36","WebKit","Chrome","132.0.0.0","Windows","10.0","https://app.prolific.com/","en-US,en;q=0.9","63d87d4ba0b86684507f201d","67949641171f97c04e14fb34","679c25b5448118756ae67005","","null","<img     src='G_5.jpg' height='90'> <img     src='G_8.jpg' height='90'> <img     src='G_7.jpg' height='90'> <img      src='G_1.jpg' height='90'> <img   src='G_4.jpg' height='90'> <img id='selected'       src='G_3.jpg' height='90'> <img id='selected'  src='G_6.jpg' height='90'> <img   src='G_2.jpg' height='90'>","null","Animation1",""
"","","","","","html-keyboard-response","146","2048972","0.0-105.0","64","1","2025-01-31 01:22:35","af8d355d56820e421d246a7037deb6e6","68.203.249.80","Mozilla/5.0 (Windows NT 10.0; Win64; x64) AppleWebKit/537.36 (KHTML, like Gecko) Chrome/132.0.0.0 Safari/537.36","WebKit","Chrome","132.0.0.0","Windows","10.0","https://app.prolific.com/","en-US,en;q=0.9","63d87d4ba0b86684507f201d","67949641171f97c04e14fb34","679c25b5448118756ae67005","","null","<img     src='G_5.jpg' height='90'> <img     src='G_8.jpg' height='90'> <img     src='G_7.jpg' height='90'> <img      src='G_1.jpg' height='90'> <img   src='G_4.jpg' height='90'> <img id='selected'       src='G_3.jpg' height='90'> <img id='selected'  src='G_6.jpg' height='90'> <img   src='G_2.jpg' height='90'>","null","Animation1",""
"","","","","","html-keyboard-response","147","2049281","0.0-106.0","64","1","2025-01-31 01:22:35","af8d355d56820e421d246a7037deb6e6","68.203.249.80","Mozilla/5.0 (Windows NT 10.0; Win64; x64) AppleWebKit/537.36 (KHTML, like Gecko) Chrome/132.0.0.0 Safari/537.36","WebKit","Chrome","132.0.0.0","Windows","10.0","https://app.prolific.com/","en-US,en;q=0.9","63d87d4ba0b86684507f201d","67949641171f97c04e14fb34","679c25b5448118756ae67005","","null","<img     src='G_5.jpg' height='90'> <img     src='G_8.jpg' height='90'> <img     src='G_7.jpg' height='90'> <img      src='G_1.jpg' height='90'> <img   src='G_4.jpg' height='90'> <img        src='G_3.jpg' height='90'> <img   src='G_6.jpg' height='90'> <img   src='G_2.jpg' height='90'>","null","Animation1",""
"","","","","","html-keyboard-response","148","2055487","0.0-107.0","64","1","2025-01-31 01:22:35","af8d355d56820e421d246a7037deb6e6","68.203.249.80","Mozilla/5.0 (Windows NT 10.0; Win64; x64) AppleWebKit/537.36 (KHTML, like Gecko) Chrome/132.0.0.0 Safari/537.36","WebKit","Chrome","132.0.0.0","Windows","10.0","https://app.prolific.com/","en-US,en;q=0.9","63d87d4ba0b86684507f201d","67949641171f97c04e14fb34","679c25b5448118756ae67005","","6202","[""Did you notice any patterns? <br><br>Press Enter to watch that example again and follow the steps of Omgne Sort.""]","enter","",""
"","","","","","html-button-response","149","2055900","0.0-108.0","64","1","2025-01-31 01:22:35","af8d355d56820e421d246a7037deb6e6","68.203.249.80","Mozilla/5.0 (Windows NT 10.0; Win64; x64) AppleWebKit/537.36 (KHTML, like Gecko) Chrome/132.0.0.0 Safari/537.36","WebKit","Chrome","132.0.0.0","Windows","10.0","https://app.prolific.com/","en-US,en;q=0.9","63d87d4ba0b86684507f201d","67949641171f97c04e14fb34","679c25b5448118756ae67005","","null","<img id='selected' src='G_1.jpg' height='90'> <img src='G_3.jpg' height='90'> <img src='G_7.jpg' height='90'> <img src='G_5.jpg' height='90'> <img src='G_8.jpg' height='90'> <img src='G_4.jpg' height='90'> <img src='G_2.jpg' height='90'> <img src='G_6.jpg' height='90'>","null","Learning example 1",""
"","","","","","html-button-response","150","2056212","0.0-109.0","64","1","2025-01-31 01:22:35","af8d355d56820e421d246a7037deb6e6","68.203.249.80","Mozilla/5.0 (Windows NT 10.0; Win64; x64) AppleWebKit/537.36 (KHTML, like Gecko) Chrome/132.0.0.0 Safari/537.36","WebKit","Chrome","132.0.0.0","Windows","10.0","https://app.prolific.com/","en-US,en;q=0.9","63d87d4ba0b86684507f201d","67949641171f97c04e14fb34","679c25b5448118756ae67005","","null","<img id='selected' src='G_1.jpg' height='90'> <img id='selected' src='G_3.jpg' height='90'> <img src='G_7.jpg' height='90'> <img src='G_5.jpg' height='90'> <img src='G_8.jpg' height='90'> <img src='G_4.jpg' height='90'> <img src='G_2.jpg' height='90'> <img src='G_6.jpg' height='90'>","null","Learning example 1",""
"","","","","","html-button-response","151","2056524","0.0-110.0","64","1","2025-01-31 01:22:35","af8d355d56820e421d246a7037deb6e6","68.203.249.80","Mozilla/5.0 (Windows NT 10.0; Win64; x64) AppleWebKit/537.36 (KHTML, like Gecko) Chrome/132.0.0.0 Safari/537.36","WebKit","Chrome","132.0.0.0","Windows","10.0","https://app.prolific.com/","en-US,en;q=0.9","63d87d4ba0b86684507f201d","67949641171f97c04e14fb34","679c25b5448118756ae67005","","null","<img id='selected' src='G_1.jpg' height='90'> <img id='selected' src='G_3.jpg' height='90'> <img src='G_7.jpg' height='90'> <img src='G_5.jpg' height='90'> <img src='G_8.jpg' height='90'> <img src='G_4.jpg' height='90'> <img src='G_2.jpg' height='90'> <img src='G_6.jpg' height='90'>","null","Learning example 1",""
