"success","timeout","failed_images","failed_audio","failed_video","trial_type","trial_index","time_elapsed","internal_node_id","run_id","condition","recorded_at","source_code_version","ip","user_agent","device","browser","browser_version","platform","platform_version","referer","accept_language","PROLIFIC_PID","STUDY_ID","SESSION_ID","view_history","rt","stimulus","response","phase"
"true","false","[]","[]","[]","preload","0","291","0.0-0.0","65","1","2025-01-31 01:23:06","af8d355d56820e421d246a7037deb6e6","98.24.246.147","Mozilla/5.0 (Windows NT 10.0; Win64; x64) AppleWebKit/537.36 (KHTML, like Gecko) Chrome/132.0.0.0 Safari/537.36","WebKit","Chrome","132.0.0.0","Windows","10.0","https://app.prolific.com/","en-US,en;q=0.9","63656699c6cdc76f67843db5","67949641171f97c04e14fb34","679c25ebf202730c1899a5fa","","","","",""
"","","","","","instructions","1","13604","0.0-1.0","65","1","2025-01-31 01:23:06","af8d355d56820e421d246a7037deb6e6","98.24.246.147","Mozilla/5.0 (Windows NT 10.0; Win64; x64) AppleWebKit/537.36 (KHTML, like Gecko) Chrome/132.0.0.0 Safari/537.36","WebKit","Chrome","132.0.0.0","Windows","10.0","https://app.prolific.com/","en-US,en;q=0.9","63656699c6cdc76f67843db5","67949641171f97c04e14fb34","679c25ebf202730c1899a5fa","[{""page_index"":0,""viewing_time"":13313}]","13313","","",""
"","","","","","html-keyboard-response","2","14120","0.0-2.0","65","1","2025-01-31 01:23:06","af8d355d56820e421d246a7037deb6e6","98.24.246.147","Mozilla/5.0 (Windows NT 10.0; Win64; x64) AppleWebKit/537.36 (KHTML, like Gecko) Chrome/132.0.0.0 Safari/537.36","WebKit","Chrome","132.0.0.0","Windows","10.0","https://app.prolific.com/","en-US,en;q=0.9","63656699c6cdc76f67843db5","67949641171f97c04e14fb34","679c25ebf202730c1899a5fa","","null","<p> + <p/>","null",""
"","","","","","instructions","3","55445","0.0-3.0","65","1","2025-01-31 01:23:06","af8d355d56820e421d246a7037deb6e6","98.24.246.147","Mozilla/5.0 (Windows NT 10.0; Win64; x64) AppleWebKit/537.36 (KHTML, like Gecko) Chrome/132.0.0.0 Safari/537.36","WebKit","Chrome","132.0.0.0","Windows","10.0","https://app.prolific.com/","en-US,en;q=0.9","63656699c6cdc76f67843db5","67949641171f97c04e14fb34","679c25ebf202730c1899a5fa","[{""page_index"":0,""viewing_time"":2236},{""page_index"":1,""viewing_time"":14744},{""page_index"":2,""viewing_time"":12392},{""page_index"":3,""viewing_time"":4504},{""page_index"":4,""viewing_time"":7448}]","41324","","",""
"","","","","","html-button-response","4","61100","0.0-4.0-0.0-0.0","65","1","2025-01-31 01:23:06","af8d355d56820e421d246a7037deb6e6","98.24.246.147","Mozilla/5.0 (Windows NT 10.0; Win64; x64) AppleWebKit/537.36 (KHTML, like Gecko) Chrome/132.0.0.0 Safari/537.36","WebKit","Chrome","132.0.0.0","Windows","10.0","https://app.prolific.com/","en-US,en;q=0.9","63656699c6cdc76f67843db5","67949641171f97c04e14fb34","679c25ebf202730c1899a5fa","","5654","","0","Intro Trial"
"","","","","","html-button-response","5","65437","0.0-4.1-0.1-0.1","65","1","2025-01-31 01:23:06","af8d355d56820e421d246a7037deb6e6","98.24.246.147","Mozilla/5.0 (Windows NT 10.0; Win64; x64) AppleWebKit/537.36 (KHTML, like Gecko) Chrome/132.0.0.0 Safari/537.36","WebKit","Chrome","132.0.0.0","Windows","10.0","https://app.prolific.com/","en-US,en;q=0.9","63656699c6cdc76f67843db5","67949641171f97c04e14fb34","679c25ebf202730c1899a5fa","","4336","","2","Intro Trial"
"","","","","","html-button-response","6","74096","0.0-4.2-0.2-0.2","65","1","2025-01-31 01:23:06","af8d355d56820e421d246a7037deb6e6","98.24.246.147","Mozilla/5.0 (Windows NT 10.0; Win64; x64) AppleWebKit/537.36 (KHTML, like Gecko) Chrome/132.0.0.0 Safari/537.36","WebKit","Chrome","132.0.0.0","Windows","10.0","https://app.prolific.com/","en-US,en;q=0.9","63656699c6cdc76f67843db5","67949641171f97c04e14fb34","679c25ebf202730c1899a5fa","","8658","","0","Intro Trial"
"","","","","","html-button-response","7","75856","0.0-4.3-0.3-0.3","65","1","2025-01-31 01:23:06","af8d355d56820e421d246a7037deb6e6","98.24.246.147","Mozilla/5.0 (Windows NT 10.0; Win64; x64) AppleWebKit/537.36 (KHTML, like Gecko) Chrome/132.0.0.0 Safari/537.36","WebKit","Chrome","132.0.0.0","Windows","10.0","https://app.prolific.com/","en-US,en;q=0.9","63656699c6cdc76f67843db5","67949641171f97c04e14fb34","679c25ebf202730c1899a5fa","","1758","","4","Intro Trial"
"","","","","","html-button-response","8","86911","0.0-4.4-0.4-0.4","65","1","2025-01-31 01:23:06","af8d355d56820e421d246a7037deb6e6","98.24.246.147","Mozilla/5.0 (Windows NT 10.0; Win64; x64) AppleWebKit/537.36 (KHTML, like Gecko) Chrome/132.0.0.0 Safari/537.36","WebKit","Chrome","132.0.0.0","Windows","10.0","https://app.prolific.com/","en-US,en;q=0.9","63656699c6cdc76f67843db5","67949641171f97c04e14fb34","679c25ebf202730c1899a5fa","","11054","","2","Intro Trial"
"","","","","","html-button-response","9","87749","0.0-4.5-0.5-0.5","65","1","2025-01-31 01:23:06","af8d355d56820e421d246a7037deb6e6","98.24.246.147","Mozilla/5.0 (Windows NT 10.0; Win64; x64) AppleWebKit/537.36 (KHTML, like Gecko) Chrome/132.0.0.0 Safari/537.36","WebKit","Chrome","132.0.0.0","Windows","10.0","https://app.prolific.com/","en-US,en;q=0.9","63656699c6cdc76f67843db5","67949641171f97c04e14fb34","679c25ebf202730c1899a5fa","","837","","1","Intro Trial"
"","","","","","html-button-response","10","90401","0.0-4.6-0.6-0.6","65","1","2025-01-31 01:23:06","af8d355d56820e421d246a7037deb6e6","98.24.246.147","Mozilla/5.0 (Windows NT 10.0; Win64; x64) AppleWebKit/537.36 (KHTML, like Gecko) Chrome/132.0.0.0 Safari/537.36","WebKit","Chrome","132.0.0.0","Windows","10.0","https://app.prolific.com/","en-US,en;q=0.9","63656699c6cdc76f67843db5","67949641171f97c04e14fb34","679c25ebf202730c1899a5fa","","2650","","3","Intro Trial"
"","","","","","html-button-response","11","91418","0.0-4.7-0.7-0.7","65","1","2025-01-31 01:23:06","af8d355d56820e421d246a7037deb6e6","98.24.246.147","Mozilla/5.0 (Windows NT 10.0; Win64; x64) AppleWebKit/537.36 (KHTML, like Gecko) Chrome/132.0.0.0 Safari/537.36","WebKit","Chrome","132.0.0.0","Windows","10.0","https://app.prolific.com/","en-US,en;q=0.9","63656699c6cdc76f67843db5","67949641171f97c04e14fb34","679c25ebf202730c1899a5fa","","1016","","1","Intro Trial"
"","","","","","html-button-response","12","93316","0.0-4.8-0.8-0.8","65","1","2025-01-31 01:23:06","af8d355d56820e421d246a7037deb6e6","98.24.246.147","Mozilla/5.0 (Windows NT 10.0; Win64; x64) AppleWebKit/537.36 (KHTML, like Gecko) Chrome/132.0.0.0 Safari/537.36","WebKit","Chrome","132.0.0.0","Windows","10.0","https://app.prolific.com/","en-US,en;q=0.9","63656699c6cdc76f67843db5","67949641171f97c04e14fb34","679c25ebf202730c1899a5fa","","1897","","0","Intro Trial"
"","","","","","html-button-response","13","94359","0.0-4.9-0.9-0.9","65","1","2025-01-31 01:23:06","af8d355d56820e421d246a7037deb6e6","98.24.246.147","Mozilla/5.0 (Windows NT 10.0; Win64; x64) AppleWebKit/537.36 (KHTML, like Gecko) Chrome/132.0.0.0 Safari/537.36","WebKit","Chrome","132.0.0.0","Windows","10.0","https://app.prolific.com/","en-US,en;q=0.9","63656699c6cdc76f67843db5","67949641171f97c04e14fb34","679c25ebf202730c1899a5fa","","1042","","4","Intro Trial"
"","","","","","html-button-response","14","95231","0.0-4.10-0.10-0.10","65","1","2025-01-31 01:23:06","af8d355d56820e421d246a7037deb6e6","98.24.246.147","Mozilla/5.0 (Windows NT 10.0; Win64; x64) AppleWebKit/537.36 (KHTML, like Gecko) Chrome/132.0.0.0 Safari/537.36","WebKit","Chrome","132.0.0.0","Windows","10.0","https://app.prolific.com/","en-US,en;q=0.9","63656699c6cdc76f67843db5","67949641171f97c04e14fb34","679c25ebf202730c1899a5fa","","871","","5","Intro Trial"
"","","","","","html-keyboard-response","15","111286","0.0-5.0","65","1","2025-01-31 01:23:06","af8d355d56820e421d246a7037deb6e6","98.24.246.147","Mozilla/5.0 (Windows NT 10.0; Win64; x64) AppleWebKit/537.36 (KHTML, like Gecko) Chrome/132.0.0.0 Safari/537.36","WebKit","Chrome","132.0.0.0","Windows","10.0","https://app.prolific.com/","en-US,en;q=0.9","63656699c6cdc76f67843db5","67949641171f97c04e14fb34","679c25ebf202730c1899a5fa","","16053","[""You sorted incorrectly by using the balance 5 times. <br><br> <img src='G_5.jpg' height='90'><img src='G_2.jpg' height='90'><img src='G_1.jpg' height='90'><img src='G_4.jpg' height='90'><img src='G_3.jpg' height='90'><br><br> Your final order is 1,2,4,5,3<br><br><br>Omgne Sort in this game will allow you to sort correctly by using the balance 8 times. Press Enter to learn it!""]","enter",""
"","","","","","html-keyboard-response","16","115053","0.0-6.0","65","1","2025-01-31 01:23:06","af8d355d56820e421d246a7037deb6e6","98.24.246.147","Mozilla/5.0 (Windows NT 10.0; Win64; x64) AppleWebKit/537.36 (KHTML, like Gecko) Chrome/132.0.0.0 Safari/537.36","WebKit","Chrome","132.0.0.0","Windows","10.0","https://app.prolific.com/","en-US,en;q=0.9","63656699c6cdc76f67843db5","67949641171f97c04e14fb34","679c25ebf202730c1899a5fa","","3767","<p>Welcome to the learning phase! <br><br> You will learn by six examples. The following learning trials will not be used to calculate your performance. <br><br> Press Enter to continue.<p/>","enter",""
"","","","","","html-keyboard-response","17","119589","0.0-7.0","65","1","2025-01-31 01:23:06","af8d355d56820e421d246a7037deb6e6","98.24.246.147","Mozilla/5.0 (Windows NT 10.0; Win64; x64) AppleWebKit/537.36 (KHTML, like Gecko) Chrome/132.0.0.0 Safari/537.36","WebKit","Chrome","132.0.0.0","Windows","10.0","https://app.prolific.com/","en-US,en;q=0.9","63656699c6cdc76f67843db5","67949641171f97c04e14fb34","679c25ebf202730c1899a5fa","","4536","[""Example 1<br><br>You will watch Omnge Sort in action. Try to identify any patterns in the comparisons made by this method. <br><br>Press Enter to continue.""]","enter",""
"","","","","","html-keyboard-response","18","120103","0.0-8.0","65","1","2025-01-31 01:23:06","af8d355d56820e421d246a7037deb6e6","98.24.246.147","Mozilla/5.0 (Windows NT 10.0; Win64; x64) AppleWebKit/537.36 (KHTML, like Gecko) Chrome/132.0.0.0 Safari/537.36","WebKit","Chrome","132.0.0.0","Windows","10.0","https://app.prolific.com/","en-US,en;q=0.9","63656699c6cdc76f67843db5","67949641171f97c04e14fb34","679c25ebf202730c1899a5fa","","null","<img id='selected' src='G_7.jpg' height='90'> <img src='G_9.jpg' height='90'> <img src='G_5.jpg' height='90'> <img src='G_3.jpg' height='90'> <img src='G_1.jpg' height='90'>","null","Animation0"
"","","","","","html-keyboard-response","19","120617","0.0-9.0","65","1","2025-01-31 01:23:06","af8d355d56820e421d246a7037deb6e6","98.24.246.147","Mozilla/5.0 (Windows NT 10.0; Win64; x64) AppleWebKit/537.36 (KHTML, like Gecko) Chrome/132.0.0.0 Safari/537.36","WebKit","Chrome","132.0.0.0","Windows","10.0","https://app.prolific.com/","en-US,en;q=0.9","63656699c6cdc76f67843db5","67949641171f97c04e14fb34","679c25ebf202730c1899a5fa","","null","<img id='selected' src='G_7.jpg' height='90'> <img id='selected' src='G_9.jpg' height='90'> <img src='G_5.jpg' height='90'> <img src='G_3.jpg' height='90'> <img src='G_1.jpg' height='90'>","null","Animation0"
"","","","","","html-keyboard-response","20","121118","0.0-10.0","65","1","2025-01-31 01:23:06","af8d355d56820e421d246a7037deb6e6","98.24.246.147","Mozilla/5.0 (Windows NT 10.0; Win64; x64) AppleWebKit/537.36 (KHTML, like Gecko) Chrome/132.0.0.0 Safari/537.36","WebKit","Chrome","132.0.0.0","Windows","10.0","https://app.prolific.com/","en-US,en;q=0.9","63656699c6cdc76f67843db5","67949641171f97c04e14fb34","679c25ebf202730c1899a5fa","","null","<img id='swapped' src='G_9.jpg' height='90'> <img id='swapped' src='G_7.jpg' height='90'> <img src='G_5.jpg' height='90'> <img src='G_3.jpg' height='90'> <img src='G_1.jpg' height='90'>","null","Animation0"
"","","","","","html-keyboard-response","21","121427","0.0-11.0","65","1","2025-01-31 01:23:06","af8d355d56820e421d246a7037deb6e6","98.24.246.147","Mozilla/5.0 (Windows NT 10.0; Win64; x64) AppleWebKit/537.36 (KHTML, like Gecko) Chrome/132.0.0.0 Safari/537.36","WebKit","Chrome","132.0.0.0","Windows","10.0","https://app.prolific.com/","en-US,en;q=0.9","63656699c6cdc76f67843db5","67949641171f97c04e14fb34","679c25ebf202730c1899a5fa","","null","<img  src='G_9.jpg' height='90'> <img  src='G_7.jpg' height='90'> <img src='G_5.jpg' height='90'> <img src='G_3.jpg' height='90'> <img src='G_1.jpg' height='90'>","null","Animation0"
"","","","","","html-keyboard-response","22","121938","0.0-12.0","65","1","2025-01-31 01:23:06","af8d355d56820e421d246a7037deb6e6","98.24.246.147","Mozilla/5.0 (Windows NT 10.0; Win64; x64) AppleWebKit/537.36 (KHTML, like Gecko) Chrome/132.0.0.0 Safari/537.36","WebKit","Chrome","132.0.0.0","Windows","10.0","https://app.prolific.com/","en-US,en;q=0.9","63656699c6cdc76f67843db5","67949641171f97c04e14fb34","679c25ebf202730c1899a5fa","","null","<img  src='G_9.jpg' height='90'> <img id='selected'  src='G_7.jpg' height='90'> <img src='G_5.jpg' height='90'> <img src='G_3.jpg' height='90'> <img src='G_1.jpg' height='90'>","null","Animation0"
"","","","","","html-keyboard-response","23","122451","0.0-13.0","65","1","2025-01-31 01:23:06","af8d355d56820e421d246a7037deb6e6","98.24.246.147","Mozilla/5.0 (Windows NT 10.0; Win64; x64) AppleWebKit/537.36 (KHTML, like Gecko) Chrome/132.0.0.0 Safari/537.36","WebKit","Chrome","132.0.0.0","Windows","10.0","https://app.prolific.com/","en-US,en;q=0.9","63656699c6cdc76f67843db5","67949641171f97c04e14fb34","679c25ebf202730c1899a5fa","","null","<img  src='G_9.jpg' height='90'> <img id='selected'  src='G_7.jpg' height='90'> <img id='selected' src='G_5.jpg' height='90'> <img src='G_3.jpg' height='90'> <img src='G_1.jpg' height='90'>","null","Animation0"
"","","","","","html-keyboard-response","24","122955","0.0-14.0","65","1","2025-01-31 01:23:06","af8d355d56820e421d246a7037deb6e6","98.24.246.147","Mozilla/5.0 (Windows NT 10.0; Win64; x64) AppleWebKit/537.36 (KHTML, like Gecko) Chrome/132.0.0.0 Safari/537.36","WebKit","Chrome","132.0.0.0","Windows","10.0","https://app.prolific.com/","en-US,en;q=0.9","63656699c6cdc76f67843db5","67949641171f97c04e14fb34","679c25ebf202730c1899a5fa","","null","<img  src='G_9.jpg' height='90'> <img id='selected'  src='G_7.jpg' height='90'> <img id='selected' src='G_5.jpg' height='90'> <img src='G_3.jpg' height='90'> <img src='G_1.jpg' height='90'>","null","Animation0"
"","","","","","html-keyboard-response","25","123260","0.0-15.0","65","1","2025-01-31 01:23:06","af8d355d56820e421d246a7037deb6e6","98.24.246.147","Mozilla/5.0 (Windows NT 10.0; Win64; x64) AppleWebKit/537.36 (KHTML, like Gecko) Chrome/132.0.0.0 Safari/537.36","WebKit","Chrome","132.0.0.0","Windows","10.0","https://app.prolific.com/","en-US,en;q=0.9","63656699c6cdc76f67843db5","67949641171f97c04e14fb34","679c25ebf202730c1899a5fa","","null","<img  src='G_9.jpg' height='90'> <img   src='G_7.jpg' height='90'> <img  src='G_5.jpg' height='90'> <img src='G_3.jpg' height='90'> <img src='G_1.jpg' height='90'>","null","Animation0"
"","","","","","html-keyboard-response","26","123768","0.0-16.0","65","1","2025-01-31 01:23:06","af8d355d56820e421d246a7037deb6e6","98.24.246.147","Mozilla/5.0 (Windows NT 10.0; Win64; x64) AppleWebKit/537.36 (KHTML, like Gecko) Chrome/132.0.0.0 Safari/537.36","WebKit","Chrome","132.0.0.0","Windows","10.0","https://app.prolific.com/","en-US,en;q=0.9","63656699c6cdc76f67843db5","67949641171f97c04e14fb34","679c25ebf202730c1899a5fa","","null","<img  src='G_9.jpg' height='90'> <img   src='G_7.jpg' height='90'> <img id='selected'  src='G_5.jpg' height='90'> <img src='G_3.jpg' height='90'> <img src='G_1.jpg' height='90'>","null","Animation0"
"","","","","","html-keyboard-response","27","124270","0.0-17.0","65","1","2025-01-31 01:23:06","af8d355d56820e421d246a7037deb6e6","98.24.246.147","Mozilla/5.0 (Windows NT 10.0; Win64; x64) AppleWebKit/537.36 (KHTML, like Gecko) Chrome/132.0.0.0 Safari/537.36","WebKit","Chrome","132.0.0.0","Windows","10.0","https://app.prolific.com/","en-US,en;q=0.9","63656699c6cdc76f67843db5","67949641171f97c04e14fb34","679c25ebf202730c1899a5fa","","null","<img  src='G_9.jpg' height='90'> <img   src='G_7.jpg' height='90'> <img id='selected'  src='G_5.jpg' height='90'> <img id='selected' src='G_3.jpg' height='90'> <img src='G_1.jpg' height='90'>","null","Animation0"
"","","","","","html-keyboard-response","28","124782","0.0-18.0","65","1","2025-01-31 01:23:06","af8d355d56820e421d246a7037deb6e6","98.24.246.147","Mozilla/5.0 (Windows NT 10.0; Win64; x64) AppleWebKit/537.36 (KHTML, like Gecko) Chrome/132.0.0.0 Safari/537.36","WebKit","Chrome","132.0.0.0","Windows","10.0","https://app.prolific.com/","en-US,en;q=0.9","63656699c6cdc76f67843db5","67949641171f97c04e14fb34","679c25ebf202730c1899a5fa","","null","<img  src='G_9.jpg' height='90'> <img   src='G_7.jpg' height='90'> <img id='selected'  src='G_5.jpg' height='90'> <img id='selected' src='G_3.jpg' height='90'> <img src='G_1.jpg' height='90'>","null","Animation0"
"","","","","","html-keyboard-response","29","125095","0.0-19.0","65","1","2025-01-31 01:23:06","af8d355d56820e421d246a7037deb6e6","98.24.246.147","Mozilla/5.0 (Windows NT 10.0; Win64; x64) AppleWebKit/537.36 (KHTML, like Gecko) Chrome/132.0.0.0 Safari/537.36","WebKit","Chrome","132.0.0.0","Windows","10.0","https://app.prolific.com/","en-US,en;q=0.9","63656699c6cdc76f67843db5","67949641171f97c04e14fb34","679c25ebf202730c1899a5fa","","null","<img  src='G_9.jpg' height='90'> <img   src='G_7.jpg' height='90'> <img   src='G_5.jpg' height='90'> <img  src='G_3.jpg' height='90'> <img src='G_1.jpg' height='90'>","null","Animation0"
"","","","","","html-keyboard-response","30","125599","0.0-20.0","65","1","2025-01-31 01:23:06","af8d355d56820e421d246a7037deb6e6","98.24.246.147","Mozilla/5.0 (Windows NT 10.0; Win64; x64) AppleWebKit/537.36 (KHTML, like Gecko) Chrome/132.0.0.0 Safari/537.36","WebKit","Chrome","132.0.0.0","Windows","10.0","https://app.prolific.com/","en-US,en;q=0.9","63656699c6cdc76f67843db5","67949641171f97c04e14fb34","679c25ebf202730c1899a5fa","","null","<img  src='G_9.jpg' height='90'> <img   src='G_7.jpg' height='90'> <img   src='G_5.jpg' height='90'> <img id='selected'  src='G_3.jpg' height='90'> <img src='G_1.jpg' height='90'>","null","Animation0"
"","","","","","html-keyboard-response","31","126116","0.0-21.0","65","1","2025-01-31 01:23:06","af8d355d56820e421d246a7037deb6e6","98.24.246.147","Mozilla/5.0 (Windows NT 10.0; Win64; x64) AppleWebKit/537.36 (KHTML, like Gecko) Chrome/132.0.0.0 Safari/537.36","WebKit","Chrome","132.0.0.0","Windows","10.0","https://app.prolific.com/","en-US,en;q=0.9","63656699c6cdc76f67843db5","67949641171f97c04e14fb34","679c25ebf202730c1899a5fa","","null","<img  src='G_9.jpg' height='90'> <img   src='G_7.jpg' height='90'> <img   src='G_5.jpg' height='90'> <img id='selected'  src='G_3.jpg' height='90'> <img id='selected' src='G_1.jpg' height='90'>","null","Animation0"
"","","","","","html-keyboard-response","32","126633","0.0-22.0","65","1","2025-01-31 01:23:06","af8d355d56820e421d246a7037deb6e6","98.24.246.147","Mozilla/5.0 (Windows NT 10.0; Win64; x64) AppleWebKit/537.36 (KHTML, like Gecko) Chrome/132.0.0.0 Safari/537.36","WebKit","Chrome","132.0.0.0","Windows","10.0","https://app.prolific.com/","en-US,en;q=0.9","63656699c6cdc76f67843db5","67949641171f97c04e14fb34","679c25ebf202730c1899a5fa","","null","<img  src='G_9.jpg' height='90'> <img   src='G_7.jpg' height='90'> <img   src='G_5.jpg' height='90'> <img id='selected'  src='G_3.jpg' height='90'> <img id='selected' src='G_1.jpg' height='90'>","null","Animation0"
"","","","","","html-keyboard-response","33","126941","0.0-23.0","65","1","2025-01-31 01:23:06","af8d355d56820e421d246a7037deb6e6","98.24.246.147","Mozilla/5.0 (Windows NT 10.0; Win64; x64) AppleWebKit/537.36 (KHTML, like Gecko) Chrome/132.0.0.0 Safari/537.36","WebKit","Chrome","132.0.0.0","Windows","10.0","https://app.prolific.com/","en-US,en;q=0.9","63656699c6cdc76f67843db5","67949641171f97c04e14fb34","679c25ebf202730c1899a5fa","","null","<img  src='G_9.jpg' height='90'> <img   src='G_7.jpg' height='90'> <img   src='G_5.jpg' height='90'> <img   src='G_3.jpg' height='90'> <img  src='G_1.jpg' height='90'>","null","Animation0"
"","","","","","html-keyboard-response","34","129990","0.0-24.0","65","1","2025-01-31 01:23:06","af8d355d56820e421d246a7037deb6e6","98.24.246.147","Mozilla/5.0 (Windows NT 10.0; Win64; x64) AppleWebKit/537.36 (KHTML, like Gecko) Chrome/132.0.0.0 Safari/537.36","WebKit","Chrome","132.0.0.0","Windows","10.0","https://app.prolific.com/","en-US,en;q=0.9","63656699c6cdc76f67843db5","67949641171f97c04e14fb34","679c25ebf202730c1899a5fa","","3048","[""Did you notice any patterns? <br><br>Press Enter to watch that example again and follow the steps of Omgne Sort.""]","enter",""
"","","","","","html-button-response","35","130404","0.0-25.0","65","1","2025-01-31 01:23:06","af8d355d56820e421d246a7037deb6e6","98.24.246.147","Mozilla/5.0 (Windows NT 10.0; Win64; x64) AppleWebKit/537.36 (KHTML, like Gecko) Chrome/132.0.0.0 Safari/537.36","WebKit","Chrome","132.0.0.0","Windows","10.0","https://app.prolific.com/","en-US,en;q=0.9","63656699c6cdc76f67843db5","67949641171f97c04e14fb34","679c25ebf202730c1899a5fa","","null","<img id='selected' src='G_7.jpg' height='90'> <img src='G_9.jpg' height='90'> <img src='G_5.jpg' height='90'> <img src='G_3.jpg' height='90'> <img src='G_1.jpg' height='90'>","null","Learning example 0"
"","","","","","html-button-response","36","130710","0.0-26.0","65","1","2025-01-31 01:23:06","af8d355d56820e421d246a7037deb6e6","98.24.246.147","Mozilla/5.0 (Windows NT 10.0; Win64; x64) AppleWebKit/537.36 (KHTML, like Gecko) Chrome/132.0.0.0 Safari/537.36","WebKit","Chrome","132.0.0.0","Windows","10.0","https://app.prolific.com/","en-US,en;q=0.9","63656699c6cdc76f67843db5","67949641171f97c04e14fb34","679c25ebf202730c1899a5fa","","null","<img id='selected' src='G_7.jpg' height='90'> <img id='selected' src='G_9.jpg' height='90'> <img src='G_5.jpg' height='90'> <img src='G_3.jpg' height='90'> <img src='G_1.jpg' height='90'>","null","Learning example 0"
"","","","","","html-button-response","37","131025","0.0-27.0","65","1","2025-01-31 01:23:06","af8d355d56820e421d246a7037deb6e6","98.24.246.147","Mozilla/5.0 (Windows NT 10.0; Win64; x64) AppleWebKit/537.36 (KHTML, like Gecko) Chrome/132.0.0.0 Safari/537.36","WebKit","Chrome","132.0.0.0","Windows","10.0","https://app.prolific.com/","en-US,en;q=0.9","63656699c6cdc76f67843db5","67949641171f97c04e14fb34","679c25ebf202730c1899a5fa","","null","<img id='swapped' src='G_9.jpg' height='90'> <img id='swapped' src='G_7.jpg' height='90'> <img src='G_5.jpg' height='90'> <img src='G_3.jpg' height='90'> <img src='G_1.jpg' height='90'>","null","Learning example 0"
"","","","","","html-button-response","38","142240","0.0-28.0-0.0-0.0","65","1","2025-01-31 01:23:06","af8d355d56820e421d246a7037deb6e6","98.24.246.147","Mozilla/5.0 (Windows NT 10.0; Win64; x64) AppleWebKit/537.36 (KHTML, like Gecko) Chrome/132.0.0.0 Safari/537.36","WebKit","Chrome","132.0.0.0","Windows","10.0","https://app.prolific.com/","en-US,en;q=0.9","63656699c6cdc76f67843db5","67949641171f97c04e14fb34","679c25ebf202730c1899a5fa","","11214","<img id='swapped' src='G_9.jpg' height='90'> <img id='swapped' src='G_7.jpg' height='90'> <img src='G_5.jpg' height='90'> <img src='G_3.jpg' height='90'> <img src='G_1.jpg' height='90'>","0","Learning example 0"
"","","","","","html-button-response","39","142948","0.0-28.1-0.1-0.1","65","1","2025-01-31 01:23:06","af8d355d56820e421d246a7037deb6e6","98.24.246.147","Mozilla/5.0 (Windows NT 10.0; Win64; x64) AppleWebKit/537.36 (KHTML, like Gecko) Chrome/132.0.0.0 Safari/537.36","WebKit","Chrome","132.0.0.0","Windows","10.0","https://app.prolific.com/","en-US,en;q=0.9","63656699c6cdc76f67843db5","67949641171f97c04e14fb34","679c25ebf202730c1899a5fa","","707","<img id='swapped' src='G_9.jpg' height='90'> <img id='swapped' src='G_7.jpg' height='90'> <img src='G_5.jpg' height='90'> <img src='G_3.jpg' height='90'> <img src='G_1.jpg' height='90'>","1","Learning example 0"
"","","","","","html-button-response","40","143162","0.0-29.0","65","1","2025-01-31 01:23:06","af8d355d56820e421d246a7037deb6e6","98.24.246.147","Mozilla/5.0 (Windows NT 10.0; Win64; x64) AppleWebKit/537.36 (KHTML, like Gecko) Chrome/132.0.0.0 Safari/537.36","WebKit","Chrome","132.0.0.0","Windows","10.0","https://app.prolific.com/","en-US,en;q=0.9","63656699c6cdc76f67843db5","67949641171f97c04e14fb34","679c25ebf202730c1899a5fa","","null","<img  src='G_9.jpg' height='90'> <img  src='G_7.jpg' height='90'> <img src='G_5.jpg' height='90'> <img src='G_3.jpg' height='90'> <img src='G_1.jpg' height='90'>","null","Learning example 0"
"","","","","","html-button-response","41","143570","0.0-30.0","65","1","2025-01-31 01:23:06","af8d355d56820e421d246a7037deb6e6","98.24.246.147","Mozilla/5.0 (Windows NT 10.0; Win64; x64) AppleWebKit/537.36 (KHTML, like Gecko) Chrome/132.0.0.0 Safari/537.36","WebKit","Chrome","132.0.0.0","Windows","10.0","https://app.prolific.com/","en-US,en;q=0.9","63656699c6cdc76f67843db5","67949641171f97c04e14fb34","679c25ebf202730c1899a5fa","","null","<img  src='G_9.jpg' height='90'> <img id='selected'  src='G_7.jpg' height='90'> <img src='G_5.jpg' height='90'> <img src='G_3.jpg' height='90'> <img src='G_1.jpg' height='90'>","null","Learning example 0"
"","","","","","html-button-response","42","143875","0.0-31.0","65","1","2025-01-31 01:23:06","af8d355d56820e421d246a7037deb6e6","98.24.246.147","Mozilla/5.0 (Windows NT 10.0; Win64; x64) AppleWebKit/537.36 (KHTML, like Gecko) Chrome/132.0.0.0 Safari/537.36","WebKit","Chrome","132.0.0.0","Windows","10.0","https://app.prolific.com/","en-US,en;q=0.9","63656699c6cdc76f67843db5","67949641171f97c04e14fb34","679c25ebf202730c1899a5fa","","null","<img  src='G_9.jpg' height='90'> <img id='selected'  src='G_7.jpg' height='90'> <img id='selected' src='G_5.jpg' height='90'> <img src='G_3.jpg' height='90'> <img src='G_1.jpg' height='90'>","null","Learning example 0"
"","","","","","html-button-response","43","144191","0.0-32.0","65","1","2025-01-31 01:23:06","af8d355d56820e421d246a7037deb6e6","98.24.246.147","Mozilla/5.0 (Windows NT 10.0; Win64; x64) AppleWebKit/537.36 (KHTML, like Gecko) Chrome/132.0.0.0 Safari/537.36","WebKit","Chrome","132.0.0.0","Windows","10.0","https://app.prolific.com/","en-US,en;q=0.9","63656699c6cdc76f67843db5","67949641171f97c04e14fb34","679c25ebf202730c1899a5fa","","null","<img  src='G_9.jpg' height='90'> <img id='selected'  src='G_7.jpg' height='90'> <img id='selected' src='G_5.jpg' height='90'> <img src='G_3.jpg' height='90'> <img src='G_1.jpg' height='90'>","null","Learning example 0"
"","","","","","html-button-response","44","148236","0.0-33.0-0.0-0.0","65","1","2025-01-31 01:23:06","af8d355d56820e421d246a7037deb6e6","98.24.246.147","Mozilla/5.0 (Windows NT 10.0; Win64; x64) AppleWebKit/537.36 (KHTML, like Gecko) Chrome/132.0.0.0 Safari/537.36","WebKit","Chrome","132.0.0.0","Windows","10.0","https://app.prolific.com/","en-US,en;q=0.9","63656699c6cdc76f67843db5","67949641171f97c04e14fb34","679c25ebf202730c1899a5fa","","4044","<img  src='G_9.jpg' height='90'> <img id='selected'  src='G_7.jpg' height='90'> <img id='selected' src='G_5.jpg' height='90'> <img src='G_3.jpg' height='90'> <img src='G_1.jpg' height='90'>","1","Learning example 0"
"","","","","","html-button-response","45","148945","0.0-33.1-0.1-0.1","65","1","2025-01-31 01:23:06","af8d355d56820e421d246a7037deb6e6","98.24.246.147","Mozilla/5.0 (Windows NT 10.0; Win64; x64) AppleWebKit/537.36 (KHTML, like Gecko) Chrome/132.0.0.0 Safari/537.36","WebKit","Chrome","132.0.0.0","Windows","10.0","https://app.prolific.com/","en-US,en;q=0.9","63656699c6cdc76f67843db5","67949641171f97c04e14fb34","679c25ebf202730c1899a5fa","","708","<img  src='G_9.jpg' height='90'> <img id='selected'  src='G_7.jpg' height='90'> <img id='selected' src='G_5.jpg' height='90'> <img src='G_3.jpg' height='90'> <img src='G_1.jpg' height='90'>","2","Learning example 0"
"","","","","","html-button-response","46","149162","0.0-34.0","65","1","2025-01-31 01:23:06","af8d355d56820e421d246a7037deb6e6","98.24.246.147","Mozilla/5.0 (Windows NT 10.0; Win64; x64) AppleWebKit/537.36 (KHTML, like Gecko) Chrome/132.0.0.0 Safari/537.36","WebKit","Chrome","132.0.0.0","Windows","10.0","https://app.prolific.com/","en-US,en;q=0.9","63656699c6cdc76f67843db5","67949641171f97c04e14fb34","679c25ebf202730c1899a5fa","","null","<img  src='G_9.jpg' height='90'> <img   src='G_7.jpg' height='90'> <img  src='G_5.jpg' height='90'> <img src='G_3.jpg' height='90'> <img src='G_1.jpg' height='90'>","null","Learning example 0"
"","","","","","html-button-response","47","149570","0.0-35.0","65","1","2025-01-31 01:23:06","af8d355d56820e421d246a7037deb6e6","98.24.246.147","Mozilla/5.0 (Windows NT 10.0; Win64; x64) AppleWebKit/537.36 (KHTML, like Gecko) Chrome/132.0.0.0 Safari/537.36","WebKit","Chrome","132.0.0.0","Windows","10.0","https://app.prolific.com/","en-US,en;q=0.9","63656699c6cdc76f67843db5","67949641171f97c04e14fb34","679c25ebf202730c1899a5fa","","null","<img  src='G_9.jpg' height='90'> <img   src='G_7.jpg' height='90'> <img id='selected'  src='G_5.jpg' height='90'> <img src='G_3.jpg' height='90'> <img src='G_1.jpg' height='90'>","null","Learning example 0"
"","","","","","html-button-response","48","149875","0.0-36.0","65","1","2025-01-31 01:23:06","af8d355d56820e421d246a7037deb6e6","98.24.246.147","Mozilla/5.0 (Windows NT 10.0; Win64; x64) AppleWebKit/537.36 (KHTML, like Gecko) Chrome/132.0.0.0 Safari/537.36","WebKit","Chrome","132.0.0.0","Windows","10.0","https://app.prolific.com/","en-US,en;q=0.9","63656699c6cdc76f67843db5","67949641171f97c04e14fb34","679c25ebf202730c1899a5fa","","null","<img  src='G_9.jpg' height='90'> <img   src='G_7.jpg' height='90'> <img id='selected'  src='G_5.jpg' height='90'> <img id='selected' src='G_3.jpg' height='90'> <img src='G_1.jpg' height='90'>","null","Learning example 0"
"","","","","","html-button-response","49","150191","0.0-37.0","65","1","2025-01-31 01:23:06","af8d355d56820e421d246a7037deb6e6","98.24.246.147","Mozilla/5.0 (Windows NT 10.0; Win64; x64) AppleWebKit/537.36 (KHTML, like Gecko) Chrome/132.0.0.0 Safari/537.36","WebKit","Chrome","132.0.0.0","Windows","10.0","https://app.prolific.com/","en-US,en;q=0.9","63656699c6cdc76f67843db5","67949641171f97c04e14fb34","679c25ebf202730c1899a5fa","","null","<img  src='G_9.jpg' height='90'> <img   src='G_7.jpg' height='90'> <img id='selected'  src='G_5.jpg' height='90'> <img id='selected' src='G_3.jpg' height='90'> <img src='G_1.jpg' height='90'>","null","Learning example 0"
"","","","","","html-button-response","50","151117","0.0-38.0-0.0-0.0","65","1","2025-01-31 01:23:06","af8d355d56820e421d246a7037deb6e6","98.24.246.147","Mozilla/5.0 (Windows NT 10.0; Win64; x64) AppleWebKit/537.36 (KHTML, like Gecko) Chrome/132.0.0.0 Safari/537.36","WebKit","Chrome","132.0.0.0","Windows","10.0","https://app.prolific.com/","en-US,en;q=0.9","63656699c6cdc76f67843db5","67949641171f97c04e14fb34","679c25ebf202730c1899a5fa","","925","<img  src='G_9.jpg' height='90'> <img   src='G_7.jpg' height='90'> <img id='selected'  src='G_5.jpg' height='90'> <img id='selected' src='G_3.jpg' height='90'> <img src='G_1.jpg' height='90'>","2","Learning example 0"
"","","","","","html-button-response","51","152020","0.0-38.1-0.1-0.1","65","1","2025-01-31 01:23:06","af8d355d56820e421d246a7037deb6e6","98.24.246.147","Mozilla/5.0 (Windows NT 10.0; Win64; x64) AppleWebKit/537.36 (KHTML, like Gecko) Chrome/132.0.0.0 Safari/537.36","WebKit","Chrome","132.0.0.0","Windows","10.0","https://app.prolific.com/","en-US,en;q=0.9","63656699c6cdc76f67843db5","67949641171f97c04e14fb34","679c25ebf202730c1899a5fa","","902","<img  src='G_9.jpg' height='90'> <img   src='G_7.jpg' height='90'> <img id='selected'  src='G_5.jpg' height='90'> <img id='selected' src='G_3.jpg' height='90'> <img src='G_1.jpg' height='90'>","3","Learning example 0"
"","","","","","html-button-response","52","152228","0.0-39.0","65","1","2025-01-31 01:23:06","af8d355d56820e421d246a7037deb6e6","98.24.246.147","Mozilla/5.0 (Windows NT 10.0; Win64; x64) AppleWebKit/537.36 (KHTML, like Gecko) Chrome/132.0.0.0 Safari/537.36","WebKit","Chrome","132.0.0.0","Windows","10.0","https://app.prolific.com/","en-US,en;q=0.9","63656699c6cdc76f67843db5","67949641171f97c04e14fb34","679c25ebf202730c1899a5fa","","null","<img  src='G_9.jpg' height='90'> <img   src='G_7.jpg' height='90'> <img   src='G_5.jpg' height='90'> <img  src='G_3.jpg' height='90'> <img src='G_1.jpg' height='90'>","null","Learning example 0"
"","","","","","html-button-response","53","152637","0.0-40.0","65","1","2025-01-31 01:23:06","af8d355d56820e421d246a7037deb6e6","98.24.246.147","Mozilla/5.0 (Windows NT 10.0; Win64; x64) AppleWebKit/537.36 (KHTML, like Gecko) Chrome/132.0.0.0 Safari/537.36","WebKit","Chrome","132.0.0.0","Windows","10.0","https://app.prolific.com/","en-US,en;q=0.9","63656699c6cdc76f67843db5","67949641171f97c04e14fb34","679c25ebf202730c1899a5fa","","null","<img  src='G_9.jpg' height='90'> <img   src='G_7.jpg' height='90'> <img   src='G_5.jpg' height='90'> <img id='selected'  src='G_3.jpg' height='90'> <img src='G_1.jpg' height='90'>","null","Learning example 0"
"","","","","","html-button-response","54","152941","0.0-41.0","65","1","2025-01-31 01:23:06","af8d355d56820e421d246a7037deb6e6","98.24.246.147","Mozilla/5.0 (Windows NT 10.0; Win64; x64) AppleWebKit/537.36 (KHTML, like Gecko) Chrome/132.0.0.0 Safari/537.36","WebKit","Chrome","132.0.0.0","Windows","10.0","https://app.prolific.com/","en-US,en;q=0.9","63656699c6cdc76f67843db5","67949641171f97c04e14fb34","679c25ebf202730c1899a5fa","","null","<img  src='G_9.jpg' height='90'> <img   src='G_7.jpg' height='90'> <img   src='G_5.jpg' height='90'> <img id='selected'  src='G_3.jpg' height='90'> <img id='selected' src='G_1.jpg' height='90'>","null","Learning example 0"
"","","","","","html-button-response","55","153257","0.0-42.0","65","1","2025-01-31 01:23:06","af8d355d56820e421d246a7037deb6e6","98.24.246.147","Mozilla/5.0 (Windows NT 10.0; Win64; x64) AppleWebKit/537.36 (KHTML, like Gecko) Chrome/132.0.0.0 Safari/537.36","WebKit","Chrome","132.0.0.0","Windows","10.0","https://app.prolific.com/","en-US,en;q=0.9","63656699c6cdc76f67843db5","67949641171f97c04e14fb34","679c25ebf202730c1899a5fa","","null","<img  src='G_9.jpg' height='90'> <img   src='G_7.jpg' height='90'> <img   src='G_5.jpg' height='90'> <img id='selected'  src='G_3.jpg' height='90'> <img id='selected' src='G_1.jpg' height='90'>","null","Learning example 0"
"","","","","","html-button-response","56","154431","0.0-43.0-0.0-0.0","65","1","2025-01-31 01:23:06","af8d355d56820e421d246a7037deb6e6","98.24.246.147","Mozilla/5.0 (Windows NT 10.0; Win64; x64) AppleWebKit/537.36 (KHTML, like Gecko) Chrome/132.0.0.0 Safari/537.36","WebKit","Chrome","132.0.0.0","Windows","10.0","https://app.prolific.com/","en-US,en;q=0.9","63656699c6cdc76f67843db5","67949641171f97c04e14fb34","679c25ebf202730c1899a5fa","","1172","<img  src='G_9.jpg' height='90'> <img   src='G_7.jpg' height='90'> <img   src='G_5.jpg' height='90'> <img id='selected'  src='G_3.jpg' height='90'> <img id='selected' src='G_1.jpg' height='90'>","3","Learning example 0"
"","","","","","html-button-response","57","155177","0.0-43.1-0.1-0.1","65","1","2025-01-31 01:23:06","af8d355d56820e421d246a7037deb6e6","98.24.246.147","Mozilla/5.0 (Windows NT 10.0; Win64; x64) AppleWebKit/537.36 (KHTML, like Gecko) Chrome/132.0.0.0 Safari/537.36","WebKit","Chrome","132.0.0.0","Windows","10.0","https://app.prolific.com/","en-US,en;q=0.9","63656699c6cdc76f67843db5","67949641171f97c04e14fb34","679c25ebf202730c1899a5fa","","745","<img  src='G_9.jpg' height='90'> <img   src='G_7.jpg' height='90'> <img   src='G_5.jpg' height='90'> <img id='selected'  src='G_3.jpg' height='90'> <img id='selected' src='G_1.jpg' height='90'>","4","Learning example 0"
"","","","","","html-button-response","58","155379","0.0-44.0","65","1","2025-01-31 01:23:06","af8d355d56820e421d246a7037deb6e6","98.24.246.147","Mozilla/5.0 (Windows NT 10.0; Win64; x64) AppleWebKit/537.36 (KHTML, like Gecko) Chrome/132.0.0.0 Safari/537.36","WebKit","Chrome","132.0.0.0","Windows","10.0","https://app.prolific.com/","en-US,en;q=0.9","63656699c6cdc76f67843db5","67949641171f97c04e14fb34","679c25ebf202730c1899a5fa","","null","<img  src='G_9.jpg' height='90'> <img   src='G_7.jpg' height='90'> <img   src='G_5.jpg' height='90'> <img   src='G_3.jpg' height='90'> <img  src='G_1.jpg' height='90'>","null","Learning example 0"
"","","","","","html-keyboard-response","59","168407","0.0-45.0","65","1","2025-01-31 01:23:06","af8d355d56820e421d246a7037deb6e6","98.24.246.147","Mozilla/5.0 (Windows NT 10.0; Win64; x64) AppleWebKit/537.36 (KHTML, like Gecko) Chrome/132.0.0.0 Safari/537.36","WebKit","Chrome","132.0.0.0","Windows","10.0","https://app.prolific.com/","en-US,en;q=0.9","63656699c6cdc76f67843db5","67949641171f97c04e14fb34","679c25ebf202730c1899a5fa","","13027","[""Final order was 1,2,3,4,5. The initial order was 2,1,3,4,5.<br>It took 1 swaps to sort it correctly with Omgne Sort. <br><br>Press Enter to continue.""]","enter",""
"","","","","","html-keyboard-response","60","171535","0.0-46.0","65","1","2025-01-31 01:23:06","af8d355d56820e421d246a7037deb6e6","98.24.246.147","Mozilla/5.0 (Windows NT 10.0; Win64; x64) AppleWebKit/537.36 (KHTML, like Gecko) Chrome/132.0.0.0 Safari/537.36","WebKit","Chrome","132.0.0.0","Windows","10.0","https://app.prolific.com/","en-US,en;q=0.9","63656699c6cdc76f67843db5","67949641171f97c04e14fb34","679c25ebf202730c1899a5fa","","3127","[""Example 2<br><br>You will watch Omnge Sort in action. Try to identify any patterns in the comparisons made by this method. <br><br>Press Enter to continue.""]","enter",""
"","","","","","html-keyboard-response","61","172050","0.0-47.0","65","1","2025-01-31 01:23:06","af8d355d56820e421d246a7037deb6e6","98.24.246.147","Mozilla/5.0 (Windows NT 10.0; Win64; x64) AppleWebKit/537.36 (KHTML, like Gecko) Chrome/132.0.0.0 Safari/537.36","WebKit","Chrome","132.0.0.0","Windows","10.0","https://app.prolific.com/","en-US,en;q=0.9","63656699c6cdc76f67843db5","67949641171f97c04e14fb34","679c25ebf202730c1899a5fa","","null","<img id='selected' src='G_3.jpg' height='90'> <img src='G_4.jpg' height='90'> <img src='G_6.jpg' height='90'> <img src='G_5.jpg' height='90'> <img src='G_1.jpg' height='90'> <img src='G_7.jpg' height='90'> <img src='G_8.jpg' height='90'> <img src='G_2.jpg' height='90'>","null","Animation1"
"","","","","","html-keyboard-response","62","172566","0.0-48.0","65","1","2025-01-31 01:23:06","af8d355d56820e421d246a7037deb6e6","98.24.246.147","Mozilla/5.0 (Windows NT 10.0; Win64; x64) AppleWebKit/537.36 (KHTML, like Gecko) Chrome/132.0.0.0 Safari/537.36","WebKit","Chrome","132.0.0.0","Windows","10.0","https://app.prolific.com/","en-US,en;q=0.9","63656699c6cdc76f67843db5","67949641171f97c04e14fb34","679c25ebf202730c1899a5fa","","null","<img id='selected' src='G_3.jpg' height='90'> <img id='selected' src='G_4.jpg' height='90'> <img src='G_6.jpg' height='90'> <img src='G_5.jpg' height='90'> <img src='G_1.jpg' height='90'> <img src='G_7.jpg' height='90'> <img src='G_8.jpg' height='90'> <img src='G_2.jpg' height='90'>","null","Animation1"
"","","","","","html-keyboard-response","63","173083","0.0-49.0","65","1","2025-01-31 01:23:06","af8d355d56820e421d246a7037deb6e6","98.24.246.147","Mozilla/5.0 (Windows NT 10.0; Win64; x64) AppleWebKit/537.36 (KHTML, like Gecko) Chrome/132.0.0.0 Safari/537.36","WebKit","Chrome","132.0.0.0","Windows","10.0","https://app.prolific.com/","en-US,en;q=0.9","63656699c6cdc76f67843db5","67949641171f97c04e14fb34","679c25ebf202730c1899a5fa","","null","<img id='selected' src='G_3.jpg' height='90'> <img id='selected' src='G_4.jpg' height='90'> <img src='G_6.jpg' height='90'> <img src='G_5.jpg' height='90'> <img src='G_1.jpg' height='90'> <img src='G_7.jpg' height='90'> <img src='G_8.jpg' height='90'> <img src='G_2.jpg' height='90'>","null","Animation1"
"","","","","","html-keyboard-response","64","173393","0.0-50.0","65","1","2025-01-31 01:23:06","af8d355d56820e421d246a7037deb6e6","98.24.246.147","Mozilla/5.0 (Windows NT 10.0; Win64; x64) AppleWebKit/537.36 (KHTML, like Gecko) Chrome/132.0.0.0 Safari/537.36","WebKit","Chrome","132.0.0.0","Windows","10.0","https://app.prolific.com/","en-US,en;q=0.9","63656699c6cdc76f67843db5","67949641171f97c04e14fb34","679c25ebf202730c1899a5fa","","null","<img  src='G_3.jpg' height='90'> <img  src='G_4.jpg' height='90'> <img src='G_6.jpg' height='90'> <img src='G_5.jpg' height='90'> <img src='G_1.jpg' height='90'> <img src='G_7.jpg' height='90'> <img src='G_8.jpg' height='90'> <img src='G_2.jpg' height='90'>","null","Animation1"
"","","","","","html-keyboard-response","65","173898","0.0-51.0","65","1","2025-01-31 01:23:06","af8d355d56820e421d246a7037deb6e6","98.24.246.147","Mozilla/5.0 (Windows NT 10.0; Win64; x64) AppleWebKit/537.36 (KHTML, like Gecko) Chrome/132.0.0.0 Safari/537.36","WebKit","Chrome","132.0.0.0","Windows","10.0","https://app.prolific.com/","en-US,en;q=0.9","63656699c6cdc76f67843db5","67949641171f97c04e14fb34","679c25ebf202730c1899a5fa","","null","<img  src='G_3.jpg' height='90'> <img id='selected'  src='G_4.jpg' height='90'> <img src='G_6.jpg' height='90'> <img src='G_5.jpg' height='90'> <img src='G_1.jpg' height='90'> <img src='G_7.jpg' height='90'> <img src='G_8.jpg' height='90'> <img src='G_2.jpg' height='90'>","null","Animation1"
"","","","","","html-keyboard-response","66","174412","0.0-52.0","65","1","2025-01-31 01:23:06","af8d355d56820e421d246a7037deb6e6","98.24.246.147","Mozilla/5.0 (Windows NT 10.0; Win64; x64) AppleWebKit/537.36 (KHTML, like Gecko) Chrome/132.0.0.0 Safari/537.36","WebKit","Chrome","132.0.0.0","Windows","10.0","https://app.prolific.com/","en-US,en;q=0.9","63656699c6cdc76f67843db5","67949641171f97c04e14fb34","679c25ebf202730c1899a5fa","","null","<img  src='G_3.jpg' height='90'> <img id='selected'  src='G_4.jpg' height='90'> <img id='selected' src='G_6.jpg' height='90'> <img src='G_5.jpg' height='90'> <img src='G_1.jpg' height='90'> <img src='G_7.jpg' height='90'> <img src='G_8.jpg' height='90'> <img src='G_2.jpg' height='90'>","null","Animation1"
"","","","","","html-keyboard-response","67","174917","0.0-53.0","65","1","2025-01-31 01:23:06","af8d355d56820e421d246a7037deb6e6","98.24.246.147","Mozilla/5.0 (Windows NT 10.0; Win64; x64) AppleWebKit/537.36 (KHTML, like Gecko) Chrome/132.0.0.0 Safari/537.36","WebKit","Chrome","132.0.0.0","Windows","10.0","https://app.prolific.com/","en-US,en;q=0.9","63656699c6cdc76f67843db5","67949641171f97c04e14fb34","679c25ebf202730c1899a5fa","","null","<img  src='G_3.jpg' height='90'> <img id='swapped' src='G_6.jpg' height='90'> <img id='swapped'  src='G_4.jpg' height='90'> <img src='G_5.jpg' height='90'> <img src='G_1.jpg' height='90'> <img src='G_7.jpg' height='90'> <img src='G_8.jpg' height='90'> <img src='G_2.jpg' height='90'>","null","Animation1"
"","","","","","html-keyboard-response","68","175226","0.0-54.0","65","1","2025-01-31 01:23:06","af8d355d56820e421d246a7037deb6e6","98.24.246.147","Mozilla/5.0 (Windows NT 10.0; Win64; x64) AppleWebKit/537.36 (KHTML, like Gecko) Chrome/132.0.0.0 Safari/537.36","WebKit","Chrome","132.0.0.0","Windows","10.0","https://app.prolific.com/","en-US,en;q=0.9","63656699c6cdc76f67843db5","67949641171f97c04e14fb34","679c25ebf202730c1899a5fa","","null","<img  src='G_3.jpg' height='90'> <img  src='G_6.jpg' height='90'> <img   src='G_4.jpg' height='90'> <img src='G_5.jpg' height='90'> <img src='G_1.jpg' height='90'> <img src='G_7.jpg' height='90'> <img src='G_8.jpg' height='90'> <img src='G_2.jpg' height='90'>","null","Animation1"
"","","","","","html-keyboard-response","69","175732","0.0-55.0","65","1","2025-01-31 01:23:06","af8d355d56820e421d246a7037deb6e6","98.24.246.147","Mozilla/5.0 (Windows NT 10.0; Win64; x64) AppleWebKit/537.36 (KHTML, like Gecko) Chrome/132.0.0.0 Safari/537.36","WebKit","Chrome","132.0.0.0","Windows","10.0","https://app.prolific.com/","en-US,en;q=0.9","63656699c6cdc76f67843db5","67949641171f97c04e14fb34","679c25ebf202730c1899a5fa","","null","<img id='selected'  src='G_3.jpg' height='90'> <img  src='G_6.jpg' height='90'> <img   src='G_4.jpg' height='90'> <img src='G_5.jpg' height='90'> <img src='G_1.jpg' height='90'> <img src='G_7.jpg' height='90'> <img src='G_8.jpg' height='90'> <img src='G_2.jpg' height='90'>","null","Animation1"
"","","","","","html-keyboard-response","70","176246","0.0-56.0","65","1","2025-01-31 01:23:06","af8d355d56820e421d246a7037deb6e6","98.24.246.147","Mozilla/5.0 (Windows NT 10.0; Win64; x64) AppleWebKit/537.36 (KHTML, like Gecko) Chrome/132.0.0.0 Safari/537.36","WebKit","Chrome","132.0.0.0","Windows","10.0","https://app.prolific.com/","en-US,en;q=0.9","63656699c6cdc76f67843db5","67949641171f97c04e14fb34","679c25ebf202730c1899a5fa","","null","<img id='selected'  src='G_3.jpg' height='90'> <img id='selected'  src='G_6.jpg' height='90'> <img   src='G_4.jpg' height='90'> <img src='G_5.jpg' height='90'> <img src='G_1.jpg' height='90'> <img src='G_7.jpg' height='90'> <img src='G_8.jpg' height='90'> <img src='G_2.jpg' height='90'>","null","Animation1"
"","","","","","html-keyboard-response","71","176763","0.0-57.0","65","1","2025-01-31 01:23:06","af8d355d56820e421d246a7037deb6e6","98.24.246.147","Mozilla/5.0 (Windows NT 10.0; Win64; x64) AppleWebKit/537.36 (KHTML, like Gecko) Chrome/132.0.0.0 Safari/537.36","WebKit","Chrome","132.0.0.0","Windows","10.0","https://app.prolific.com/","en-US,en;q=0.9","63656699c6cdc76f67843db5","67949641171f97c04e14fb34","679c25ebf202730c1899a5fa","","null","<img id='swapped'  src='G_6.jpg' height='90'> <img id='swapped'  src='G_3.jpg' height='90'> <img   src='G_4.jpg' height='90'> <img src='G_5.jpg' height='90'> <img src='G_1.jpg' height='90'> <img src='G_7.jpg' height='90'> <img src='G_8.jpg' height='90'> <img src='G_2.jpg' height='90'>","null","Animation1"
"","","","","","html-keyboard-response","72","177076","0.0-58.0","65","1","2025-01-31 01:23:06","af8d355d56820e421d246a7037deb6e6","98.24.246.147","Mozilla/5.0 (Windows NT 10.0; Win64; x64) AppleWebKit/537.36 (KHTML, like Gecko) Chrome/132.0.0.0 Safari/537.36","WebKit","Chrome","132.0.0.0","Windows","10.0","https://app.prolific.com/","en-US,en;q=0.9","63656699c6cdc76f67843db5","67949641171f97c04e14fb34","679c25ebf202730c1899a5fa","","null","<img   src='G_6.jpg' height='90'> <img   src='G_3.jpg' height='90'> <img   src='G_4.jpg' height='90'> <img src='G_5.jpg' height='90'> <img src='G_1.jpg' height='90'> <img src='G_7.jpg' height='90'> <img src='G_8.jpg' height='90'> <img src='G_2.jpg' height='90'>","null","Animation1"
"","","","","","html-keyboard-response","73","177580","0.0-59.0","65","1","2025-01-31 01:23:06","af8d355d56820e421d246a7037deb6e6","98.24.246.147","Mozilla/5.0 (Windows NT 10.0; Win64; x64) AppleWebKit/537.36 (KHTML, like Gecko) Chrome/132.0.0.0 Safari/537.36","WebKit","Chrome","132.0.0.0","Windows","10.0","https://app.prolific.com/","en-US,en;q=0.9","63656699c6cdc76f67843db5","67949641171f97c04e14fb34","679c25ebf202730c1899a5fa","","null","<img   src='G_6.jpg' height='90'> <img   src='G_3.jpg' height='90'> <img id='selected'   src='G_4.jpg' height='90'> <img src='G_5.jpg' height='90'> <img src='G_1.jpg' height='90'> <img src='G_7.jpg' height='90'> <img src='G_8.jpg' height='90'> <img src='G_2.jpg' height='90'>","null","Animation1"
"","","","","","html-keyboard-response","74","178085","0.0-60.0","65","1","2025-01-31 01:23:06","af8d355d56820e421d246a7037deb6e6","98.24.246.147","Mozilla/5.0 (Windows NT 10.0; Win64; x64) AppleWebKit/537.36 (KHTML, like Gecko) Chrome/132.0.0.0 Safari/537.36","WebKit","Chrome","132.0.0.0","Windows","10.0","https://app.prolific.com/","en-US,en;q=0.9","63656699c6cdc76f67843db5","67949641171f97c04e14fb34","679c25ebf202730c1899a5fa","","null","<img   src='G_6.jpg' height='90'> <img   src='G_3.jpg' height='90'> <img id='selected'   src='G_4.jpg' height='90'> <img id='selected' src='G_5.jpg' height='90'> <img src='G_1.jpg' height='90'> <img src='G_7.jpg' height='90'> <img src='G_8.jpg' height='90'> <img src='G_2.jpg' height='90'>","null","Animation1"
"","","","","","html-keyboard-response","75","178600","0.0-61.0","65","1","2025-01-31 01:23:06","af8d355d56820e421d246a7037deb6e6","98.24.246.147","Mozilla/5.0 (Windows NT 10.0; Win64; x64) AppleWebKit/537.36 (KHTML, like Gecko) Chrome/132.0.0.0 Safari/537.36","WebKit","Chrome","132.0.0.0","Windows","10.0","https://app.prolific.com/","en-US,en;q=0.9","63656699c6cdc76f67843db5","67949641171f97c04e14fb34","679c25ebf202730c1899a5fa","","null","<img   src='G_6.jpg' height='90'> <img   src='G_3.jpg' height='90'> <img id='swapped' src='G_5.jpg' height='90'> <img id='swapped'   src='G_4.jpg' height='90'> <img src='G_1.jpg' height='90'> <img src='G_7.jpg' height='90'> <img src='G_8.jpg' height='90'> <img src='G_2.jpg' height='90'>","null","Animation1"
"","","","","","html-keyboard-response","76","178907","0.0-62.0","65","1","2025-01-31 01:23:06","af8d355d56820e421d246a7037deb6e6","98.24.246.147","Mozilla/5.0 (Windows NT 10.0; Win64; x64) AppleWebKit/537.36 (KHTML, like Gecko) Chrome/132.0.0.0 Safari/537.36","WebKit","Chrome","132.0.0.0","Windows","10.0","https://app.prolific.com/","en-US,en;q=0.9","63656699c6cdc76f67843db5","67949641171f97c04e14fb34","679c25ebf202730c1899a5fa","","null","<img   src='G_6.jpg' height='90'> <img   src='G_3.jpg' height='90'> <img  src='G_5.jpg' height='90'> <img    src='G_4.jpg' height='90'> <img src='G_1.jpg' height='90'> <img src='G_7.jpg' height='90'> <img src='G_8.jpg' height='90'> <img src='G_2.jpg' height='90'>","null","Animation1"
"","","","","","html-keyboard-response","77","179415","0.0-63.0","65","1","2025-01-31 01:23:06","af8d355d56820e421d246a7037deb6e6","98.24.246.147","Mozilla/5.0 (Windows NT 10.0; Win64; x64) AppleWebKit/537.36 (KHTML, like Gecko) Chrome/132.0.0.0 Safari/537.36","WebKit","Chrome","132.0.0.0","Windows","10.0","https://app.prolific.com/","en-US,en;q=0.9","63656699c6cdc76f67843db5","67949641171f97c04e14fb34","679c25ebf202730c1899a5fa","","null","<img   src='G_6.jpg' height='90'> <img id='selected'   src='G_3.jpg' height='90'> <img  src='G_5.jpg' height='90'> <img    src='G_4.jpg' height='90'> <img src='G_1.jpg' height='90'> <img src='G_7.jpg' height='90'> <img src='G_8.jpg' height='90'> <img src='G_2.jpg' height='90'>","null","Animation1"
"","","","","","html-keyboard-response","78","179929","0.0-64.0","65","1","2025-01-31 01:23:06","af8d355d56820e421d246a7037deb6e6","98.24.246.147","Mozilla/5.0 (Windows NT 10.0; Win64; x64) AppleWebKit/537.36 (KHTML, like Gecko) Chrome/132.0.0.0 Safari/537.36","WebKit","Chrome","132.0.0.0","Windows","10.0","https://app.prolific.com/","en-US,en;q=0.9","63656699c6cdc76f67843db5","67949641171f97c04e14fb34","679c25ebf202730c1899a5fa","","null","<img   src='G_6.jpg' height='90'> <img id='selected'   src='G_3.jpg' height='90'> <img id='selected'  src='G_5.jpg' height='90'> <img    src='G_4.jpg' height='90'> <img src='G_1.jpg' height='90'> <img src='G_7.jpg' height='90'> <img src='G_8.jpg' height='90'> <img src='G_2.jpg' height='90'>","null","Animation1"
"","","","","","html-keyboard-response","79","180431","0.0-65.0","65","1","2025-01-31 01:23:06","af8d355d56820e421d246a7037deb6e6","98.24.246.147","Mozilla/5.0 (Windows NT 10.0; Win64; x64) AppleWebKit/537.36 (KHTML, like Gecko) Chrome/132.0.0.0 Safari/537.36","WebKit","Chrome","132.0.0.0","Windows","10.0","https://app.prolific.com/","en-US,en;q=0.9","63656699c6cdc76f67843db5","67949641171f97c04e14fb34","679c25ebf202730c1899a5fa","","null","<img   src='G_6.jpg' height='90'> <img id='swapped'  src='G_5.jpg' height='90'> <img id='swapped'   src='G_3.jpg' height='90'> <img    src='G_4.jpg' height='90'> <img src='G_1.jpg' height='90'> <img src='G_7.jpg' height='90'> <img src='G_8.jpg' height='90'> <img src='G_2.jpg' height='90'>","null","Animation1"
"","","","","","html-keyboard-response","80","180739","0.0-66.0","65","1","2025-01-31 01:23:06","af8d355d56820e421d246a7037deb6e6","98.24.246.147","Mozilla/5.0 (Windows NT 10.0; Win64; x64) AppleWebKit/537.36 (KHTML, like Gecko) Chrome/132.0.0.0 Safari/537.36","WebKit","Chrome","132.0.0.0","Windows","10.0","https://app.prolific.com/","en-US,en;q=0.9","63656699c6cdc76f67843db5","67949641171f97c04e14fb34","679c25ebf202730c1899a5fa","","null","<img   src='G_6.jpg' height='90'> <img   src='G_5.jpg' height='90'> <img    src='G_3.jpg' height='90'> <img    src='G_4.jpg' height='90'> <img src='G_1.jpg' height='90'> <img src='G_7.jpg' height='90'> <img src='G_8.jpg' height='90'> <img src='G_2.jpg' height='90'>","null","Animation1"
"","","","","","html-keyboard-response","81","181250","0.0-67.0","65","1","2025-01-31 01:23:06","af8d355d56820e421d246a7037deb6e6","98.24.246.147","Mozilla/5.0 (Windows NT 10.0; Win64; x64) AppleWebKit/537.36 (KHTML, like Gecko) Chrome/132.0.0.0 Safari/537.36","WebKit","Chrome","132.0.0.0","Windows","10.0","https://app.prolific.com/","en-US,en;q=0.9","63656699c6cdc76f67843db5","67949641171f97c04e14fb34","679c25ebf202730c1899a5fa","","null","<img id='selected'   src='G_6.jpg' height='90'> <img   src='G_5.jpg' height='90'> <img    src='G_3.jpg' height='90'> <img    src='G_4.jpg' height='90'> <img src='G_1.jpg' height='90'> <img src='G_7.jpg' height='90'> <img src='G_8.jpg' height='90'> <img src='G_2.jpg' height='90'>","null","Animation1"
"","","","","","html-keyboard-response","82","181767","0.0-68.0","65","1","2025-01-31 01:23:06","af8d355d56820e421d246a7037deb6e6","98.24.246.147","Mozilla/5.0 (Windows NT 10.0; Win64; x64) AppleWebKit/537.36 (KHTML, like Gecko) Chrome/132.0.0.0 Safari/537.36","WebKit","Chrome","132.0.0.0","Windows","10.0","https://app.prolific.com/","en-US,en;q=0.9","63656699c6cdc76f67843db5","67949641171f97c04e14fb34","679c25ebf202730c1899a5fa","","null","<img id='selected'   src='G_6.jpg' height='90'> <img id='selected'   src='G_5.jpg' height='90'> <img    src='G_3.jpg' height='90'> <img    src='G_4.jpg' height='90'> <img src='G_1.jpg' height='90'> <img src='G_7.jpg' height='90'> <img src='G_8.jpg' height='90'> <img src='G_2.jpg' height='90'>","null","Animation1"
"","","","","","html-keyboard-response","83","182284","0.0-69.0","65","1","2025-01-31 01:23:06","af8d355d56820e421d246a7037deb6e6","98.24.246.147","Mozilla/5.0 (Windows NT 10.0; Win64; x64) AppleWebKit/537.36 (KHTML, like Gecko) Chrome/132.0.0.0 Safari/537.36","WebKit","Chrome","132.0.0.0","Windows","10.0","https://app.prolific.com/","en-US,en;q=0.9","63656699c6cdc76f67843db5","67949641171f97c04e14fb34","679c25ebf202730c1899a5fa","","null","<img id='swapped'   src='G_5.jpg' height='90'> <img id='swapped'   src='G_6.jpg' height='90'> <img    src='G_3.jpg' height='90'> <img    src='G_4.jpg' height='90'> <img src='G_1.jpg' height='90'> <img src='G_7.jpg' height='90'> <img src='G_8.jpg' height='90'> <img src='G_2.jpg' height='90'>","null","Animation1"
"","","","","","html-keyboard-response","84","182592","0.0-70.0","65","1","2025-01-31 01:23:06","af8d355d56820e421d246a7037deb6e6","98.24.246.147","Mozilla/5.0 (Windows NT 10.0; Win64; x64) AppleWebKit/537.36 (KHTML, like Gecko) Chrome/132.0.0.0 Safari/537.36","WebKit","Chrome","132.0.0.0","Windows","10.0","https://app.prolific.com/","en-US,en;q=0.9","63656699c6cdc76f67843db5","67949641171f97c04e14fb34","679c25ebf202730c1899a5fa","","null","<img    src='G_5.jpg' height='90'> <img    src='G_6.jpg' height='90'> <img    src='G_3.jpg' height='90'> <img    src='G_4.jpg' height='90'> <img src='G_1.jpg' height='90'> <img src='G_7.jpg' height='90'> <img src='G_8.jpg' height='90'> <img src='G_2.jpg' height='90'>","null","Animation1"
"","","","","","html-keyboard-response","85","183100","0.0-71.0","65","1","2025-01-31 01:23:06","af8d355d56820e421d246a7037deb6e6","98.24.246.147","Mozilla/5.0 (Windows NT 10.0; Win64; x64) AppleWebKit/537.36 (KHTML, like Gecko) Chrome/132.0.0.0 Safari/537.36","WebKit","Chrome","132.0.0.0","Windows","10.0","https://app.prolific.com/","en-US,en;q=0.9","63656699c6cdc76f67843db5","67949641171f97c04e14fb34","679c25ebf202730c1899a5fa","","null","<img    src='G_5.jpg' height='90'> <img    src='G_6.jpg' height='90'> <img    src='G_3.jpg' height='90'> <img id='selected'    src='G_4.jpg' height='90'> <img src='G_1.jpg' height='90'> <img src='G_7.jpg' height='90'> <img src='G_8.jpg' height='90'> <img src='G_2.jpg' height='90'>","null","Animation1"
"","","","","","html-keyboard-response","86","183616","0.0-72.0","65","1","2025-01-31 01:23:06","af8d355d56820e421d246a7037deb6e6","98.24.246.147","Mozilla/5.0 (Windows NT 10.0; Win64; x64) AppleWebKit/537.36 (KHTML, like Gecko) Chrome/132.0.0.0 Safari/537.36","WebKit","Chrome","132.0.0.0","Windows","10.0","https://app.prolific.com/","en-US,en;q=0.9","63656699c6cdc76f67843db5","67949641171f97c04e14fb34","679c25ebf202730c1899a5fa","","null","<img    src='G_5.jpg' height='90'> <img    src='G_6.jpg' height='90'> <img    src='G_3.jpg' height='90'> <img id='selected'    src='G_4.jpg' height='90'> <img id='selected' src='G_1.jpg' height='90'> <img src='G_7.jpg' height='90'> <img src='G_8.jpg' height='90'> <img src='G_2.jpg' height='90'>","null","Animation1"
"","","","","","html-keyboard-response","87","184131","0.0-73.0","65","1","2025-01-31 01:23:06","af8d355d56820e421d246a7037deb6e6","98.24.246.147","Mozilla/5.0 (Windows NT 10.0; Win64; x64) AppleWebKit/537.36 (KHTML, like Gecko) Chrome/132.0.0.0 Safari/537.36","WebKit","Chrome","132.0.0.0","Windows","10.0","https://app.prolific.com/","en-US,en;q=0.9","63656699c6cdc76f67843db5","67949641171f97c04e14fb34","679c25ebf202730c1899a5fa","","null","<img    src='G_5.jpg' height='90'> <img    src='G_6.jpg' height='90'> <img    src='G_3.jpg' height='90'> <img id='swapped' src='G_1.jpg' height='90'> <img id='swapped'    src='G_4.jpg' height='90'> <img src='G_7.jpg' height='90'> <img src='G_8.jpg' height='90'> <img src='G_2.jpg' height='90'>","null","Animation1"
"","","","","","html-keyboard-response","88","184439","0.0-74.0","65","1","2025-01-31 01:23:06","af8d355d56820e421d246a7037deb6e6","98.24.246.147","Mozilla/5.0 (Windows NT 10.0; Win64; x64) AppleWebKit/537.36 (KHTML, like Gecko) Chrome/132.0.0.0 Safari/537.36","WebKit","Chrome","132.0.0.0","Windows","10.0","https://app.prolific.com/","en-US,en;q=0.9","63656699c6cdc76f67843db5","67949641171f97c04e14fb34","679c25ebf202730c1899a5fa","","null","<img    src='G_5.jpg' height='90'> <img    src='G_6.jpg' height='90'> <img    src='G_3.jpg' height='90'> <img  src='G_1.jpg' height='90'> <img     src='G_4.jpg' height='90'> <img src='G_7.jpg' height='90'> <img src='G_8.jpg' height='90'> <img src='G_2.jpg' height='90'>","null","Animation1"
"","","","","","html-keyboard-response","89","184948","0.0-75.0","65","1","2025-01-31 01:23:06","af8d355d56820e421d246a7037deb6e6","98.24.246.147","Mozilla/5.0 (Windows NT 10.0; Win64; x64) AppleWebKit/537.36 (KHTML, like Gecko) Chrome/132.0.0.0 Safari/537.36","WebKit","Chrome","132.0.0.0","Windows","10.0","https://app.prolific.com/","en-US,en;q=0.9","63656699c6cdc76f67843db5","67949641171f97c04e14fb34","679c25ebf202730c1899a5fa","","null","<img    src='G_5.jpg' height='90'> <img    src='G_6.jpg' height='90'> <img id='selected'    src='G_3.jpg' height='90'> <img  src='G_1.jpg' height='90'> <img     src='G_4.jpg' height='90'> <img src='G_7.jpg' height='90'> <img src='G_8.jpg' height='90'> <img src='G_2.jpg' height='90'>","null","Animation1"
"","","","","","html-keyboard-response","90","185465","0.0-76.0","65","1","2025-01-31 01:23:06","af8d355d56820e421d246a7037deb6e6","98.24.246.147","Mozilla/5.0 (Windows NT 10.0; Win64; x64) AppleWebKit/537.36 (KHTML, like Gecko) Chrome/132.0.0.0 Safari/537.36","WebKit","Chrome","132.0.0.0","Windows","10.0","https://app.prolific.com/","en-US,en;q=0.9","63656699c6cdc76f67843db5","67949641171f97c04e14fb34","679c25ebf202730c1899a5fa","","null","<img    src='G_5.jpg' height='90'> <img    src='G_6.jpg' height='90'> <img id='selected'    src='G_3.jpg' height='90'> <img id='selected'  src='G_1.jpg' height='90'> <img     src='G_4.jpg' height='90'> <img src='G_7.jpg' height='90'> <img src='G_8.jpg' height='90'> <img src='G_2.jpg' height='90'>","null","Animation1"
"","","","","","html-keyboard-response","91","185968","0.0-77.0","65","1","2025-01-31 01:23:06","af8d355d56820e421d246a7037deb6e6","98.24.246.147","Mozilla/5.0 (Windows NT 10.0; Win64; x64) AppleWebKit/537.36 (KHTML, like Gecko) Chrome/132.0.0.0 Safari/537.36","WebKit","Chrome","132.0.0.0","Windows","10.0","https://app.prolific.com/","en-US,en;q=0.9","63656699c6cdc76f67843db5","67949641171f97c04e14fb34","679c25ebf202730c1899a5fa","","null","<img    src='G_5.jpg' height='90'> <img    src='G_6.jpg' height='90'> <img id='swapped'  src='G_1.jpg' height='90'> <img id='swapped'    src='G_3.jpg' height='90'> <img     src='G_4.jpg' height='90'> <img src='G_7.jpg' height='90'> <img src='G_8.jpg' height='90'> <img src='G_2.jpg' height='90'>","null","Animation1"
"","","","","","html-keyboard-response","92","186275","0.0-78.0","65","1","2025-01-31 01:23:06","af8d355d56820e421d246a7037deb6e6","98.24.246.147","Mozilla/5.0 (Windows NT 10.0; Win64; x64) AppleWebKit/537.36 (KHTML, like Gecko) Chrome/132.0.0.0 Safari/537.36","WebKit","Chrome","132.0.0.0","Windows","10.0","https://app.prolific.com/","en-US,en;q=0.9","63656699c6cdc76f67843db5","67949641171f97c04e14fb34","679c25ebf202730c1899a5fa","","null","<img    src='G_5.jpg' height='90'> <img    src='G_6.jpg' height='90'> <img   src='G_1.jpg' height='90'> <img     src='G_3.jpg' height='90'> <img     src='G_4.jpg' height='90'> <img src='G_7.jpg' height='90'> <img src='G_8.jpg' height='90'> <img src='G_2.jpg' height='90'>","null","Animation1"
"","","","","","html-keyboard-response","93","186781","0.0-79.0","65","1","2025-01-31 01:23:06","af8d355d56820e421d246a7037deb6e6","98.24.246.147","Mozilla/5.0 (Windows NT 10.0; Win64; x64) AppleWebKit/537.36 (KHTML, like Gecko) Chrome/132.0.0.0 Safari/537.36","WebKit","Chrome","132.0.0.0","Windows","10.0","https://app.prolific.com/","en-US,en;q=0.9","63656699c6cdc76f67843db5","67949641171f97c04e14fb34","679c25ebf202730c1899a5fa","","null","<img    src='G_5.jpg' height='90'> <img id='selected'    src='G_6.jpg' height='90'> <img   src='G_1.jpg' height='90'> <img     src='G_3.jpg' height='90'> <img     src='G_4.jpg' height='90'> <img src='G_7.jpg' height='90'> <img src='G_8.jpg' height='90'> <img src='G_2.jpg' height='90'>","null","Animation1"
"","","","","","html-keyboard-response","94","187284","0.0-80.0","65","1","2025-01-31 01:23:06","af8d355d56820e421d246a7037deb6e6","98.24.246.147","Mozilla/5.0 (Windows NT 10.0; Win64; x64) AppleWebKit/537.36 (KHTML, like Gecko) Chrome/132.0.0.0 Safari/537.36","WebKit","Chrome","132.0.0.0","Windows","10.0","https://app.prolific.com/","en-US,en;q=0.9","63656699c6cdc76f67843db5","67949641171f97c04e14fb34","679c25ebf202730c1899a5fa","","null","<img    src='G_5.jpg' height='90'> <img id='selected'    src='G_6.jpg' height='90'> <img id='selected'   src='G_1.jpg' height='90'> <img     src='G_3.jpg' height='90'> <img     src='G_4.jpg' height='90'> <img src='G_7.jpg' height='90'> <img src='G_8.jpg' height='90'> <img src='G_2.jpg' height='90'>","null","Animation1"
"","","","","","html-keyboard-response","95","187799","0.0-81.0","65","1","2025-01-31 01:23:06","af8d355d56820e421d246a7037deb6e6","98.24.246.147","Mozilla/5.0 (Windows NT 10.0; Win64; x64) AppleWebKit/537.36 (KHTML, like Gecko) Chrome/132.0.0.0 Safari/537.36","WebKit","Chrome","132.0.0.0","Windows","10.0","https://app.prolific.com/","en-US,en;q=0.9","63656699c6cdc76f67843db5","67949641171f97c04e14fb34","679c25ebf202730c1899a5fa","","null","<img    src='G_5.jpg' height='90'> <img id='swapped'   src='G_1.jpg' height='90'> <img id='swapped'    src='G_6.jpg' height='90'> <img     src='G_3.jpg' height='90'> <img     src='G_4.jpg' height='90'> <img src='G_7.jpg' height='90'> <img src='G_8.jpg' height='90'> <img src='G_2.jpg' height='90'>","null","Animation1"
"","","","","","html-keyboard-response","96","188108","0.0-82.0","65","1","2025-01-31 01:23:06","af8d355d56820e421d246a7037deb6e6","98.24.246.147","Mozilla/5.0 (Windows NT 10.0; Win64; x64) AppleWebKit/537.36 (KHTML, like Gecko) Chrome/132.0.0.0 Safari/537.36","WebKit","Chrome","132.0.0.0","Windows","10.0","https://app.prolific.com/","en-US,en;q=0.9","63656699c6cdc76f67843db5","67949641171f97c04e14fb34","679c25ebf202730c1899a5fa","","null","<img    src='G_5.jpg' height='90'> <img    src='G_1.jpg' height='90'> <img     src='G_6.jpg' height='90'> <img     src='G_3.jpg' height='90'> <img     src='G_4.jpg' height='90'> <img src='G_7.jpg' height='90'> <img src='G_8.jpg' height='90'> <img src='G_2.jpg' height='90'>","null","Animation1"
"","","","","","html-keyboard-response","97","188615","0.0-83.0","65","1","2025-01-31 01:23:06","af8d355d56820e421d246a7037deb6e6","98.24.246.147","Mozilla/5.0 (Windows NT 10.0; Win64; x64) AppleWebKit/537.36 (KHTML, like Gecko) Chrome/132.0.0.0 Safari/537.36","WebKit","Chrome","132.0.0.0","Windows","10.0","https://app.prolific.com/","en-US,en;q=0.9","63656699c6cdc76f67843db5","67949641171f97c04e14fb34","679c25ebf202730c1899a5fa","","null","<img id='selected'    src='G_5.jpg' height='90'> <img    src='G_1.jpg' height='90'> <img     src='G_6.jpg' height='90'> <img     src='G_3.jpg' height='90'> <img     src='G_4.jpg' height='90'> <img src='G_7.jpg' height='90'> <img src='G_8.jpg' height='90'> <img src='G_2.jpg' height='90'>","null","Animation1"
"","","","","","html-keyboard-response","98","189132","0.0-84.0","65","1","2025-01-31 01:23:06","af8d355d56820e421d246a7037deb6e6","98.24.246.147","Mozilla/5.0 (Windows NT 10.0; Win64; x64) AppleWebKit/537.36 (KHTML, like Gecko) Chrome/132.0.0.0 Safari/537.36","WebKit","Chrome","132.0.0.0","Windows","10.0","https://app.prolific.com/","en-US,en;q=0.9","63656699c6cdc76f67843db5","67949641171f97c04e14fb34","679c25ebf202730c1899a5fa","","null","<img id='selected'    src='G_5.jpg' height='90'> <img id='selected'    src='G_1.jpg' height='90'> <img     src='G_6.jpg' height='90'> <img     src='G_3.jpg' height='90'> <img     src='G_4.jpg' height='90'> <img src='G_7.jpg' height='90'> <img src='G_8.jpg' height='90'> <img src='G_2.jpg' height='90'>","null","Animation1"
"","","","","","html-keyboard-response","99","189649","0.0-85.0","65","1","2025-01-31 01:23:06","af8d355d56820e421d246a7037deb6e6","98.24.246.147","Mozilla/5.0 (Windows NT 10.0; Win64; x64) AppleWebKit/537.36 (KHTML, like Gecko) Chrome/132.0.0.0 Safari/537.36","WebKit","Chrome","132.0.0.0","Windows","10.0","https://app.prolific.com/","en-US,en;q=0.9","63656699c6cdc76f67843db5","67949641171f97c04e14fb34","679c25ebf202730c1899a5fa","","null","<img id='selected'    src='G_5.jpg' height='90'> <img id='selected'    src='G_1.jpg' height='90'> <img     src='G_6.jpg' height='90'> <img     src='G_3.jpg' height='90'> <img     src='G_4.jpg' height='90'> <img src='G_7.jpg' height='90'> <img src='G_8.jpg' height='90'> <img src='G_2.jpg' height='90'>","null","Animation1"
"","","","","","html-keyboard-response","100","189959","0.0-86.0","65","1","2025-01-31 01:23:06","af8d355d56820e421d246a7037deb6e6","98.24.246.147","Mozilla/5.0 (Windows NT 10.0; Win64; x64) AppleWebKit/537.36 (KHTML, like Gecko) Chrome/132.0.0.0 Safari/537.36","WebKit","Chrome","132.0.0.0","Windows","10.0","https://app.prolific.com/","en-US,en;q=0.9","63656699c6cdc76f67843db5","67949641171f97c04e14fb34","679c25ebf202730c1899a5fa","","null","<img     src='G_5.jpg' height='90'> <img     src='G_1.jpg' height='90'> <img     src='G_6.jpg' height='90'> <img     src='G_3.jpg' height='90'> <img     src='G_4.jpg' height='90'> <img src='G_7.jpg' height='90'> <img src='G_8.jpg' height='90'> <img src='G_2.jpg' height='90'>","null","Animation1"
"","","","","","html-keyboard-response","101","190466","0.0-87.0","65","1","2025-01-31 01:23:06","af8d355d56820e421d246a7037deb6e6","98.24.246.147","Mozilla/5.0 (Windows NT 10.0; Win64; x64) AppleWebKit/537.36 (KHTML, like Gecko) Chrome/132.0.0.0 Safari/537.36","WebKit","Chrome","132.0.0.0","Windows","10.0","https://app.prolific.com/","en-US,en;q=0.9","63656699c6cdc76f67843db5","67949641171f97c04e14fb34","679c25ebf202730c1899a5fa","","null","<img     src='G_5.jpg' height='90'> <img     src='G_1.jpg' height='90'> <img     src='G_6.jpg' height='90'> <img     src='G_3.jpg' height='90'> <img id='selected'     src='G_4.jpg' height='90'> <img src='G_7.jpg' height='90'> <img src='G_8.jpg' height='90'> <img src='G_2.jpg' height='90'>","null","Animation1"
"","","","","","html-keyboard-response","102","190983","0.0-88.0","65","1","2025-01-31 01:23:06","af8d355d56820e421d246a7037deb6e6","98.24.246.147","Mozilla/5.0 (Windows NT 10.0; Win64; x64) AppleWebKit/537.36 (KHTML, like Gecko) Chrome/132.0.0.0 Safari/537.36","WebKit","Chrome","132.0.0.0","Windows","10.0","https://app.prolific.com/","en-US,en;q=0.9","63656699c6cdc76f67843db5","67949641171f97c04e14fb34","679c25ebf202730c1899a5fa","","null","<img     src='G_5.jpg' height='90'> <img     src='G_1.jpg' height='90'> <img     src='G_6.jpg' height='90'> <img     src='G_3.jpg' height='90'> <img id='selected'     src='G_4.jpg' height='90'> <img id='selected' src='G_7.jpg' height='90'> <img src='G_8.jpg' height='90'> <img src='G_2.jpg' height='90'>","null","Animation1"
"","","","","","html-keyboard-response","103","191485","0.0-89.0","65","1","2025-01-31 01:23:06","af8d355d56820e421d246a7037deb6e6","98.24.246.147","Mozilla/5.0 (Windows NT 10.0; Win64; x64) AppleWebKit/537.36 (KHTML, like Gecko) Chrome/132.0.0.0 Safari/537.36","WebKit","Chrome","132.0.0.0","Windows","10.0","https://app.prolific.com/","en-US,en;q=0.9","63656699c6cdc76f67843db5","67949641171f97c04e14fb34","679c25ebf202730c1899a5fa","","null","<img     src='G_5.jpg' height='90'> <img     src='G_1.jpg' height='90'> <img     src='G_6.jpg' height='90'> <img     src='G_3.jpg' height='90'> <img id='swapped' src='G_7.jpg' height='90'> <img id='swapped'     src='G_4.jpg' height='90'> <img src='G_8.jpg' height='90'> <img src='G_2.jpg' height='90'>","null","Animation1"
"","","","","","html-keyboard-response","104","191791","0.0-90.0","65","1","2025-01-31 01:23:06","af8d355d56820e421d246a7037deb6e6","98.24.246.147","Mozilla/5.0 (Windows NT 10.0; Win64; x64) AppleWebKit/537.36 (KHTML, like Gecko) Chrome/132.0.0.0 Safari/537.36","WebKit","Chrome","132.0.0.0","Windows","10.0","https://app.prolific.com/","en-US,en;q=0.9","63656699c6cdc76f67843db5","67949641171f97c04e14fb34","679c25ebf202730c1899a5fa","","null","<img     src='G_5.jpg' height='90'> <img     src='G_1.jpg' height='90'> <img     src='G_6.jpg' height='90'> <img     src='G_3.jpg' height='90'> <img  src='G_7.jpg' height='90'> <img      src='G_4.jpg' height='90'> <img src='G_8.jpg' height='90'> <img src='G_2.jpg' height='90'>","null","Animation1"
"","","","","","html-keyboard-response","105","192302","0.0-91.0","65","1","2025-01-31 01:23:06","af8d355d56820e421d246a7037deb6e6","98.24.246.147","Mozilla/5.0 (Windows NT 10.0; Win64; x64) AppleWebKit/537.36 (KHTML, like Gecko) Chrome/132.0.0.0 Safari/537.36","WebKit","Chrome","132.0.0.0","Windows","10.0","https://app.prolific.com/","en-US,en;q=0.9","63656699c6cdc76f67843db5","67949641171f97c04e14fb34","679c25ebf202730c1899a5fa","","null","<img     src='G_5.jpg' height='90'> <img     src='G_1.jpg' height='90'> <img     src='G_6.jpg' height='90'> <img id='selected'     src='G_3.jpg' height='90'> <img  src='G_7.jpg' height='90'> <img      src='G_4.jpg' height='90'> <img src='G_8.jpg' height='90'> <img src='G_2.jpg' height='90'>","null","Animation1"
"","","","","","html-keyboard-response","106","192813","0.0-92.0","65","1","2025-01-31 01:23:06","af8d355d56820e421d246a7037deb6e6","98.24.246.147","Mozilla/5.0 (Windows NT 10.0; Win64; x64) AppleWebKit/537.36 (KHTML, like Gecko) Chrome/132.0.0.0 Safari/537.36","WebKit","Chrome","132.0.0.0","Windows","10.0","https://app.prolific.com/","en-US,en;q=0.9","63656699c6cdc76f67843db5","67949641171f97c04e14fb34","679c25ebf202730c1899a5fa","","null","<img     src='G_5.jpg' height='90'> <img     src='G_1.jpg' height='90'> <img     src='G_6.jpg' height='90'> <img id='selected'     src='G_3.jpg' height='90'> <img id='selected'  src='G_7.jpg' height='90'> <img      src='G_4.jpg' height='90'> <img src='G_8.jpg' height='90'> <img src='G_2.jpg' height='90'>","null","Animation1"
"","","","","","html-keyboard-response","107","193318","0.0-93.0","65","1","2025-01-31 01:23:06","af8d355d56820e421d246a7037deb6e6","98.24.246.147","Mozilla/5.0 (Windows NT 10.0; Win64; x64) AppleWebKit/537.36 (KHTML, like Gecko) Chrome/132.0.0.0 Safari/537.36","WebKit","Chrome","132.0.0.0","Windows","10.0","https://app.prolific.com/","en-US,en;q=0.9","63656699c6cdc76f67843db5","67949641171f97c04e14fb34","679c25ebf202730c1899a5fa","","null","<img     src='G_5.jpg' height='90'> <img     src='G_1.jpg' height='90'> <img     src='G_6.jpg' height='90'> <img id='selected'     src='G_3.jpg' height='90'> <img id='selected'  src='G_7.jpg' height='90'> <img      src='G_4.jpg' height='90'> <img src='G_8.jpg' height='90'> <img src='G_2.jpg' height='90'>","null","Animation1"
"","","","","","html-keyboard-response","108","193623","0.0-94.0","65","1","2025-01-31 01:23:06","af8d355d56820e421d246a7037deb6e6","98.24.246.147","Mozilla/5.0 (Windows NT 10.0; Win64; x64) AppleWebKit/537.36 (KHTML, like Gecko) Chrome/132.0.0.0 Safari/537.36","WebKit","Chrome","132.0.0.0","Windows","10.0","https://app.prolific.com/","en-US,en;q=0.9","63656699c6cdc76f67843db5","67949641171f97c04e14fb34","679c25ebf202730c1899a5fa","","null","<img     src='G_5.jpg' height='90'> <img     src='G_1.jpg' height='90'> <img     src='G_6.jpg' height='90'> <img      src='G_3.jpg' height='90'> <img   src='G_7.jpg' height='90'> <img      src='G_4.jpg' height='90'> <img src='G_8.jpg' height='90'> <img src='G_2.jpg' height='90'>","null","Animation1"
"","","","","","html-keyboard-response","109","194132","0.0-95.0","65","1","2025-01-31 01:23:06","af8d355d56820e421d246a7037deb6e6","98.24.246.147","Mozilla/5.0 (Windows NT 10.0; Win64; x64) AppleWebKit/537.36 (KHTML, like Gecko) Chrome/132.0.0.0 Safari/537.36","WebKit","Chrome","132.0.0.0","Windows","10.0","https://app.prolific.com/","en-US,en;q=0.9","63656699c6cdc76f67843db5","67949641171f97c04e14fb34","679c25ebf202730c1899a5fa","","null","<img     src='G_5.jpg' height='90'> <img     src='G_1.jpg' height='90'> <img     src='G_6.jpg' height='90'> <img      src='G_3.jpg' height='90'> <img   src='G_7.jpg' height='90'> <img id='selected'      src='G_4.jpg' height='90'> <img src='G_8.jpg' height='90'> <img src='G_2.jpg' height='90'>","null","Animation1"
"","","","","","html-keyboard-response","110","194635","0.0-96.0","65","1","2025-01-31 01:23:06","af8d355d56820e421d246a7037deb6e6","98.24.246.147","Mozilla/5.0 (Windows NT 10.0; Win64; x64) AppleWebKit/537.36 (KHTML, like Gecko) Chrome/132.0.0.0 Safari/537.36","WebKit","Chrome","132.0.0.0","Windows","10.0","https://app.prolific.com/","en-US,en;q=0.9","63656699c6cdc76f67843db5","67949641171f97c04e14fb34","679c25ebf202730c1899a5fa","","null","<img     src='G_5.jpg' height='90'> <img     src='G_1.jpg' height='90'> <img     src='G_6.jpg' height='90'> <img      src='G_3.jpg' height='90'> <img   src='G_7.jpg' height='90'> <img id='selected'      src='G_4.jpg' height='90'> <img id='selected' src='G_8.jpg' height='90'> <img src='G_2.jpg' height='90'>","null","Animation1"
"","","","","","html-keyboard-response","111","195148","0.0-97.0","65","1","2025-01-31 01:23:06","af8d355d56820e421d246a7037deb6e6","98.24.246.147","Mozilla/5.0 (Windows NT 10.0; Win64; x64) AppleWebKit/537.36 (KHTML, like Gecko) Chrome/132.0.0.0 Safari/537.36","WebKit","Chrome","132.0.0.0","Windows","10.0","https://app.prolific.com/","en-US,en;q=0.9","63656699c6cdc76f67843db5","67949641171f97c04e14fb34","679c25ebf202730c1899a5fa","","null","<img     src='G_5.jpg' height='90'> <img     src='G_1.jpg' height='90'> <img     src='G_6.jpg' height='90'> <img      src='G_3.jpg' height='90'> <img   src='G_7.jpg' height='90'> <img id='selected'      src='G_4.jpg' height='90'> <img id='selected' src='G_8.jpg' height='90'> <img src='G_2.jpg' height='90'>","null","Animation1"
"","","","","","html-keyboard-response","112","195458","0.0-98.0","65","1","2025-01-31 01:23:06","af8d355d56820e421d246a7037deb6e6","98.24.246.147","Mozilla/5.0 (Windows NT 10.0; Win64; x64) AppleWebKit/537.36 (KHTML, like Gecko) Chrome/132.0.0.0 Safari/537.36","WebKit","Chrome","132.0.0.0","Windows","10.0","https://app.prolific.com/","en-US,en;q=0.9","63656699c6cdc76f67843db5","67949641171f97c04e14fb34","679c25ebf202730c1899a5fa","","null","<img     src='G_5.jpg' height='90'> <img     src='G_1.jpg' height='90'> <img     src='G_6.jpg' height='90'> <img      src='G_3.jpg' height='90'> <img   src='G_7.jpg' height='90'> <img       src='G_4.jpg' height='90'> <img  src='G_8.jpg' height='90'> <img src='G_2.jpg' height='90'>","null","Animation1"
"","","","","","html-keyboard-response","113","195963","0.0-99.0","65","1","2025-01-31 01:23:06","af8d355d56820e421d246a7037deb6e6","98.24.246.147","Mozilla/5.0 (Windows NT 10.0; Win64; x64) AppleWebKit/537.36 (KHTML, like Gecko) Chrome/132.0.0.0 Safari/537.36","WebKit","Chrome","132.0.0.0","Windows","10.0","https://app.prolific.com/","en-US,en;q=0.9","63656699c6cdc76f67843db5","67949641171f97c04e14fb34","679c25ebf202730c1899a5fa","","null","<img     src='G_5.jpg' height='90'> <img     src='G_1.jpg' height='90'> <img     src='G_6.jpg' height='90'> <img      src='G_3.jpg' height='90'> <img   src='G_7.jpg' height='90'> <img       src='G_4.jpg' height='90'> <img id='selected'  src='G_8.jpg' height='90'> <img src='G_2.jpg' height='90'>","null","Animation1"
"","","","","","html-keyboard-response","114","196464","0.0-100.0","65","1","2025-01-31 01:23:06","af8d355d56820e421d246a7037deb6e6","98.24.246.147","Mozilla/5.0 (Windows NT 10.0; Win64; x64) AppleWebKit/537.36 (KHTML, like Gecko) Chrome/132.0.0.0 Safari/537.36","WebKit","Chrome","132.0.0.0","Windows","10.0","https://app.prolific.com/","en-US,en;q=0.9","63656699c6cdc76f67843db5","67949641171f97c04e14fb34","679c25ebf202730c1899a5fa","","null","<img     src='G_5.jpg' height='90'> <img     src='G_1.jpg' height='90'> <img     src='G_6.jpg' height='90'> <img      src='G_3.jpg' height='90'> <img   src='G_7.jpg' height='90'> <img       src='G_4.jpg' height='90'> <img id='selected'  src='G_8.jpg' height='90'> <img id='selected' src='G_2.jpg' height='90'>","null","Animation1"
"","","","","","html-keyboard-response","115","196969","0.0-101.0","65","1","2025-01-31 01:23:06","af8d355d56820e421d246a7037deb6e6","98.24.246.147","Mozilla/5.0 (Windows NT 10.0; Win64; x64) AppleWebKit/537.36 (KHTML, like Gecko) Chrome/132.0.0.0 Safari/537.36","WebKit","Chrome","132.0.0.0","Windows","10.0","https://app.prolific.com/","en-US,en;q=0.9","63656699c6cdc76f67843db5","67949641171f97c04e14fb34","679c25ebf202730c1899a5fa","","null","<img     src='G_5.jpg' height='90'> <img     src='G_1.jpg' height='90'> <img     src='G_6.jpg' height='90'> <img      src='G_3.jpg' height='90'> <img   src='G_7.jpg' height='90'> <img       src='G_4.jpg' height='90'> <img id='swapped' src='G_2.jpg' height='90'> <img id='swapped'  src='G_8.jpg' height='90'>","null","Animation1"
"","","","","","html-keyboard-response","116","197274","0.0-102.0","65","1","2025-01-31 01:23:06","af8d355d56820e421d246a7037deb6e6","98.24.246.147","Mozilla/5.0 (Windows NT 10.0; Win64; x64) AppleWebKit/537.36 (KHTML, like Gecko) Chrome/132.0.0.0 Safari/537.36","WebKit","Chrome","132.0.0.0","Windows","10.0","https://app.prolific.com/","en-US,en;q=0.9","63656699c6cdc76f67843db5","67949641171f97c04e14fb34","679c25ebf202730c1899a5fa","","null","<img     src='G_5.jpg' height='90'> <img     src='G_1.jpg' height='90'> <img     src='G_6.jpg' height='90'> <img      src='G_3.jpg' height='90'> <img   src='G_7.jpg' height='90'> <img       src='G_4.jpg' height='90'> <img  src='G_2.jpg' height='90'> <img   src='G_8.jpg' height='90'>","null","Animation1"
"","","","","","html-keyboard-response","117","197782","0.0-103.0","65","1","2025-01-31 01:23:06","af8d355d56820e421d246a7037deb6e6","98.24.246.147","Mozilla/5.0 (Windows NT 10.0; Win64; x64) AppleWebKit/537.36 (KHTML, like Gecko) Chrome/132.0.0.0 Safari/537.36","WebKit","Chrome","132.0.0.0","Windows","10.0","https://app.prolific.com/","en-US,en;q=0.9","63656699c6cdc76f67843db5","67949641171f97c04e14fb34","679c25ebf202730c1899a5fa","","null","<img     src='G_5.jpg' height='90'> <img     src='G_1.jpg' height='90'> <img     src='G_6.jpg' height='90'> <img      src='G_3.jpg' height='90'> <img   src='G_7.jpg' height='90'> <img id='selected'       src='G_4.jpg' height='90'> <img  src='G_2.jpg' height='90'> <img   src='G_8.jpg' height='90'>","null","Animation1"
"","","","","","html-keyboard-response","118","198300","0.0-104.0","65","1","2025-01-31 01:23:06","af8d355d56820e421d246a7037deb6e6","98.24.246.147","Mozilla/5.0 (Windows NT 10.0; Win64; x64) AppleWebKit/537.36 (KHTML, like Gecko) Chrome/132.0.0.0 Safari/537.36","WebKit","Chrome","132.0.0.0","Windows","10.0","https://app.prolific.com/","en-US,en;q=0.9","63656699c6cdc76f67843db5","67949641171f97c04e14fb34","679c25ebf202730c1899a5fa","","null","<img     src='G_5.jpg' height='90'> <img     src='G_1.jpg' height='90'> <img     src='G_6.jpg' height='90'> <img      src='G_3.jpg' height='90'> <img   src='G_7.jpg' height='90'> <img id='selected'       src='G_4.jpg' height='90'> <img id='selected'  src='G_2.jpg' height='90'> <img   src='G_8.jpg' height='90'>","null","Animation1"
"","","","","","html-keyboard-response","119","198802","0.0-105.0","65","1","2025-01-31 01:23:06","af8d355d56820e421d246a7037deb6e6","98.24.246.147","Mozilla/5.0 (Windows NT 10.0; Win64; x64) AppleWebKit/537.36 (KHTML, like Gecko) Chrome/132.0.0.0 Safari/537.36","WebKit","Chrome","132.0.0.0","Windows","10.0","https://app.prolific.com/","en-US,en;q=0.9","63656699c6cdc76f67843db5","67949641171f97c04e14fb34","679c25ebf202730c1899a5fa","","null","<img     src='G_5.jpg' height='90'> <img     src='G_1.jpg' height='90'> <img     src='G_6.jpg' height='90'> <img      src='G_3.jpg' height='90'> <img   src='G_7.jpg' height='90'> <img id='selected'       src='G_4.jpg' height='90'> <img id='selected'  src='G_2.jpg' height='90'> <img   src='G_8.jpg' height='90'>","null","Animation1"
"","","","","","html-keyboard-response","120","199107","0.0-106.0","65","1","2025-01-31 01:23:06","af8d355d56820e421d246a7037deb6e6","98.24.246.147","Mozilla/5.0 (Windows NT 10.0; Win64; x64) AppleWebKit/537.36 (KHTML, like Gecko) Chrome/132.0.0.0 Safari/537.36","WebKit","Chrome","132.0.0.0","Windows","10.0","https://app.prolific.com/","en-US,en;q=0.9","63656699c6cdc76f67843db5","67949641171f97c04e14fb34","679c25ebf202730c1899a5fa","","null","<img     src='G_5.jpg' height='90'> <img     src='G_1.jpg' height='90'> <img     src='G_6.jpg' height='90'> <img      src='G_3.jpg' height='90'> <img   src='G_7.jpg' height='90'> <img        src='G_4.jpg' height='90'> <img   src='G_2.jpg' height='90'> <img   src='G_8.jpg' height='90'>","null","Animation1"
"","","","","","html-keyboard-response","121","201743","0.0-107.0","65","1","2025-01-31 01:23:06","af8d355d56820e421d246a7037deb6e6","98.24.246.147","Mozilla/5.0 (Windows NT 10.0; Win64; x64) AppleWebKit/537.36 (KHTML, like Gecko) Chrome/132.0.0.0 Safari/537.36","WebKit","Chrome","132.0.0.0","Windows","10.0","https://app.prolific.com/","en-US,en;q=0.9","63656699c6cdc76f67843db5","67949641171f97c04e14fb34","679c25ebf202730c1899a5fa","","2634","[""Did you notice any patterns? <br><br>Press Enter to watch that example again and follow the steps of Omgne Sort.""]","enter",""
"","","","","","html-button-response","122","202155","0.0-108.0","65","1","2025-01-31 01:23:06","af8d355d56820e421d246a7037deb6e6","98.24.246.147","Mozilla/5.0 (Windows NT 10.0; Win64; x64) AppleWebKit/537.36 (KHTML, like Gecko) Chrome/132.0.0.0 Safari/537.36","WebKit","Chrome","132.0.0.0","Windows","10.0","https://app.prolific.com/","en-US,en;q=0.9","63656699c6cdc76f67843db5","67949641171f97c04e14fb34","679c25ebf202730c1899a5fa","","null","<img id='selected' src='G_3.jpg' height='90'> <img src='G_4.jpg' height='90'> <img src='G_6.jpg' height='90'> <img src='G_5.jpg' height='90'> <img src='G_1.jpg' height='90'> <img src='G_7.jpg' height='90'> <img src='G_8.jpg' height='90'> <img src='G_2.jpg' height='90'>","null","Learning example 1"
"","","","","","html-button-response","123","202471","0.0-109.0","65","1","2025-01-31 01:23:06","af8d355d56820e421d246a7037deb6e6","98.24.246.147","Mozilla/5.0 (Windows NT 10.0; Win64; x64) AppleWebKit/537.36 (KHTML, like Gecko) Chrome/132.0.0.0 Safari/537.36","WebKit","Chrome","132.0.0.0","Windows","10.0","https://app.prolific.com/","en-US,en;q=0.9","63656699c6cdc76f67843db5","67949641171f97c04e14fb34","679c25ebf202730c1899a5fa","","null","<img id='selected' src='G_3.jpg' height='90'> <img id='selected' src='G_4.jpg' height='90'> <img src='G_6.jpg' height='90'> <img src='G_5.jpg' height='90'> <img src='G_1.jpg' height='90'> <img src='G_7.jpg' height='90'> <img src='G_8.jpg' height='90'> <img src='G_2.jpg' height='90'>","null","Learning example 1"
"","","","","","html-button-response","124","202774","0.0-110.0","65","1","2025-01-31 01:23:06","af8d355d56820e421d246a7037deb6e6","98.24.246.147","Mozilla/5.0 (Windows NT 10.0; Win64; x64) AppleWebKit/537.36 (KHTML, like Gecko) Chrome/132.0.0.0 Safari/537.36","WebKit","Chrome","132.0.0.0","Windows","10.0","https://app.prolific.com/","en-US,en;q=0.9","63656699c6cdc76f67843db5","67949641171f97c04e14fb34","679c25ebf202730c1899a5fa","","null","<img id='selected' src='G_3.jpg' height='90'> <img id='selected' src='G_4.jpg' height='90'> <img src='G_6.jpg' height='90'> <img src='G_5.jpg' height='90'> <img src='G_1.jpg' height='90'> <img src='G_7.jpg' height='90'> <img src='G_8.jpg' height='90'> <img src='G_2.jpg' height='90'>","null","Learning example 1"
"","","","","","html-button-response","125","206186","0.0-111.0-0.0-0.0","65","1","2025-01-31 01:23:06","af8d355d56820e421d246a7037deb6e6","98.24.246.147","Mozilla/5.0 (Windows NT 10.0; Win64; x64) AppleWebKit/537.36 (KHTML, like Gecko) Chrome/132.0.0.0 Safari/537.36","WebKit","Chrome","132.0.0.0","Windows","10.0","https://app.prolific.com/","en-US,en;q=0.9","63656699c6cdc76f67843db5","67949641171f97c04e14fb34","679c25ebf202730c1899a5fa","","3410","<img id='selected' src='G_3.jpg' height='90'> <img id='selected' src='G_4.jpg' height='90'> <img src='G_6.jpg' height='90'> <img src='G_5.jpg' height='90'> <img src='G_1.jpg' height='90'> <img src='G_7.jpg' height='90'> <img src='G_8.jpg' height='90'> <img src='G_2.jpg' height='90'>","0","Learning example 1"
"","","","","","html-button-response","126","207494","0.0-111.1-0.1-0.1","65","1","2025-01-31 01:23:06","af8d355d56820e421d246a7037deb6e6","98.24.246.147","Mozilla/5.0 (Windows NT 10.0; Win64; x64) AppleWebKit/537.36 (KHTML, like Gecko) Chrome/132.0.0.0 Safari/537.36","WebKit","Chrome","132.0.0.0","Windows","10.0","https://app.prolific.com/","en-US,en;q=0.9","63656699c6cdc76f67843db5","67949641171f97c04e14fb34","679c25ebf202730c1899a5fa","","1305","<img id='selected' src='G_3.jpg' height='90'> <img id='selected' src='G_4.jpg' height='90'> <img src='G_6.jpg' height='90'> <img src='G_5.jpg' height='90'> <img src='G_1.jpg' height='90'> <img src='G_7.jpg' height='90'> <img src='G_8.jpg' height='90'> <img src='G_2.jpg' height='90'>","1","Learning example 1"
"","","","","","html-button-response","127","207710","0.0-112.0","65","1","2025-01-31 01:23:06","af8d355d56820e421d246a7037deb6e6","98.24.246.147","Mozilla/5.0 (Windows NT 10.0; Win64; x64) AppleWebKit/537.36 (KHTML, like Gecko) Chrome/132.0.0.0 Safari/537.36","WebKit","Chrome","132.0.0.0","Windows","10.0","https://app.prolific.com/","en-US,en;q=0.9","63656699c6cdc76f67843db5","67949641171f97c04e14fb34","679c25ebf202730c1899a5fa","","null","<img  src='G_3.jpg' height='90'> <img  src='G_4.jpg' height='90'> <img src='G_6.jpg' height='90'> <img src='G_5.jpg' height='90'> <img src='G_1.jpg' height='90'> <img src='G_7.jpg' height='90'> <img src='G_8.jpg' height='90'> <img src='G_2.jpg' height='90'>","null","Learning example 1"
"","","","","","html-button-response","128","208119","0.0-113.0","65","1","2025-01-31 01:23:06","af8d355d56820e421d246a7037deb6e6","98.24.246.147","Mozilla/5.0 (Windows NT 10.0; Win64; x64) AppleWebKit/537.36 (KHTML, like Gecko) Chrome/132.0.0.0 Safari/537.36","WebKit","Chrome","132.0.0.0","Windows","10.0","https://app.prolific.com/","en-US,en;q=0.9","63656699c6cdc76f67843db5","67949641171f97c04e14fb34","679c25ebf202730c1899a5fa","","null","<img  src='G_3.jpg' height='90'> <img id='selected'  src='G_4.jpg' height='90'> <img src='G_6.jpg' height='90'> <img src='G_5.jpg' height='90'> <img src='G_1.jpg' height='90'> <img src='G_7.jpg' height='90'> <img src='G_8.jpg' height='90'> <img src='G_2.jpg' height='90'>","null","Learning example 1"
"","","","","","html-button-response","129","208424","0.0-114.0","65","1","2025-01-31 01:23:06","af8d355d56820e421d246a7037deb6e6","98.24.246.147","Mozilla/5.0 (Windows NT 10.0; Win64; x64) AppleWebKit/537.36 (KHTML, like Gecko) Chrome/132.0.0.0 Safari/537.36","WebKit","Chrome","132.0.0.0","Windows","10.0","https://app.prolific.com/","en-US,en;q=0.9","63656699c6cdc76f67843db5","67949641171f97c04e14fb34","679c25ebf202730c1899a5fa","","null","<img  src='G_3.jpg' height='90'> <img id='selected'  src='G_4.jpg' height='90'> <img id='selected' src='G_6.jpg' height='90'> <img src='G_5.jpg' height='90'> <img src='G_1.jpg' height='90'> <img src='G_7.jpg' height='90'> <img src='G_8.jpg' height='90'> <img src='G_2.jpg' height='90'>","null","Learning example 1"
"","","","","","html-button-response","130","208739","0.0-115.0","65","1","2025-01-31 01:23:06","af8d355d56820e421d246a7037deb6e6","98.24.246.147","Mozilla/5.0 (Windows NT 10.0; Win64; x64) AppleWebKit/537.36 (KHTML, like Gecko) Chrome/132.0.0.0 Safari/537.36","WebKit","Chrome","132.0.0.0","Windows","10.0","https://app.prolific.com/","en-US,en;q=0.9","63656699c6cdc76f67843db5","67949641171f97c04e14fb34","679c25ebf202730c1899a5fa","","null","<img  src='G_3.jpg' height='90'> <img id='swapped' src='G_6.jpg' height='90'> <img id='swapped'  src='G_4.jpg' height='90'> <img src='G_5.jpg' height='90'> <img src='G_1.jpg' height='90'> <img src='G_7.jpg' height='90'> <img src='G_8.jpg' height='90'> <img src='G_2.jpg' height='90'>","null","Learning example 1"
"","","","","","html-button-response","131","211972","0.0-116.0-0.0-0.0","65","1","2025-01-31 01:23:06","af8d355d56820e421d246a7037deb6e6","98.24.246.147","Mozilla/5.0 (Windows NT 10.0; Win64; x64) AppleWebKit/537.36 (KHTML, like Gecko) Chrome/132.0.0.0 Safari/537.36","WebKit","Chrome","132.0.0.0","Windows","10.0","https://app.prolific.com/","en-US,en;q=0.9","63656699c6cdc76f67843db5","67949641171f97c04e14fb34","679c25ebf202730c1899a5fa","","3231","<img  src='G_3.jpg' height='90'> <img id='swapped' src='G_6.jpg' height='90'> <img id='swapped'  src='G_4.jpg' height='90'> <img src='G_5.jpg' height='90'> <img src='G_1.jpg' height='90'> <img src='G_7.jpg' height='90'> <img src='G_8.jpg' height='90'> <img src='G_2.jpg' height='90'>","1","Learning example 1"
"","","","","","html-button-response","132","212836","0.0-116.1-0.1-0.1","65","1","2025-01-31 01:23:06","af8d355d56820e421d246a7037deb6e6","98.24.246.147","Mozilla/5.0 (Windows NT 10.0; Win64; x64) AppleWebKit/537.36 (KHTML, like Gecko) Chrome/132.0.0.0 Safari/537.36","WebKit","Chrome","132.0.0.0","Windows","10.0","https://app.prolific.com/","en-US,en;q=0.9","63656699c6cdc76f67843db5","67949641171f97c04e14fb34","679c25ebf202730c1899a5fa","","861","<img  src='G_3.jpg' height='90'> <img id='swapped' src='G_6.jpg' height='90'> <img id='swapped'  src='G_4.jpg' height='90'> <img src='G_5.jpg' height='90'> <img src='G_1.jpg' height='90'> <img src='G_7.jpg' height='90'> <img src='G_8.jpg' height='90'> <img src='G_2.jpg' height='90'>","2","Learning example 1"
"","","","","","html-button-response","133","213044","0.0-117.0","65","1","2025-01-31 01:23:06","af8d355d56820e421d246a7037deb6e6","98.24.246.147","Mozilla/5.0 (Windows NT 10.0; Win64; x64) AppleWebKit/537.36 (KHTML, like Gecko) Chrome/132.0.0.0 Safari/537.36","WebKit","Chrome","132.0.0.0","Windows","10.0","https://app.prolific.com/","en-US,en;q=0.9","63656699c6cdc76f67843db5","67949641171f97c04e14fb34","679c25ebf202730c1899a5fa","","null","<img  src='G_3.jpg' height='90'> <img  src='G_6.jpg' height='90'> <img   src='G_4.jpg' height='90'> <img src='G_5.jpg' height='90'> <img src='G_1.jpg' height='90'> <img src='G_7.jpg' height='90'> <img src='G_8.jpg' height='90'> <img src='G_2.jpg' height='90'>","null","Learning example 1"
"","","","","","html-button-response","134","213453","0.0-118.0","65","1","2025-01-31 01:23:06","af8d355d56820e421d246a7037deb6e6","98.24.246.147","Mozilla/5.0 (Windows NT 10.0; Win64; x64) AppleWebKit/537.36 (KHTML, like Gecko) Chrome/132.0.0.0 Safari/537.36","WebKit","Chrome","132.0.0.0","Windows","10.0","https://app.prolific.com/","en-US,en;q=0.9","63656699c6cdc76f67843db5","67949641171f97c04e14fb34","679c25ebf202730c1899a5fa","","null","<img id='selected'  src='G_3.jpg' height='90'> <img  src='G_6.jpg' height='90'> <img   src='G_4.jpg' height='90'> <img src='G_5.jpg' height='90'> <img src='G_1.jpg' height='90'> <img src='G_7.jpg' height='90'> <img src='G_8.jpg' height='90'> <img src='G_2.jpg' height='90'>","null","Learning example 1"
"","","","","","html-button-response","135","213759","0.0-119.0","65","1","2025-01-31 01:23:06","af8d355d56820e421d246a7037deb6e6","98.24.246.147","Mozilla/5.0 (Windows NT 10.0; Win64; x64) AppleWebKit/537.36 (KHTML, like Gecko) Chrome/132.0.0.0 Safari/537.36","WebKit","Chrome","132.0.0.0","Windows","10.0","https://app.prolific.com/","en-US,en;q=0.9","63656699c6cdc76f67843db5","67949641171f97c04e14fb34","679c25ebf202730c1899a5fa","","null","<img id='selected'  src='G_3.jpg' height='90'> <img id='selected'  src='G_6.jpg' height='90'> <img   src='G_4.jpg' height='90'> <img src='G_5.jpg' height='90'> <img src='G_1.jpg' height='90'> <img src='G_7.jpg' height='90'> <img src='G_8.jpg' height='90'> <img src='G_2.jpg' height='90'>","null","Learning example 1"
"","","","","","html-button-response","136","214074","0.0-120.0","65","1","2025-01-31 01:23:06","af8d355d56820e421d246a7037deb6e6","98.24.246.147","Mozilla/5.0 (Windows NT 10.0; Win64; x64) AppleWebKit/537.36 (KHTML, like Gecko) Chrome/132.0.0.0 Safari/537.36","WebKit","Chrome","132.0.0.0","Windows","10.0","https://app.prolific.com/","en-US,en;q=0.9","63656699c6cdc76f67843db5","67949641171f97c04e14fb34","679c25ebf202730c1899a5fa","","null","<img id='swapped'  src='G_6.jpg' height='90'> <img id='swapped'  src='G_3.jpg' height='90'> <img   src='G_4.jpg' height='90'> <img src='G_5.jpg' height='90'> <img src='G_1.jpg' height='90'> <img src='G_7.jpg' height='90'> <img src='G_8.jpg' height='90'> <img src='G_2.jpg' height='90'>","null","Learning example 1"
"","","","","","html-button-response","137","216583","0.0-121.0-0.0-0.0","65","1","2025-01-31 01:23:06","af8d355d56820e421d246a7037deb6e6","98.24.246.147","Mozilla/5.0 (Windows NT 10.0; Win64; x64) AppleWebKit/537.36 (KHTML, like Gecko) Chrome/132.0.0.0 Safari/537.36","WebKit","Chrome","132.0.0.0","Windows","10.0","https://app.prolific.com/","en-US,en;q=0.9","63656699c6cdc76f67843db5","67949641171f97c04e14fb34","679c25ebf202730c1899a5fa","","2507","<img id='swapped'  src='G_6.jpg' height='90'> <img id='swapped'  src='G_3.jpg' height='90'> <img   src='G_4.jpg' height='90'> <img src='G_5.jpg' height='90'> <img src='G_1.jpg' height='90'> <img src='G_7.jpg' height='90'> <img src='G_8.jpg' height='90'> <img src='G_2.jpg' height='90'>","1","Learning example 1"
"","","","","","html-button-response","138","217368","0.0-121.1-0.1-0.1","65","1","2025-01-31 01:23:06","af8d355d56820e421d246a7037deb6e6","98.24.246.147","Mozilla/5.0 (Windows NT 10.0; Win64; x64) AppleWebKit/537.36 (KHTML, like Gecko) Chrome/132.0.0.0 Safari/537.36","WebKit","Chrome","132.0.0.0","Windows","10.0","https://app.prolific.com/","en-US,en;q=0.9","63656699c6cdc76f67843db5","67949641171f97c04e14fb34","679c25ebf202730c1899a5fa","","783","<img id='swapped'  src='G_6.jpg' height='90'> <img id='swapped'  src='G_3.jpg' height='90'> <img   src='G_4.jpg' height='90'> <img src='G_5.jpg' height='90'> <img src='G_1.jpg' height='90'> <img src='G_7.jpg' height='90'> <img src='G_8.jpg' height='90'> <img src='G_2.jpg' height='90'>","0","Learning example 1"
"","","","","","html-button-response","139","217578","0.0-122.0","65","1","2025-01-31 01:23:06","af8d355d56820e421d246a7037deb6e6","98.24.246.147","Mozilla/5.0 (Windows NT 10.0; Win64; x64) AppleWebKit/537.36 (KHTML, like Gecko) Chrome/132.0.0.0 Safari/537.36","WebKit","Chrome","132.0.0.0","Windows","10.0","https://app.prolific.com/","en-US,en;q=0.9","63656699c6cdc76f67843db5","67949641171f97c04e14fb34","679c25ebf202730c1899a5fa","","null","<img   src='G_6.jpg' height='90'> <img   src='G_3.jpg' height='90'> <img   src='G_4.jpg' height='90'> <img src='G_5.jpg' height='90'> <img src='G_1.jpg' height='90'> <img src='G_7.jpg' height='90'> <img src='G_8.jpg' height='90'> <img src='G_2.jpg' height='90'>","null","Learning example 1"
"","","","","","html-button-response","140","217986","0.0-123.0","65","1","2025-01-31 01:23:06","af8d355d56820e421d246a7037deb6e6","98.24.246.147","Mozilla/5.0 (Windows NT 10.0; Win64; x64) AppleWebKit/537.36 (KHTML, like Gecko) Chrome/132.0.0.0 Safari/537.36","WebKit","Chrome","132.0.0.0","Windows","10.0","https://app.prolific.com/","en-US,en;q=0.9","63656699c6cdc76f67843db5","67949641171f97c04e14fb34","679c25ebf202730c1899a5fa","","null","<img   src='G_6.jpg' height='90'> <img   src='G_3.jpg' height='90'> <img id='selected'   src='G_4.jpg' height='90'> <img src='G_5.jpg' height='90'> <img src='G_1.jpg' height='90'> <img src='G_7.jpg' height='90'> <img src='G_8.jpg' height='90'> <img src='G_2.jpg' height='90'>","null","Learning example 1"
"","","","","","html-button-response","141","218292","0.0-124.0","65","1","2025-01-31 01:23:06","af8d355d56820e421d246a7037deb6e6","98.24.246.147","Mozilla/5.0 (Windows NT 10.0; Win64; x64) AppleWebKit/537.36 (KHTML, like Gecko) Chrome/132.0.0.0 Safari/537.36","WebKit","Chrome","132.0.0.0","Windows","10.0","https://app.prolific.com/","en-US,en;q=0.9","63656699c6cdc76f67843db5","67949641171f97c04e14fb34","679c25ebf202730c1899a5fa","","null","<img   src='G_6.jpg' height='90'> <img   src='G_3.jpg' height='90'> <img id='selected'   src='G_4.jpg' height='90'> <img id='selected' src='G_5.jpg' height='90'> <img src='G_1.jpg' height='90'> <img src='G_7.jpg' height='90'> <img src='G_8.jpg' height='90'> <img src='G_2.jpg' height='90'>","null","Learning example 1"
"","","","","","html-button-response","142","218608","0.0-125.0","65","1","2025-01-31 01:23:06","af8d355d56820e421d246a7037deb6e6","98.24.246.147","Mozilla/5.0 (Windows NT 10.0; Win64; x64) AppleWebKit/537.36 (KHTML, like Gecko) Chrome/132.0.0.0 Safari/537.36","WebKit","Chrome","132.0.0.0","Windows","10.0","https://app.prolific.com/","en-US,en;q=0.9","63656699c6cdc76f67843db5","67949641171f97c04e14fb34","679c25ebf202730c1899a5fa","","null","<img   src='G_6.jpg' height='90'> <img   src='G_3.jpg' height='90'> <img id='swapped' src='G_5.jpg' height='90'> <img id='swapped'   src='G_4.jpg' height='90'> <img src='G_1.jpg' height='90'> <img src='G_7.jpg' height='90'> <img src='G_8.jpg' height='90'> <img src='G_2.jpg' height='90'>","null","Learning example 1"
