"success","timeout","failed_images","failed_audio","failed_video","trial_type","trial_index","time_elapsed","internal_node_id","run_id","condition","recorded_at","source_code_version","ip","user_agent","device","browser","browser_version","platform","platform_version","referer","accept_language","PROLIFIC_PID","STUDY_ID","SESSION_ID","view_history","rt","stimulus","response","phase","question_order"
"true","false","[]","[]","[]","preload","0","116","0.0-0.0","66","1","2025-01-31 01:29:25","af8d355d56820e421d246a7037deb6e6","99.33.29.117","Mozilla/5.0 (Windows NT 10.0; Win64; x64) AppleWebKit/537.36 (KHTML, like Gecko) Chrome/132.0.0.0 Safari/537.36","WebKit","Chrome","132.0.0.0","Windows","10.0","https://app.prolific.com/","en-US,en;q=0.9","614e6f4f00a9e94b123316d3","67949641171f97c04e14fb34","679c276b5daf3bd4e7e17047","","","","","",""
"","","","","","instructions","1","4781","0.0-1.0","66","1","2025-01-31 01:29:25","af8d355d56820e421d246a7037deb6e6","99.33.29.117","Mozilla/5.0 (Windows NT 10.0; Win64; x64) AppleWebKit/537.36 (KHTML, like Gecko) Chrome/132.0.0.0 Safari/537.36","WebKit","Chrome","132.0.0.0","Windows","10.0","https://app.prolific.com/","en-US,en;q=0.9","614e6f4f00a9e94b123316d3","67949641171f97c04e14fb34","679c276b5daf3bd4e7e17047","[{""page_index"":0,""viewing_time"":4663}]","4664","","","",""
"","","","","","html-keyboard-response","2","5295","0.0-2.0","66","1","2025-01-31 01:29:25","af8d355d56820e421d246a7037deb6e6","99.33.29.117","Mozilla/5.0 (Windows NT 10.0; Win64; x64) AppleWebKit/537.36 (KHTML, like Gecko) Chrome/132.0.0.0 Safari/537.36","WebKit","Chrome","132.0.0.0","Windows","10.0","https://app.prolific.com/","en-US,en;q=0.9","614e6f4f00a9e94b123316d3","67949641171f97c04e14fb34","679c276b5daf3bd4e7e17047","","null","<p> + <p/>","null","",""
"","","","","","instructions","3","68654","0.0-3.0","66","1","2025-01-31 01:29:25","af8d355d56820e421d246a7037deb6e6","99.33.29.117","Mozilla/5.0 (Windows NT 10.0; Win64; x64) AppleWebKit/537.36 (KHTML, like Gecko) Chrome/132.0.0.0 Safari/537.36","WebKit","Chrome","132.0.0.0","Windows","10.0","https://app.prolific.com/","en-US,en;q=0.9","614e6f4f00a9e94b123316d3","67949641171f97c04e14fb34","679c276b5daf3bd4e7e17047","[{""page_index"":0,""viewing_time"":1828},{""page_index"":1,""viewing_time"":49049},{""page_index"":2,""viewing_time"":5452},{""page_index"":3,""viewing_time"":2454},{""page_index"":4,""viewing_time"":4574}]","63357","","","",""
"","","","","","html-button-response","4","71510","0.0-4.0-0.0-0.0","66","1","2025-01-31 01:29:25","af8d355d56820e421d246a7037deb6e6","99.33.29.117","Mozilla/5.0 (Windows NT 10.0; Win64; x64) AppleWebKit/537.36 (KHTML, like Gecko) Chrome/132.0.0.0 Safari/537.36","WebKit","Chrome","132.0.0.0","Windows","10.0","https://app.prolific.com/","en-US,en;q=0.9","614e6f4f00a9e94b123316d3","67949641171f97c04e14fb34","679c276b5daf3bd4e7e17047","","2852","","0","Intro Trial",""
"","","","","","html-button-response","5","72576","0.0-4.1-0.1-0.1","66","1","2025-01-31 01:29:25","af8d355d56820e421d246a7037deb6e6","99.33.29.117","Mozilla/5.0 (Windows NT 10.0; Win64; x64) AppleWebKit/537.36 (KHTML, like Gecko) Chrome/132.0.0.0 Safari/537.36","WebKit","Chrome","132.0.0.0","Windows","10.0","https://app.prolific.com/","en-US,en;q=0.9","614e6f4f00a9e94b123316d3","67949641171f97c04e14fb34","679c276b5daf3bd4e7e17047","","1061","","2","Intro Trial",""
"","","","","","html-button-response","6","87658","0.0-4.2-0.2-0.2","66","1","2025-01-31 01:29:25","af8d355d56820e421d246a7037deb6e6","99.33.29.117","Mozilla/5.0 (Windows NT 10.0; Win64; x64) AppleWebKit/537.36 (KHTML, like Gecko) Chrome/132.0.0.0 Safari/537.36","WebKit","Chrome","132.0.0.0","Windows","10.0","https://app.prolific.com/","en-US,en;q=0.9","614e6f4f00a9e94b123316d3","67949641171f97c04e14fb34","679c276b5daf3bd4e7e17047","","15079","","1","Intro Trial",""
"","","","","","html-button-response","7","88276","0.0-4.3-0.3-0.3","66","1","2025-01-31 01:29:25","af8d355d56820e421d246a7037deb6e6","99.33.29.117","Mozilla/5.0 (Windows NT 10.0; Win64; x64) AppleWebKit/537.36 (KHTML, like Gecko) Chrome/132.0.0.0 Safari/537.36","WebKit","Chrome","132.0.0.0","Windows","10.0","https://app.prolific.com/","en-US,en;q=0.9","614e6f4f00a9e94b123316d3","67949641171f97c04e14fb34","679c276b5daf3bd4e7e17047","","614","","2","Intro Trial",""
"","","","","","html-button-response","8","89257","0.0-4.4-0.4-0.4","66","1","2025-01-31 01:29:25","af8d355d56820e421d246a7037deb6e6","99.33.29.117","Mozilla/5.0 (Windows NT 10.0; Win64; x64) AppleWebKit/537.36 (KHTML, like Gecko) Chrome/132.0.0.0 Safari/537.36","WebKit","Chrome","132.0.0.0","Windows","10.0","https://app.prolific.com/","en-US,en;q=0.9","614e6f4f00a9e94b123316d3","67949641171f97c04e14fb34","679c276b5daf3bd4e7e17047","","977","","3","Intro Trial",""
"","","","","","html-button-response","9","89892","0.0-4.5-0.5-0.5","66","1","2025-01-31 01:29:25","af8d355d56820e421d246a7037deb6e6","99.33.29.117","Mozilla/5.0 (Windows NT 10.0; Win64; x64) AppleWebKit/537.36 (KHTML, like Gecko) Chrome/132.0.0.0 Safari/537.36","WebKit","Chrome","132.0.0.0","Windows","10.0","https://app.prolific.com/","en-US,en;q=0.9","614e6f4f00a9e94b123316d3","67949641171f97c04e14fb34","679c276b5daf3bd4e7e17047","","630","","4","Intro Trial",""
"","","","","","html-button-response","10","90907","0.0-4.6-0.6-0.6","66","1","2025-01-31 01:29:25","af8d355d56820e421d246a7037deb6e6","99.33.29.117","Mozilla/5.0 (Windows NT 10.0; Win64; x64) AppleWebKit/537.36 (KHTML, like Gecko) Chrome/132.0.0.0 Safari/537.36","WebKit","Chrome","132.0.0.0","Windows","10.0","https://app.prolific.com/","en-US,en;q=0.9","614e6f4f00a9e94b123316d3","67949641171f97c04e14fb34","679c276b5daf3bd4e7e17047","","1010","","5","Intro Trial",""
"","","","","","html-keyboard-response","11","99468","0.0-5.0","66","1","2025-01-31 01:29:25","af8d355d56820e421d246a7037deb6e6","99.33.29.117","Mozilla/5.0 (Windows NT 10.0; Win64; x64) AppleWebKit/537.36 (KHTML, like Gecko) Chrome/132.0.0.0 Safari/537.36","WebKit","Chrome","132.0.0.0","Windows","10.0","https://app.prolific.com/","en-US,en;q=0.9","614e6f4f00a9e94b123316d3","67949641171f97c04e14fb34","679c276b5daf3bd4e7e17047","","8556","[""You sorted incorrectly by using the balance 3 times. <br><br> <img src='G_3.jpg' height='90'><img src='G_2.jpg' height='90'><img src='G_1.jpg' height='90'><img src='G_5.jpg' height='90'><img src='G_4.jpg' height='90'><br><br> Your final order is 3,2,4,1,5<br><br><br>Omgne Sort in this game will allow you to sort correctly by using the balance 8 times. Press Enter to learn it!""]","enter","",""
"","","","","","html-keyboard-response","12","102238","0.0-6.0","66","1","2025-01-31 01:29:25","af8d355d56820e421d246a7037deb6e6","99.33.29.117","Mozilla/5.0 (Windows NT 10.0; Win64; x64) AppleWebKit/537.36 (KHTML, like Gecko) Chrome/132.0.0.0 Safari/537.36","WebKit","Chrome","132.0.0.0","Windows","10.0","https://app.prolific.com/","en-US,en;q=0.9","614e6f4f00a9e94b123316d3","67949641171f97c04e14fb34","679c276b5daf3bd4e7e17047","","2769","<p>Welcome to the learning phase! <br><br> You will learn by six examples. The following learning trials will not be used to calculate your performance. <br><br> Press Enter to continue.<p/>","enter","",""
"","","","","","html-keyboard-response","13","104605","0.0-7.0","66","1","2025-01-31 01:29:25","af8d355d56820e421d246a7037deb6e6","99.33.29.117","Mozilla/5.0 (Windows NT 10.0; Win64; x64) AppleWebKit/537.36 (KHTML, like Gecko) Chrome/132.0.0.0 Safari/537.36","WebKit","Chrome","132.0.0.0","Windows","10.0","https://app.prolific.com/","en-US,en;q=0.9","614e6f4f00a9e94b123316d3","67949641171f97c04e14fb34","679c276b5daf3bd4e7e17047","","2366","[""Example 1<br><br>You will watch Omnge Sort in action. Try to identify any patterns in the comparisons made by this method. <br><br>Press Enter to continue.""]","enter","",""
"","","","","","html-keyboard-response","14","105115","0.0-8.0","66","1","2025-01-31 01:29:25","af8d355d56820e421d246a7037deb6e6","99.33.29.117","Mozilla/5.0 (Windows NT 10.0; Win64; x64) AppleWebKit/537.36 (KHTML, like Gecko) Chrome/132.0.0.0 Safari/537.36","WebKit","Chrome","132.0.0.0","Windows","10.0","https://app.prolific.com/","en-US,en;q=0.9","614e6f4f00a9e94b123316d3","67949641171f97c04e14fb34","679c276b5daf3bd4e7e17047","","null","<img id='selected' src='G_3.jpg' height='90'> <img src='G_9.jpg' height='90'> <img src='G_5.jpg' height='90'> <img src='G_7.jpg' height='90'> <img src='G_1.jpg' height='90'>","null","Animation0",""
"","","","","","html-keyboard-response","15","105630","0.0-9.0","66","1","2025-01-31 01:29:25","af8d355d56820e421d246a7037deb6e6","99.33.29.117","Mozilla/5.0 (Windows NT 10.0; Win64; x64) AppleWebKit/537.36 (KHTML, like Gecko) Chrome/132.0.0.0 Safari/537.36","WebKit","Chrome","132.0.0.0","Windows","10.0","https://app.prolific.com/","en-US,en;q=0.9","614e6f4f00a9e94b123316d3","67949641171f97c04e14fb34","679c276b5daf3bd4e7e17047","","null","<img id='selected' src='G_3.jpg' height='90'> <img id='selected' src='G_9.jpg' height='90'> <img src='G_5.jpg' height='90'> <img src='G_7.jpg' height='90'> <img src='G_1.jpg' height='90'>","null","Animation0",""
"","","","","","html-keyboard-response","16","106142","0.0-10.0","66","1","2025-01-31 01:29:25","af8d355d56820e421d246a7037deb6e6","99.33.29.117","Mozilla/5.0 (Windows NT 10.0; Win64; x64) AppleWebKit/537.36 (KHTML, like Gecko) Chrome/132.0.0.0 Safari/537.36","WebKit","Chrome","132.0.0.0","Windows","10.0","https://app.prolific.com/","en-US,en;q=0.9","614e6f4f00a9e94b123316d3","67949641171f97c04e14fb34","679c276b5daf3bd4e7e17047","","null","<img id='swapped' src='G_9.jpg' height='90'> <img id='swapped' src='G_3.jpg' height='90'> <img src='G_5.jpg' height='90'> <img src='G_7.jpg' height='90'> <img src='G_1.jpg' height='90'>","null","Animation0",""
"","","","","","html-keyboard-response","17","106450","0.0-11.0","66","1","2025-01-31 01:29:25","af8d355d56820e421d246a7037deb6e6","99.33.29.117","Mozilla/5.0 (Windows NT 10.0; Win64; x64) AppleWebKit/537.36 (KHTML, like Gecko) Chrome/132.0.0.0 Safari/537.36","WebKit","Chrome","132.0.0.0","Windows","10.0","https://app.prolific.com/","en-US,en;q=0.9","614e6f4f00a9e94b123316d3","67949641171f97c04e14fb34","679c276b5daf3bd4e7e17047","","null","<img  src='G_9.jpg' height='90'> <img  src='G_3.jpg' height='90'> <img src='G_5.jpg' height='90'> <img src='G_7.jpg' height='90'> <img src='G_1.jpg' height='90'>","null","Animation0",""
"","","","","","html-keyboard-response","18","106964","0.0-12.0","66","1","2025-01-31 01:29:25","af8d355d56820e421d246a7037deb6e6","99.33.29.117","Mozilla/5.0 (Windows NT 10.0; Win64; x64) AppleWebKit/537.36 (KHTML, like Gecko) Chrome/132.0.0.0 Safari/537.36","WebKit","Chrome","132.0.0.0","Windows","10.0","https://app.prolific.com/","en-US,en;q=0.9","614e6f4f00a9e94b123316d3","67949641171f97c04e14fb34","679c276b5daf3bd4e7e17047","","null","<img  src='G_9.jpg' height='90'> <img id='selected'  src='G_3.jpg' height='90'> <img src='G_5.jpg' height='90'> <img src='G_7.jpg' height='90'> <img src='G_1.jpg' height='90'>","null","Animation0",""
"","","","","","html-keyboard-response","19","107473","0.0-13.0","66","1","2025-01-31 01:29:25","af8d355d56820e421d246a7037deb6e6","99.33.29.117","Mozilla/5.0 (Windows NT 10.0; Win64; x64) AppleWebKit/537.36 (KHTML, like Gecko) Chrome/132.0.0.0 Safari/537.36","WebKit","Chrome","132.0.0.0","Windows","10.0","https://app.prolific.com/","en-US,en;q=0.9","614e6f4f00a9e94b123316d3","67949641171f97c04e14fb34","679c276b5daf3bd4e7e17047","","null","<img  src='G_9.jpg' height='90'> <img id='selected'  src='G_3.jpg' height='90'> <img id='selected' src='G_5.jpg' height='90'> <img src='G_7.jpg' height='90'> <img src='G_1.jpg' height='90'>","null","Animation0",""
"","","","","","html-keyboard-response","20","107978","0.0-14.0","66","1","2025-01-31 01:29:25","af8d355d56820e421d246a7037deb6e6","99.33.29.117","Mozilla/5.0 (Windows NT 10.0; Win64; x64) AppleWebKit/537.36 (KHTML, like Gecko) Chrome/132.0.0.0 Safari/537.36","WebKit","Chrome","132.0.0.0","Windows","10.0","https://app.prolific.com/","en-US,en;q=0.9","614e6f4f00a9e94b123316d3","67949641171f97c04e14fb34","679c276b5daf3bd4e7e17047","","null","<img  src='G_9.jpg' height='90'> <img id='selected'  src='G_3.jpg' height='90'> <img id='selected' src='G_5.jpg' height='90'> <img src='G_7.jpg' height='90'> <img src='G_1.jpg' height='90'>","null","Animation0",""
"","","","","","html-keyboard-response","21","108299","0.0-15.0","66","1","2025-01-31 01:29:25","af8d355d56820e421d246a7037deb6e6","99.33.29.117","Mozilla/5.0 (Windows NT 10.0; Win64; x64) AppleWebKit/537.36 (KHTML, like Gecko) Chrome/132.0.0.0 Safari/537.36","WebKit","Chrome","132.0.0.0","Windows","10.0","https://app.prolific.com/","en-US,en;q=0.9","614e6f4f00a9e94b123316d3","67949641171f97c04e14fb34","679c276b5daf3bd4e7e17047","","null","<img  src='G_9.jpg' height='90'> <img   src='G_3.jpg' height='90'> <img  src='G_5.jpg' height='90'> <img src='G_7.jpg' height='90'> <img src='G_1.jpg' height='90'>","null","Animation0",""
"","","","","","html-keyboard-response","22","108812","0.0-16.0","66","1","2025-01-31 01:29:25","af8d355d56820e421d246a7037deb6e6","99.33.29.117","Mozilla/5.0 (Windows NT 10.0; Win64; x64) AppleWebKit/537.36 (KHTML, like Gecko) Chrome/132.0.0.0 Safari/537.36","WebKit","Chrome","132.0.0.0","Windows","10.0","https://app.prolific.com/","en-US,en;q=0.9","614e6f4f00a9e94b123316d3","67949641171f97c04e14fb34","679c276b5daf3bd4e7e17047","","null","<img  src='G_9.jpg' height='90'> <img   src='G_3.jpg' height='90'> <img id='selected'  src='G_5.jpg' height='90'> <img src='G_7.jpg' height='90'> <img src='G_1.jpg' height='90'>","null","Animation0",""
"","","","","","html-keyboard-response","23","109328","0.0-17.0","66","1","2025-01-31 01:29:25","af8d355d56820e421d246a7037deb6e6","99.33.29.117","Mozilla/5.0 (Windows NT 10.0; Win64; x64) AppleWebKit/537.36 (KHTML, like Gecko) Chrome/132.0.0.0 Safari/537.36","WebKit","Chrome","132.0.0.0","Windows","10.0","https://app.prolific.com/","en-US,en;q=0.9","614e6f4f00a9e94b123316d3","67949641171f97c04e14fb34","679c276b5daf3bd4e7e17047","","null","<img  src='G_9.jpg' height='90'> <img   src='G_3.jpg' height='90'> <img id='selected'  src='G_5.jpg' height='90'> <img id='selected' src='G_7.jpg' height='90'> <img src='G_1.jpg' height='90'>","null","Animation0",""
"","","","","","html-keyboard-response","24","109844","0.0-18.0","66","1","2025-01-31 01:29:25","af8d355d56820e421d246a7037deb6e6","99.33.29.117","Mozilla/5.0 (Windows NT 10.0; Win64; x64) AppleWebKit/537.36 (KHTML, like Gecko) Chrome/132.0.0.0 Safari/537.36","WebKit","Chrome","132.0.0.0","Windows","10.0","https://app.prolific.com/","en-US,en;q=0.9","614e6f4f00a9e94b123316d3","67949641171f97c04e14fb34","679c276b5daf3bd4e7e17047","","null","<img  src='G_9.jpg' height='90'> <img   src='G_3.jpg' height='90'> <img id='selected'  src='G_5.jpg' height='90'> <img id='selected' src='G_7.jpg' height='90'> <img src='G_1.jpg' height='90'>","null","Animation0",""
"","","","","","html-keyboard-response","25","110165","0.0-19.0","66","1","2025-01-31 01:29:25","af8d355d56820e421d246a7037deb6e6","99.33.29.117","Mozilla/5.0 (Windows NT 10.0; Win64; x64) AppleWebKit/537.36 (KHTML, like Gecko) Chrome/132.0.0.0 Safari/537.36","WebKit","Chrome","132.0.0.0","Windows","10.0","https://app.prolific.com/","en-US,en;q=0.9","614e6f4f00a9e94b123316d3","67949641171f97c04e14fb34","679c276b5daf3bd4e7e17047","","null","<img  src='G_9.jpg' height='90'> <img   src='G_3.jpg' height='90'> <img   src='G_5.jpg' height='90'> <img  src='G_7.jpg' height='90'> <img src='G_1.jpg' height='90'>","null","Animation0",""
"","","","","","html-keyboard-response","26","110676","0.0-20.0","66","1","2025-01-31 01:29:25","af8d355d56820e421d246a7037deb6e6","99.33.29.117","Mozilla/5.0 (Windows NT 10.0; Win64; x64) AppleWebKit/537.36 (KHTML, like Gecko) Chrome/132.0.0.0 Safari/537.36","WebKit","Chrome","132.0.0.0","Windows","10.0","https://app.prolific.com/","en-US,en;q=0.9","614e6f4f00a9e94b123316d3","67949641171f97c04e14fb34","679c276b5daf3bd4e7e17047","","null","<img  src='G_9.jpg' height='90'> <img   src='G_3.jpg' height='90'> <img   src='G_5.jpg' height='90'> <img id='selected'  src='G_7.jpg' height='90'> <img src='G_1.jpg' height='90'>","null","Animation0",""
"","","","","","html-keyboard-response","27","111189","0.0-21.0","66","1","2025-01-31 01:29:25","af8d355d56820e421d246a7037deb6e6","99.33.29.117","Mozilla/5.0 (Windows NT 10.0; Win64; x64) AppleWebKit/537.36 (KHTML, like Gecko) Chrome/132.0.0.0 Safari/537.36","WebKit","Chrome","132.0.0.0","Windows","10.0","https://app.prolific.com/","en-US,en;q=0.9","614e6f4f00a9e94b123316d3","67949641171f97c04e14fb34","679c276b5daf3bd4e7e17047","","null","<img  src='G_9.jpg' height='90'> <img   src='G_3.jpg' height='90'> <img   src='G_5.jpg' height='90'> <img id='selected'  src='G_7.jpg' height='90'> <img id='selected' src='G_1.jpg' height='90'>","null","Animation0",""
"","","","","","html-keyboard-response","28","111707","0.0-22.0","66","1","2025-01-31 01:29:25","af8d355d56820e421d246a7037deb6e6","99.33.29.117","Mozilla/5.0 (Windows NT 10.0; Win64; x64) AppleWebKit/537.36 (KHTML, like Gecko) Chrome/132.0.0.0 Safari/537.36","WebKit","Chrome","132.0.0.0","Windows","10.0","https://app.prolific.com/","en-US,en;q=0.9","614e6f4f00a9e94b123316d3","67949641171f97c04e14fb34","679c276b5daf3bd4e7e17047","","null","<img  src='G_9.jpg' height='90'> <img   src='G_3.jpg' height='90'> <img   src='G_5.jpg' height='90'> <img id='selected'  src='G_7.jpg' height='90'> <img id='selected' src='G_1.jpg' height='90'>","null","Animation0",""
"","","","","","html-keyboard-response","29","112013","0.0-23.0","66","1","2025-01-31 01:29:25","af8d355d56820e421d246a7037deb6e6","99.33.29.117","Mozilla/5.0 (Windows NT 10.0; Win64; x64) AppleWebKit/537.36 (KHTML, like Gecko) Chrome/132.0.0.0 Safari/537.36","WebKit","Chrome","132.0.0.0","Windows","10.0","https://app.prolific.com/","en-US,en;q=0.9","614e6f4f00a9e94b123316d3","67949641171f97c04e14fb34","679c276b5daf3bd4e7e17047","","null","<img  src='G_9.jpg' height='90'> <img   src='G_3.jpg' height='90'> <img   src='G_5.jpg' height='90'> <img   src='G_7.jpg' height='90'> <img  src='G_1.jpg' height='90'>","null","Animation0",""
"","","","","","html-keyboard-response","30","113666","0.0-24.0","66","1","2025-01-31 01:29:25","af8d355d56820e421d246a7037deb6e6","99.33.29.117","Mozilla/5.0 (Windows NT 10.0; Win64; x64) AppleWebKit/537.36 (KHTML, like Gecko) Chrome/132.0.0.0 Safari/537.36","WebKit","Chrome","132.0.0.0","Windows","10.0","https://app.prolific.com/","en-US,en;q=0.9","614e6f4f00a9e94b123316d3","67949641171f97c04e14fb34","679c276b5daf3bd4e7e17047","","1651","[""Did you notice any patterns? <br><br>Press Enter to watch that example again and follow the steps of Omgne Sort.""]","enter","",""
"","","","","","html-button-response","31","114076","0.0-25.0","66","1","2025-01-31 01:29:25","af8d355d56820e421d246a7037deb6e6","99.33.29.117","Mozilla/5.0 (Windows NT 10.0; Win64; x64) AppleWebKit/537.36 (KHTML, like Gecko) Chrome/132.0.0.0 Safari/537.36","WebKit","Chrome","132.0.0.0","Windows","10.0","https://app.prolific.com/","en-US,en;q=0.9","614e6f4f00a9e94b123316d3","67949641171f97c04e14fb34","679c276b5daf3bd4e7e17047","","null","<img id='selected' src='G_3.jpg' height='90'> <img src='G_9.jpg' height='90'> <img src='G_5.jpg' height='90'> <img src='G_7.jpg' height='90'> <img src='G_1.jpg' height='90'>","null","Learning example 0",""
"","","","","","html-button-response","32","114391","0.0-26.0","66","1","2025-01-31 01:29:25","af8d355d56820e421d246a7037deb6e6","99.33.29.117","Mozilla/5.0 (Windows NT 10.0; Win64; x64) AppleWebKit/537.36 (KHTML, like Gecko) Chrome/132.0.0.0 Safari/537.36","WebKit","Chrome","132.0.0.0","Windows","10.0","https://app.prolific.com/","en-US,en;q=0.9","614e6f4f00a9e94b123316d3","67949641171f97c04e14fb34","679c276b5daf3bd4e7e17047","","null","<img id='selected' src='G_3.jpg' height='90'> <img id='selected' src='G_9.jpg' height='90'> <img src='G_5.jpg' height='90'> <img src='G_7.jpg' height='90'> <img src='G_1.jpg' height='90'>","null","Learning example 0",""
"","","","","","html-button-response","33","114709","0.0-27.0","66","1","2025-01-31 01:29:25","af8d355d56820e421d246a7037deb6e6","99.33.29.117","Mozilla/5.0 (Windows NT 10.0; Win64; x64) AppleWebKit/537.36 (KHTML, like Gecko) Chrome/132.0.0.0 Safari/537.36","WebKit","Chrome","132.0.0.0","Windows","10.0","https://app.prolific.com/","en-US,en;q=0.9","614e6f4f00a9e94b123316d3","67949641171f97c04e14fb34","679c276b5daf3bd4e7e17047","","null","<img id='swapped' src='G_9.jpg' height='90'> <img id='swapped' src='G_3.jpg' height='90'> <img src='G_5.jpg' height='90'> <img src='G_7.jpg' height='90'> <img src='G_1.jpg' height='90'>","null","Learning example 0",""
"","","","","","html-button-response","34","125755","0.0-28.0-0.0-0.0","66","1","2025-01-31 01:29:25","af8d355d56820e421d246a7037deb6e6","99.33.29.117","Mozilla/5.0 (Windows NT 10.0; Win64; x64) AppleWebKit/537.36 (KHTML, like Gecko) Chrome/132.0.0.0 Safari/537.36","WebKit","Chrome","132.0.0.0","Windows","10.0","https://app.prolific.com/","en-US,en;q=0.9","614e6f4f00a9e94b123316d3","67949641171f97c04e14fb34","679c276b5daf3bd4e7e17047","","11038","<img id='swapped' src='G_9.jpg' height='90'> <img id='swapped' src='G_3.jpg' height='90'> <img src='G_5.jpg' height='90'> <img src='G_7.jpg' height='90'> <img src='G_1.jpg' height='90'>","0","Learning example 0",""
"","","","","","html-button-response","35","126737","0.0-28.1-0.1-0.1","66","1","2025-01-31 01:29:25","af8d355d56820e421d246a7037deb6e6","99.33.29.117","Mozilla/5.0 (Windows NT 10.0; Win64; x64) AppleWebKit/537.36 (KHTML, like Gecko) Chrome/132.0.0.0 Safari/537.36","WebKit","Chrome","132.0.0.0","Windows","10.0","https://app.prolific.com/","en-US,en;q=0.9","614e6f4f00a9e94b123316d3","67949641171f97c04e14fb34","679c276b5daf3bd4e7e17047","","974","<img id='swapped' src='G_9.jpg' height='90'> <img id='swapped' src='G_3.jpg' height='90'> <img src='G_5.jpg' height='90'> <img src='G_7.jpg' height='90'> <img src='G_1.jpg' height='90'>","1","Learning example 0",""
"","","","","","html-button-response","36","126951","0.0-29.0","66","1","2025-01-31 01:29:25","af8d355d56820e421d246a7037deb6e6","99.33.29.117","Mozilla/5.0 (Windows NT 10.0; Win64; x64) AppleWebKit/537.36 (KHTML, like Gecko) Chrome/132.0.0.0 Safari/537.36","WebKit","Chrome","132.0.0.0","Windows","10.0","https://app.prolific.com/","en-US,en;q=0.9","614e6f4f00a9e94b123316d3","67949641171f97c04e14fb34","679c276b5daf3bd4e7e17047","","null","<img  src='G_9.jpg' height='90'> <img  src='G_3.jpg' height='90'> <img src='G_5.jpg' height='90'> <img src='G_7.jpg' height='90'> <img src='G_1.jpg' height='90'>","null","Learning example 0",""
"","","","","","html-button-response","37","127362","0.0-30.0","66","1","2025-01-31 01:29:25","af8d355d56820e421d246a7037deb6e6","99.33.29.117","Mozilla/5.0 (Windows NT 10.0; Win64; x64) AppleWebKit/537.36 (KHTML, like Gecko) Chrome/132.0.0.0 Safari/537.36","WebKit","Chrome","132.0.0.0","Windows","10.0","https://app.prolific.com/","en-US,en;q=0.9","614e6f4f00a9e94b123316d3","67949641171f97c04e14fb34","679c276b5daf3bd4e7e17047","","null","<img  src='G_9.jpg' height='90'> <img id='selected'  src='G_3.jpg' height='90'> <img src='G_5.jpg' height='90'> <img src='G_7.jpg' height='90'> <img src='G_1.jpg' height='90'>","null","Learning example 0",""
"","","","","","html-button-response","38","127670","0.0-31.0","66","1","2025-01-31 01:29:25","af8d355d56820e421d246a7037deb6e6","99.33.29.117","Mozilla/5.0 (Windows NT 10.0; Win64; x64) AppleWebKit/537.36 (KHTML, like Gecko) Chrome/132.0.0.0 Safari/537.36","WebKit","Chrome","132.0.0.0","Windows","10.0","https://app.prolific.com/","en-US,en;q=0.9","614e6f4f00a9e94b123316d3","67949641171f97c04e14fb34","679c276b5daf3bd4e7e17047","","null","<img  src='G_9.jpg' height='90'> <img id='selected'  src='G_3.jpg' height='90'> <img id='selected' src='G_5.jpg' height='90'> <img src='G_7.jpg' height='90'> <img src='G_1.jpg' height='90'>","null","Learning example 0",""
"","","","","","html-button-response","39","127982","0.0-32.0","66","1","2025-01-31 01:29:25","af8d355d56820e421d246a7037deb6e6","99.33.29.117","Mozilla/5.0 (Windows NT 10.0; Win64; x64) AppleWebKit/537.36 (KHTML, like Gecko) Chrome/132.0.0.0 Safari/537.36","WebKit","Chrome","132.0.0.0","Windows","10.0","https://app.prolific.com/","en-US,en;q=0.9","614e6f4f00a9e94b123316d3","67949641171f97c04e14fb34","679c276b5daf3bd4e7e17047","","null","<img  src='G_9.jpg' height='90'> <img id='selected'  src='G_3.jpg' height='90'> <img id='selected' src='G_5.jpg' height='90'> <img src='G_7.jpg' height='90'> <img src='G_1.jpg' height='90'>","null","Learning example 0",""
"","","","","","html-button-response","40","130736","0.0-33.0-0.0-0.0","66","1","2025-01-31 01:29:25","af8d355d56820e421d246a7037deb6e6","99.33.29.117","Mozilla/5.0 (Windows NT 10.0; Win64; x64) AppleWebKit/537.36 (KHTML, like Gecko) Chrome/132.0.0.0 Safari/537.36","WebKit","Chrome","132.0.0.0","Windows","10.0","https://app.prolific.com/","en-US,en;q=0.9","614e6f4f00a9e94b123316d3","67949641171f97c04e14fb34","679c276b5daf3bd4e7e17047","","2747","<img  src='G_9.jpg' height='90'> <img id='selected'  src='G_3.jpg' height='90'> <img id='selected' src='G_5.jpg' height='90'> <img src='G_7.jpg' height='90'> <img src='G_1.jpg' height='90'>","2","Learning example 0",""
"","","","","","html-button-response","41","131400","0.0-33.1-0.1-0.1","66","1","2025-01-31 01:29:25","af8d355d56820e421d246a7037deb6e6","99.33.29.117","Mozilla/5.0 (Windows NT 10.0; Win64; x64) AppleWebKit/537.36 (KHTML, like Gecko) Chrome/132.0.0.0 Safari/537.36","WebKit","Chrome","132.0.0.0","Windows","10.0","https://app.prolific.com/","en-US,en;q=0.9","614e6f4f00a9e94b123316d3","67949641171f97c04e14fb34","679c276b5daf3bd4e7e17047","","661","<img  src='G_9.jpg' height='90'> <img id='selected'  src='G_3.jpg' height='90'> <img id='selected' src='G_5.jpg' height='90'> <img src='G_7.jpg' height='90'> <img src='G_1.jpg' height='90'>","1","Learning example 0",""
"","","","","","html-button-response","42","131613","0.0-34.0","66","1","2025-01-31 01:29:25","af8d355d56820e421d246a7037deb6e6","99.33.29.117","Mozilla/5.0 (Windows NT 10.0; Win64; x64) AppleWebKit/537.36 (KHTML, like Gecko) Chrome/132.0.0.0 Safari/537.36","WebKit","Chrome","132.0.0.0","Windows","10.0","https://app.prolific.com/","en-US,en;q=0.9","614e6f4f00a9e94b123316d3","67949641171f97c04e14fb34","679c276b5daf3bd4e7e17047","","null","<img  src='G_9.jpg' height='90'> <img   src='G_3.jpg' height='90'> <img  src='G_5.jpg' height='90'> <img src='G_7.jpg' height='90'> <img src='G_1.jpg' height='90'>","null","Learning example 0",""
"","","","","","html-button-response","43","132020","0.0-35.0","66","1","2025-01-31 01:29:25","af8d355d56820e421d246a7037deb6e6","99.33.29.117","Mozilla/5.0 (Windows NT 10.0; Win64; x64) AppleWebKit/537.36 (KHTML, like Gecko) Chrome/132.0.0.0 Safari/537.36","WebKit","Chrome","132.0.0.0","Windows","10.0","https://app.prolific.com/","en-US,en;q=0.9","614e6f4f00a9e94b123316d3","67949641171f97c04e14fb34","679c276b5daf3bd4e7e17047","","null","<img  src='G_9.jpg' height='90'> <img   src='G_3.jpg' height='90'> <img id='selected'  src='G_5.jpg' height='90'> <img src='G_7.jpg' height='90'> <img src='G_1.jpg' height='90'>","null","Learning example 0",""
"","","","","","html-button-response","44","132326","0.0-36.0","66","1","2025-01-31 01:29:25","af8d355d56820e421d246a7037deb6e6","99.33.29.117","Mozilla/5.0 (Windows NT 10.0; Win64; x64) AppleWebKit/537.36 (KHTML, like Gecko) Chrome/132.0.0.0 Safari/537.36","WebKit","Chrome","132.0.0.0","Windows","10.0","https://app.prolific.com/","en-US,en;q=0.9","614e6f4f00a9e94b123316d3","67949641171f97c04e14fb34","679c276b5daf3bd4e7e17047","","null","<img  src='G_9.jpg' height='90'> <img   src='G_3.jpg' height='90'> <img id='selected'  src='G_5.jpg' height='90'> <img id='selected' src='G_7.jpg' height='90'> <img src='G_1.jpg' height='90'>","null","Learning example 0",""
"","","","","","html-button-response","45","132643","0.0-37.0","66","1","2025-01-31 01:29:25","af8d355d56820e421d246a7037deb6e6","99.33.29.117","Mozilla/5.0 (Windows NT 10.0; Win64; x64) AppleWebKit/537.36 (KHTML, like Gecko) Chrome/132.0.0.0 Safari/537.36","WebKit","Chrome","132.0.0.0","Windows","10.0","https://app.prolific.com/","en-US,en;q=0.9","614e6f4f00a9e94b123316d3","67949641171f97c04e14fb34","679c276b5daf3bd4e7e17047","","null","<img  src='G_9.jpg' height='90'> <img   src='G_3.jpg' height='90'> <img id='selected'  src='G_5.jpg' height='90'> <img id='selected' src='G_7.jpg' height='90'> <img src='G_1.jpg' height='90'>","null","Learning example 0",""
"","","","","","html-button-response","46","133716","0.0-38.0-0.0-0.0","66","1","2025-01-31 01:29:25","af8d355d56820e421d246a7037deb6e6","99.33.29.117","Mozilla/5.0 (Windows NT 10.0; Win64; x64) AppleWebKit/537.36 (KHTML, like Gecko) Chrome/132.0.0.0 Safari/537.36","WebKit","Chrome","132.0.0.0","Windows","10.0","https://app.prolific.com/","en-US,en;q=0.9","614e6f4f00a9e94b123316d3","67949641171f97c04e14fb34","679c276b5daf3bd4e7e17047","","1066","<img  src='G_9.jpg' height='90'> <img   src='G_3.jpg' height='90'> <img id='selected'  src='G_5.jpg' height='90'> <img id='selected' src='G_7.jpg' height='90'> <img src='G_1.jpg' height='90'>","3","Learning example 0",""
"","","","","","html-button-response","47","134362","0.0-38.1-0.1-0.1","66","1","2025-01-31 01:29:25","af8d355d56820e421d246a7037deb6e6","99.33.29.117","Mozilla/5.0 (Windows NT 10.0; Win64; x64) AppleWebKit/537.36 (KHTML, like Gecko) Chrome/132.0.0.0 Safari/537.36","WebKit","Chrome","132.0.0.0","Windows","10.0","https://app.prolific.com/","en-US,en;q=0.9","614e6f4f00a9e94b123316d3","67949641171f97c04e14fb34","679c276b5daf3bd4e7e17047","","639","<img  src='G_9.jpg' height='90'> <img   src='G_3.jpg' height='90'> <img id='selected'  src='G_5.jpg' height='90'> <img id='selected' src='G_7.jpg' height='90'> <img src='G_1.jpg' height='90'>","2","Learning example 0",""
"","","","","","html-button-response","48","134576","0.0-39.0","66","1","2025-01-31 01:29:25","af8d355d56820e421d246a7037deb6e6","99.33.29.117","Mozilla/5.0 (Windows NT 10.0; Win64; x64) AppleWebKit/537.36 (KHTML, like Gecko) Chrome/132.0.0.0 Safari/537.36","WebKit","Chrome","132.0.0.0","Windows","10.0","https://app.prolific.com/","en-US,en;q=0.9","614e6f4f00a9e94b123316d3","67949641171f97c04e14fb34","679c276b5daf3bd4e7e17047","","null","<img  src='G_9.jpg' height='90'> <img   src='G_3.jpg' height='90'> <img   src='G_5.jpg' height='90'> <img  src='G_7.jpg' height='90'> <img src='G_1.jpg' height='90'>","null","Learning example 0",""
"","","","","","html-button-response","49","134985","0.0-40.0","66","1","2025-01-31 01:29:25","af8d355d56820e421d246a7037deb6e6","99.33.29.117","Mozilla/5.0 (Windows NT 10.0; Win64; x64) AppleWebKit/537.36 (KHTML, like Gecko) Chrome/132.0.0.0 Safari/537.36","WebKit","Chrome","132.0.0.0","Windows","10.0","https://app.prolific.com/","en-US,en;q=0.9","614e6f4f00a9e94b123316d3","67949641171f97c04e14fb34","679c276b5daf3bd4e7e17047","","null","<img  src='G_9.jpg' height='90'> <img   src='G_3.jpg' height='90'> <img   src='G_5.jpg' height='90'> <img id='selected'  src='G_7.jpg' height='90'> <img src='G_1.jpg' height='90'>","null","Learning example 0",""
"","","","","","html-button-response","50","135292","0.0-41.0","66","1","2025-01-31 01:29:25","af8d355d56820e421d246a7037deb6e6","99.33.29.117","Mozilla/5.0 (Windows NT 10.0; Win64; x64) AppleWebKit/537.36 (KHTML, like Gecko) Chrome/132.0.0.0 Safari/537.36","WebKit","Chrome","132.0.0.0","Windows","10.0","https://app.prolific.com/","en-US,en;q=0.9","614e6f4f00a9e94b123316d3","67949641171f97c04e14fb34","679c276b5daf3bd4e7e17047","","null","<img  src='G_9.jpg' height='90'> <img   src='G_3.jpg' height='90'> <img   src='G_5.jpg' height='90'> <img id='selected'  src='G_7.jpg' height='90'> <img id='selected' src='G_1.jpg' height='90'>","null","Learning example 0",""
"","","","","","html-button-response","51","135608","0.0-42.0","66","1","2025-01-31 01:29:25","af8d355d56820e421d246a7037deb6e6","99.33.29.117","Mozilla/5.0 (Windows NT 10.0; Win64; x64) AppleWebKit/537.36 (KHTML, like Gecko) Chrome/132.0.0.0 Safari/537.36","WebKit","Chrome","132.0.0.0","Windows","10.0","https://app.prolific.com/","en-US,en;q=0.9","614e6f4f00a9e94b123316d3","67949641171f97c04e14fb34","679c276b5daf3bd4e7e17047","","null","<img  src='G_9.jpg' height='90'> <img   src='G_3.jpg' height='90'> <img   src='G_5.jpg' height='90'> <img id='selected'  src='G_7.jpg' height='90'> <img id='selected' src='G_1.jpg' height='90'>","null","Learning example 0",""
"","","","","","html-button-response","52","135887","0.0-43.0-0.0-0.0","66","1","2025-01-31 01:29:25","af8d355d56820e421d246a7037deb6e6","99.33.29.117","Mozilla/5.0 (Windows NT 10.0; Win64; x64) AppleWebKit/537.36 (KHTML, like Gecko) Chrome/132.0.0.0 Safari/537.36","WebKit","Chrome","132.0.0.0","Windows","10.0","https://app.prolific.com/","en-US,en;q=0.9","614e6f4f00a9e94b123316d3","67949641171f97c04e14fb34","679c276b5daf3bd4e7e17047","","273","<img  src='G_9.jpg' height='90'> <img   src='G_3.jpg' height='90'> <img   src='G_5.jpg' height='90'> <img id='selected'  src='G_7.jpg' height='90'> <img id='selected' src='G_1.jpg' height='90'>","4","Learning example 0",""
"","","","","","html-button-response","53","136562","0.0-43.1-0.1-0.1","66","1","2025-01-31 01:29:25","af8d355d56820e421d246a7037deb6e6","99.33.29.117","Mozilla/5.0 (Windows NT 10.0; Win64; x64) AppleWebKit/537.36 (KHTML, like Gecko) Chrome/132.0.0.0 Safari/537.36","WebKit","Chrome","132.0.0.0","Windows","10.0","https://app.prolific.com/","en-US,en;q=0.9","614e6f4f00a9e94b123316d3","67949641171f97c04e14fb34","679c276b5daf3bd4e7e17047","","671","<img  src='G_9.jpg' height='90'> <img   src='G_3.jpg' height='90'> <img   src='G_5.jpg' height='90'> <img id='selected'  src='G_7.jpg' height='90'> <img id='selected' src='G_1.jpg' height='90'>","3","Learning example 0",""
"","","","","","html-button-response","54","136777","0.0-44.0","66","1","2025-01-31 01:29:25","af8d355d56820e421d246a7037deb6e6","99.33.29.117","Mozilla/5.0 (Windows NT 10.0; Win64; x64) AppleWebKit/537.36 (KHTML, like Gecko) Chrome/132.0.0.0 Safari/537.36","WebKit","Chrome","132.0.0.0","Windows","10.0","https://app.prolific.com/","en-US,en;q=0.9","614e6f4f00a9e94b123316d3","67949641171f97c04e14fb34","679c276b5daf3bd4e7e17047","","null","<img  src='G_9.jpg' height='90'> <img   src='G_3.jpg' height='90'> <img   src='G_5.jpg' height='90'> <img   src='G_7.jpg' height='90'> <img  src='G_1.jpg' height='90'>","null","Learning example 0",""
"","","","","","html-keyboard-response","55","141064","0.0-45.0","66","1","2025-01-31 01:29:25","af8d355d56820e421d246a7037deb6e6","99.33.29.117","Mozilla/5.0 (Windows NT 10.0; Win64; x64) AppleWebKit/537.36 (KHTML, like Gecko) Chrome/132.0.0.0 Safari/537.36","WebKit","Chrome","132.0.0.0","Windows","10.0","https://app.prolific.com/","en-US,en;q=0.9","614e6f4f00a9e94b123316d3","67949641171f97c04e14fb34","679c276b5daf3bd4e7e17047","","4282","[""Final order was 1,2,3,4,5. The initial order was 2,1,3,4,5.<br>It took 1 swaps to sort it correctly with Omgne Sort. <br><br>Press Enter to continue.""]","enter","",""
"","","","","","html-keyboard-response","56","143152","0.0-46.0","66","1","2025-01-31 01:29:25","af8d355d56820e421d246a7037deb6e6","99.33.29.117","Mozilla/5.0 (Windows NT 10.0; Win64; x64) AppleWebKit/537.36 (KHTML, like Gecko) Chrome/132.0.0.0 Safari/537.36","WebKit","Chrome","132.0.0.0","Windows","10.0","https://app.prolific.com/","en-US,en;q=0.9","614e6f4f00a9e94b123316d3","67949641171f97c04e14fb34","679c276b5daf3bd4e7e17047","","2087","[""Example 2<br><br>You will watch Omnge Sort in action. Try to identify any patterns in the comparisons made by this method. <br><br>Press Enter to continue.""]","enter","",""
"","","","","","html-keyboard-response","57","143660","0.0-47.0","66","1","2025-01-31 01:29:25","af8d355d56820e421d246a7037deb6e6","99.33.29.117","Mozilla/5.0 (Windows NT 10.0; Win64; x64) AppleWebKit/537.36 (KHTML, like Gecko) Chrome/132.0.0.0 Safari/537.36","WebKit","Chrome","132.0.0.0","Windows","10.0","https://app.prolific.com/","en-US,en;q=0.9","614e6f4f00a9e94b123316d3","67949641171f97c04e14fb34","679c276b5daf3bd4e7e17047","","null","<img id='selected' src='G_8.jpg' height='90'> <img src='G_2.jpg' height='90'> <img src='G_6.jpg' height='90'> <img src='G_4.jpg' height='90'> <img src='G_1.jpg' height='90'> <img src='G_3.jpg' height='90'> <img src='G_7.jpg' height='90'> <img src='G_5.jpg' height='90'>","null","Animation1",""
"","","","","","html-keyboard-response","58","144179","0.0-48.0","66","1","2025-01-31 01:29:25","af8d355d56820e421d246a7037deb6e6","99.33.29.117","Mozilla/5.0 (Windows NT 10.0; Win64; x64) AppleWebKit/537.36 (KHTML, like Gecko) Chrome/132.0.0.0 Safari/537.36","WebKit","Chrome","132.0.0.0","Windows","10.0","https://app.prolific.com/","en-US,en;q=0.9","614e6f4f00a9e94b123316d3","67949641171f97c04e14fb34","679c276b5daf3bd4e7e17047","","null","<img id='selected' src='G_8.jpg' height='90'> <img id='selected' src='G_2.jpg' height='90'> <img src='G_6.jpg' height='90'> <img src='G_4.jpg' height='90'> <img src='G_1.jpg' height='90'> <img src='G_3.jpg' height='90'> <img src='G_7.jpg' height='90'> <img src='G_5.jpg' height='90'>","null","Animation1",""
"","","","","","html-keyboard-response","59","144689","0.0-49.0","66","1","2025-01-31 01:29:25","af8d355d56820e421d246a7037deb6e6","99.33.29.117","Mozilla/5.0 (Windows NT 10.0; Win64; x64) AppleWebKit/537.36 (KHTML, like Gecko) Chrome/132.0.0.0 Safari/537.36","WebKit","Chrome","132.0.0.0","Windows","10.0","https://app.prolific.com/","en-US,en;q=0.9","614e6f4f00a9e94b123316d3","67949641171f97c04e14fb34","679c276b5daf3bd4e7e17047","","null","<img id='selected' src='G_8.jpg' height='90'> <img id='selected' src='G_2.jpg' height='90'> <img src='G_6.jpg' height='90'> <img src='G_4.jpg' height='90'> <img src='G_1.jpg' height='90'> <img src='G_3.jpg' height='90'> <img src='G_7.jpg' height='90'> <img src='G_5.jpg' height='90'>","null","Animation1",""
"","","","","","html-keyboard-response","60","144996","0.0-50.0","66","1","2025-01-31 01:29:25","af8d355d56820e421d246a7037deb6e6","99.33.29.117","Mozilla/5.0 (Windows NT 10.0; Win64; x64) AppleWebKit/537.36 (KHTML, like Gecko) Chrome/132.0.0.0 Safari/537.36","WebKit","Chrome","132.0.0.0","Windows","10.0","https://app.prolific.com/","en-US,en;q=0.9","614e6f4f00a9e94b123316d3","67949641171f97c04e14fb34","679c276b5daf3bd4e7e17047","","null","<img  src='G_8.jpg' height='90'> <img  src='G_2.jpg' height='90'> <img src='G_6.jpg' height='90'> <img src='G_4.jpg' height='90'> <img src='G_1.jpg' height='90'> <img src='G_3.jpg' height='90'> <img src='G_7.jpg' height='90'> <img src='G_5.jpg' height='90'>","null","Animation1",""
"","","","","","html-keyboard-response","61","145510","0.0-51.0","66","1","2025-01-31 01:29:25","af8d355d56820e421d246a7037deb6e6","99.33.29.117","Mozilla/5.0 (Windows NT 10.0; Win64; x64) AppleWebKit/537.36 (KHTML, like Gecko) Chrome/132.0.0.0 Safari/537.36","WebKit","Chrome","132.0.0.0","Windows","10.0","https://app.prolific.com/","en-US,en;q=0.9","614e6f4f00a9e94b123316d3","67949641171f97c04e14fb34","679c276b5daf3bd4e7e17047","","null","<img  src='G_8.jpg' height='90'> <img id='selected'  src='G_2.jpg' height='90'> <img src='G_6.jpg' height='90'> <img src='G_4.jpg' height='90'> <img src='G_1.jpg' height='90'> <img src='G_3.jpg' height='90'> <img src='G_7.jpg' height='90'> <img src='G_5.jpg' height='90'>","null","Animation1",""
"","","","","","html-keyboard-response","62","146026","0.0-52.0","66","1","2025-01-31 01:29:25","af8d355d56820e421d246a7037deb6e6","99.33.29.117","Mozilla/5.0 (Windows NT 10.0; Win64; x64) AppleWebKit/537.36 (KHTML, like Gecko) Chrome/132.0.0.0 Safari/537.36","WebKit","Chrome","132.0.0.0","Windows","10.0","https://app.prolific.com/","en-US,en;q=0.9","614e6f4f00a9e94b123316d3","67949641171f97c04e14fb34","679c276b5daf3bd4e7e17047","","null","<img  src='G_8.jpg' height='90'> <img id='selected'  src='G_2.jpg' height='90'> <img id='selected' src='G_6.jpg' height='90'> <img src='G_4.jpg' height='90'> <img src='G_1.jpg' height='90'> <img src='G_3.jpg' height='90'> <img src='G_7.jpg' height='90'> <img src='G_5.jpg' height='90'>","null","Animation1",""
"","","","","","html-keyboard-response","63","146539","0.0-53.0","66","1","2025-01-31 01:29:25","af8d355d56820e421d246a7037deb6e6","99.33.29.117","Mozilla/5.0 (Windows NT 10.0; Win64; x64) AppleWebKit/537.36 (KHTML, like Gecko) Chrome/132.0.0.0 Safari/537.36","WebKit","Chrome","132.0.0.0","Windows","10.0","https://app.prolific.com/","en-US,en;q=0.9","614e6f4f00a9e94b123316d3","67949641171f97c04e14fb34","679c276b5daf3bd4e7e17047","","null","<img  src='G_8.jpg' height='90'> <img id='swapped' src='G_6.jpg' height='90'> <img id='swapped'  src='G_2.jpg' height='90'> <img src='G_4.jpg' height='90'> <img src='G_1.jpg' height='90'> <img src='G_3.jpg' height='90'> <img src='G_7.jpg' height='90'> <img src='G_5.jpg' height='90'>","null","Animation1",""
"","","","","","html-keyboard-response","64","146846","0.0-54.0","66","1","2025-01-31 01:29:25","af8d355d56820e421d246a7037deb6e6","99.33.29.117","Mozilla/5.0 (Windows NT 10.0; Win64; x64) AppleWebKit/537.36 (KHTML, like Gecko) Chrome/132.0.0.0 Safari/537.36","WebKit","Chrome","132.0.0.0","Windows","10.0","https://app.prolific.com/","en-US,en;q=0.9","614e6f4f00a9e94b123316d3","67949641171f97c04e14fb34","679c276b5daf3bd4e7e17047","","null","<img  src='G_8.jpg' height='90'> <img  src='G_6.jpg' height='90'> <img   src='G_2.jpg' height='90'> <img src='G_4.jpg' height='90'> <img src='G_1.jpg' height='90'> <img src='G_3.jpg' height='90'> <img src='G_7.jpg' height='90'> <img src='G_5.jpg' height='90'>","null","Animation1",""
"","","","","","html-keyboard-response","65","147358","0.0-55.0","66","1","2025-01-31 01:29:25","af8d355d56820e421d246a7037deb6e6","99.33.29.117","Mozilla/5.0 (Windows NT 10.0; Win64; x64) AppleWebKit/537.36 (KHTML, like Gecko) Chrome/132.0.0.0 Safari/537.36","WebKit","Chrome","132.0.0.0","Windows","10.0","https://app.prolific.com/","en-US,en;q=0.9","614e6f4f00a9e94b123316d3","67949641171f97c04e14fb34","679c276b5daf3bd4e7e17047","","null","<img id='selected'  src='G_8.jpg' height='90'> <img  src='G_6.jpg' height='90'> <img   src='G_2.jpg' height='90'> <img src='G_4.jpg' height='90'> <img src='G_1.jpg' height='90'> <img src='G_3.jpg' height='90'> <img src='G_7.jpg' height='90'> <img src='G_5.jpg' height='90'>","null","Animation1",""
"","","","","","html-keyboard-response","66","147874","0.0-56.0","66","1","2025-01-31 01:29:25","af8d355d56820e421d246a7037deb6e6","99.33.29.117","Mozilla/5.0 (Windows NT 10.0; Win64; x64) AppleWebKit/537.36 (KHTML, like Gecko) Chrome/132.0.0.0 Safari/537.36","WebKit","Chrome","132.0.0.0","Windows","10.0","https://app.prolific.com/","en-US,en;q=0.9","614e6f4f00a9e94b123316d3","67949641171f97c04e14fb34","679c276b5daf3bd4e7e17047","","null","<img id='selected'  src='G_8.jpg' height='90'> <img id='selected'  src='G_6.jpg' height='90'> <img   src='G_2.jpg' height='90'> <img src='G_4.jpg' height='90'> <img src='G_1.jpg' height='90'> <img src='G_3.jpg' height='90'> <img src='G_7.jpg' height='90'> <img src='G_5.jpg' height='90'>","null","Animation1",""
"","","","","","html-keyboard-response","67","148388","0.0-57.0","66","1","2025-01-31 01:29:25","af8d355d56820e421d246a7037deb6e6","99.33.29.117","Mozilla/5.0 (Windows NT 10.0; Win64; x64) AppleWebKit/537.36 (KHTML, like Gecko) Chrome/132.0.0.0 Safari/537.36","WebKit","Chrome","132.0.0.0","Windows","10.0","https://app.prolific.com/","en-US,en;q=0.9","614e6f4f00a9e94b123316d3","67949641171f97c04e14fb34","679c276b5daf3bd4e7e17047","","null","<img id='swapped'  src='G_6.jpg' height='90'> <img id='swapped'  src='G_8.jpg' height='90'> <img   src='G_2.jpg' height='90'> <img src='G_4.jpg' height='90'> <img src='G_1.jpg' height='90'> <img src='G_3.jpg' height='90'> <img src='G_7.jpg' height='90'> <img src='G_5.jpg' height='90'>","null","Animation1",""
"","","","","","html-keyboard-response","68","148710","0.0-58.0","66","1","2025-01-31 01:29:25","af8d355d56820e421d246a7037deb6e6","99.33.29.117","Mozilla/5.0 (Windows NT 10.0; Win64; x64) AppleWebKit/537.36 (KHTML, like Gecko) Chrome/132.0.0.0 Safari/537.36","WebKit","Chrome","132.0.0.0","Windows","10.0","https://app.prolific.com/","en-US,en;q=0.9","614e6f4f00a9e94b123316d3","67949641171f97c04e14fb34","679c276b5daf3bd4e7e17047","","null","<img   src='G_6.jpg' height='90'> <img   src='G_8.jpg' height='90'> <img   src='G_2.jpg' height='90'> <img src='G_4.jpg' height='90'> <img src='G_1.jpg' height='90'> <img src='G_3.jpg' height='90'> <img src='G_7.jpg' height='90'> <img src='G_5.jpg' height='90'>","null","Animation1",""
"","","","","","html-keyboard-response","69","149222","0.0-59.0","66","1","2025-01-31 01:29:25","af8d355d56820e421d246a7037deb6e6","99.33.29.117","Mozilla/5.0 (Windows NT 10.0; Win64; x64) AppleWebKit/537.36 (KHTML, like Gecko) Chrome/132.0.0.0 Safari/537.36","WebKit","Chrome","132.0.0.0","Windows","10.0","https://app.prolific.com/","en-US,en;q=0.9","614e6f4f00a9e94b123316d3","67949641171f97c04e14fb34","679c276b5daf3bd4e7e17047","","null","<img   src='G_6.jpg' height='90'> <img   src='G_8.jpg' height='90'> <img id='selected'   src='G_2.jpg' height='90'> <img src='G_4.jpg' height='90'> <img src='G_1.jpg' height='90'> <img src='G_3.jpg' height='90'> <img src='G_7.jpg' height='90'> <img src='G_5.jpg' height='90'>","null","Animation1",""
"","","","","","html-keyboard-response","70","149736","0.0-60.0","66","1","2025-01-31 01:29:25","af8d355d56820e421d246a7037deb6e6","99.33.29.117","Mozilla/5.0 (Windows NT 10.0; Win64; x64) AppleWebKit/537.36 (KHTML, like Gecko) Chrome/132.0.0.0 Safari/537.36","WebKit","Chrome","132.0.0.0","Windows","10.0","https://app.prolific.com/","en-US,en;q=0.9","614e6f4f00a9e94b123316d3","67949641171f97c04e14fb34","679c276b5daf3bd4e7e17047","","null","<img   src='G_6.jpg' height='90'> <img   src='G_8.jpg' height='90'> <img id='selected'   src='G_2.jpg' height='90'> <img id='selected' src='G_4.jpg' height='90'> <img src='G_1.jpg' height='90'> <img src='G_3.jpg' height='90'> <img src='G_7.jpg' height='90'> <img src='G_5.jpg' height='90'>","null","Animation1",""
"","","","","","html-keyboard-response","71","150253","0.0-61.0","66","1","2025-01-31 01:29:25","af8d355d56820e421d246a7037deb6e6","99.33.29.117","Mozilla/5.0 (Windows NT 10.0; Win64; x64) AppleWebKit/537.36 (KHTML, like Gecko) Chrome/132.0.0.0 Safari/537.36","WebKit","Chrome","132.0.0.0","Windows","10.0","https://app.prolific.com/","en-US,en;q=0.9","614e6f4f00a9e94b123316d3","67949641171f97c04e14fb34","679c276b5daf3bd4e7e17047","","null","<img   src='G_6.jpg' height='90'> <img   src='G_8.jpg' height='90'> <img id='swapped' src='G_4.jpg' height='90'> <img id='swapped'   src='G_2.jpg' height='90'> <img src='G_1.jpg' height='90'> <img src='G_3.jpg' height='90'> <img src='G_7.jpg' height='90'> <img src='G_5.jpg' height='90'>","null","Animation1",""
"","","","","","html-keyboard-response","72","150574","0.0-62.0","66","1","2025-01-31 01:29:25","af8d355d56820e421d246a7037deb6e6","99.33.29.117","Mozilla/5.0 (Windows NT 10.0; Win64; x64) AppleWebKit/537.36 (KHTML, like Gecko) Chrome/132.0.0.0 Safari/537.36","WebKit","Chrome","132.0.0.0","Windows","10.0","https://app.prolific.com/","en-US,en;q=0.9","614e6f4f00a9e94b123316d3","67949641171f97c04e14fb34","679c276b5daf3bd4e7e17047","","null","<img   src='G_6.jpg' height='90'> <img   src='G_8.jpg' height='90'> <img  src='G_4.jpg' height='90'> <img    src='G_2.jpg' height='90'> <img src='G_1.jpg' height='90'> <img src='G_3.jpg' height='90'> <img src='G_7.jpg' height='90'> <img src='G_5.jpg' height='90'>","null","Animation1",""
"","","","","","html-keyboard-response","73","151087","0.0-63.0","66","1","2025-01-31 01:29:25","af8d355d56820e421d246a7037deb6e6","99.33.29.117","Mozilla/5.0 (Windows NT 10.0; Win64; x64) AppleWebKit/537.36 (KHTML, like Gecko) Chrome/132.0.0.0 Safari/537.36","WebKit","Chrome","132.0.0.0","Windows","10.0","https://app.prolific.com/","en-US,en;q=0.9","614e6f4f00a9e94b123316d3","67949641171f97c04e14fb34","679c276b5daf3bd4e7e17047","","null","<img   src='G_6.jpg' height='90'> <img id='selected'   src='G_8.jpg' height='90'> <img  src='G_4.jpg' height='90'> <img    src='G_2.jpg' height='90'> <img src='G_1.jpg' height='90'> <img src='G_3.jpg' height='90'> <img src='G_7.jpg' height='90'> <img src='G_5.jpg' height='90'>","null","Animation1",""
"","","","","","html-keyboard-response","74","151600","0.0-64.0","66","1","2025-01-31 01:29:25","af8d355d56820e421d246a7037deb6e6","99.33.29.117","Mozilla/5.0 (Windows NT 10.0; Win64; x64) AppleWebKit/537.36 (KHTML, like Gecko) Chrome/132.0.0.0 Safari/537.36","WebKit","Chrome","132.0.0.0","Windows","10.0","https://app.prolific.com/","en-US,en;q=0.9","614e6f4f00a9e94b123316d3","67949641171f97c04e14fb34","679c276b5daf3bd4e7e17047","","null","<img   src='G_6.jpg' height='90'> <img id='selected'   src='G_8.jpg' height='90'> <img id='selected'  src='G_4.jpg' height='90'> <img    src='G_2.jpg' height='90'> <img src='G_1.jpg' height='90'> <img src='G_3.jpg' height='90'> <img src='G_7.jpg' height='90'> <img src='G_5.jpg' height='90'>","null","Animation1",""
"","","","","","html-keyboard-response","75","152118","0.0-65.0","66","1","2025-01-31 01:29:25","af8d355d56820e421d246a7037deb6e6","99.33.29.117","Mozilla/5.0 (Windows NT 10.0; Win64; x64) AppleWebKit/537.36 (KHTML, like Gecko) Chrome/132.0.0.0 Safari/537.36","WebKit","Chrome","132.0.0.0","Windows","10.0","https://app.prolific.com/","en-US,en;q=0.9","614e6f4f00a9e94b123316d3","67949641171f97c04e14fb34","679c276b5daf3bd4e7e17047","","null","<img   src='G_6.jpg' height='90'> <img id='swapped'  src='G_4.jpg' height='90'> <img id='swapped'   src='G_8.jpg' height='90'> <img    src='G_2.jpg' height='90'> <img src='G_1.jpg' height='90'> <img src='G_3.jpg' height='90'> <img src='G_7.jpg' height='90'> <img src='G_5.jpg' height='90'>","null","Animation1",""
"","","","","","html-keyboard-response","76","152439","0.0-66.0","66","1","2025-01-31 01:29:25","af8d355d56820e421d246a7037deb6e6","99.33.29.117","Mozilla/5.0 (Windows NT 10.0; Win64; x64) AppleWebKit/537.36 (KHTML, like Gecko) Chrome/132.0.0.0 Safari/537.36","WebKit","Chrome","132.0.0.0","Windows","10.0","https://app.prolific.com/","en-US,en;q=0.9","614e6f4f00a9e94b123316d3","67949641171f97c04e14fb34","679c276b5daf3bd4e7e17047","","null","<img   src='G_6.jpg' height='90'> <img   src='G_4.jpg' height='90'> <img    src='G_8.jpg' height='90'> <img    src='G_2.jpg' height='90'> <img src='G_1.jpg' height='90'> <img src='G_3.jpg' height='90'> <img src='G_7.jpg' height='90'> <img src='G_5.jpg' height='90'>","null","Animation1",""
"","","","","","html-keyboard-response","77","152952","0.0-67.0","66","1","2025-01-31 01:29:25","af8d355d56820e421d246a7037deb6e6","99.33.29.117","Mozilla/5.0 (Windows NT 10.0; Win64; x64) AppleWebKit/537.36 (KHTML, like Gecko) Chrome/132.0.0.0 Safari/537.36","WebKit","Chrome","132.0.0.0","Windows","10.0","https://app.prolific.com/","en-US,en;q=0.9","614e6f4f00a9e94b123316d3","67949641171f97c04e14fb34","679c276b5daf3bd4e7e17047","","null","<img id='selected'   src='G_6.jpg' height='90'> <img   src='G_4.jpg' height='90'> <img    src='G_8.jpg' height='90'> <img    src='G_2.jpg' height='90'> <img src='G_1.jpg' height='90'> <img src='G_3.jpg' height='90'> <img src='G_7.jpg' height='90'> <img src='G_5.jpg' height='90'>","null","Animation1",""
"","","","","","html-keyboard-response","78","153489","0.0-68.0","66","1","2025-01-31 01:29:25","af8d355d56820e421d246a7037deb6e6","99.33.29.117","Mozilla/5.0 (Windows NT 10.0; Win64; x64) AppleWebKit/537.36 (KHTML, like Gecko) Chrome/132.0.0.0 Safari/537.36","WebKit","Chrome","132.0.0.0","Windows","10.0","https://app.prolific.com/","en-US,en;q=0.9","614e6f4f00a9e94b123316d3","67949641171f97c04e14fb34","679c276b5daf3bd4e7e17047","","null","<img id='selected'   src='G_6.jpg' height='90'> <img id='selected'   src='G_4.jpg' height='90'> <img    src='G_8.jpg' height='90'> <img    src='G_2.jpg' height='90'> <img src='G_1.jpg' height='90'> <img src='G_3.jpg' height='90'> <img src='G_7.jpg' height='90'> <img src='G_5.jpg' height='90'>","null","Animation1",""
"","","","","","html-keyboard-response","79","154000","0.0-69.0","66","1","2025-01-31 01:29:25","af8d355d56820e421d246a7037deb6e6","99.33.29.117","Mozilla/5.0 (Windows NT 10.0; Win64; x64) AppleWebKit/537.36 (KHTML, like Gecko) Chrome/132.0.0.0 Safari/537.36","WebKit","Chrome","132.0.0.0","Windows","10.0","https://app.prolific.com/","en-US,en;q=0.9","614e6f4f00a9e94b123316d3","67949641171f97c04e14fb34","679c276b5daf3bd4e7e17047","","null","<img id='swapped'   src='G_4.jpg' height='90'> <img id='swapped'   src='G_6.jpg' height='90'> <img    src='G_8.jpg' height='90'> <img    src='G_2.jpg' height='90'> <img src='G_1.jpg' height='90'> <img src='G_3.jpg' height='90'> <img src='G_7.jpg' height='90'> <img src='G_5.jpg' height='90'>","null","Animation1",""
"","","","","","html-keyboard-response","80","154321","0.0-70.0","66","1","2025-01-31 01:29:25","af8d355d56820e421d246a7037deb6e6","99.33.29.117","Mozilla/5.0 (Windows NT 10.0; Win64; x64) AppleWebKit/537.36 (KHTML, like Gecko) Chrome/132.0.0.0 Safari/537.36","WebKit","Chrome","132.0.0.0","Windows","10.0","https://app.prolific.com/","en-US,en;q=0.9","614e6f4f00a9e94b123316d3","67949641171f97c04e14fb34","679c276b5daf3bd4e7e17047","","null","<img    src='G_4.jpg' height='90'> <img    src='G_6.jpg' height='90'> <img    src='G_8.jpg' height='90'> <img    src='G_2.jpg' height='90'> <img src='G_1.jpg' height='90'> <img src='G_3.jpg' height='90'> <img src='G_7.jpg' height='90'> <img src='G_5.jpg' height='90'>","null","Animation1",""
"","","","","","html-keyboard-response","81","154833","0.0-71.0","66","1","2025-01-31 01:29:25","af8d355d56820e421d246a7037deb6e6","99.33.29.117","Mozilla/5.0 (Windows NT 10.0; Win64; x64) AppleWebKit/537.36 (KHTML, like Gecko) Chrome/132.0.0.0 Safari/537.36","WebKit","Chrome","132.0.0.0","Windows","10.0","https://app.prolific.com/","en-US,en;q=0.9","614e6f4f00a9e94b123316d3","67949641171f97c04e14fb34","679c276b5daf3bd4e7e17047","","null","<img    src='G_4.jpg' height='90'> <img    src='G_6.jpg' height='90'> <img    src='G_8.jpg' height='90'> <img id='selected'    src='G_2.jpg' height='90'> <img src='G_1.jpg' height='90'> <img src='G_3.jpg' height='90'> <img src='G_7.jpg' height='90'> <img src='G_5.jpg' height='90'>","null","Animation1",""
"","","","","","html-keyboard-response","82","155348","0.0-72.0","66","1","2025-01-31 01:29:25","af8d355d56820e421d246a7037deb6e6","99.33.29.117","Mozilla/5.0 (Windows NT 10.0; Win64; x64) AppleWebKit/537.36 (KHTML, like Gecko) Chrome/132.0.0.0 Safari/537.36","WebKit","Chrome","132.0.0.0","Windows","10.0","https://app.prolific.com/","en-US,en;q=0.9","614e6f4f00a9e94b123316d3","67949641171f97c04e14fb34","679c276b5daf3bd4e7e17047","","null","<img    src='G_4.jpg' height='90'> <img    src='G_6.jpg' height='90'> <img    src='G_8.jpg' height='90'> <img id='selected'    src='G_2.jpg' height='90'> <img id='selected' src='G_1.jpg' height='90'> <img src='G_3.jpg' height='90'> <img src='G_7.jpg' height='90'> <img src='G_5.jpg' height='90'>","null","Animation1",""
"","","","","","html-keyboard-response","83","155864","0.0-73.0","66","1","2025-01-31 01:29:25","af8d355d56820e421d246a7037deb6e6","99.33.29.117","Mozilla/5.0 (Windows NT 10.0; Win64; x64) AppleWebKit/537.36 (KHTML, like Gecko) Chrome/132.0.0.0 Safari/537.36","WebKit","Chrome","132.0.0.0","Windows","10.0","https://app.prolific.com/","en-US,en;q=0.9","614e6f4f00a9e94b123316d3","67949641171f97c04e14fb34","679c276b5daf3bd4e7e17047","","null","<img    src='G_4.jpg' height='90'> <img    src='G_6.jpg' height='90'> <img    src='G_8.jpg' height='90'> <img id='swapped' src='G_1.jpg' height='90'> <img id='swapped'    src='G_2.jpg' height='90'> <img src='G_3.jpg' height='90'> <img src='G_7.jpg' height='90'> <img src='G_5.jpg' height='90'>","null","Animation1",""
"","","","","","html-keyboard-response","84","156186","0.0-74.0","66","1","2025-01-31 01:29:25","af8d355d56820e421d246a7037deb6e6","99.33.29.117","Mozilla/5.0 (Windows NT 10.0; Win64; x64) AppleWebKit/537.36 (KHTML, like Gecko) Chrome/132.0.0.0 Safari/537.36","WebKit","Chrome","132.0.0.0","Windows","10.0","https://app.prolific.com/","en-US,en;q=0.9","614e6f4f00a9e94b123316d3","67949641171f97c04e14fb34","679c276b5daf3bd4e7e17047","","null","<img    src='G_4.jpg' height='90'> <img    src='G_6.jpg' height='90'> <img    src='G_8.jpg' height='90'> <img  src='G_1.jpg' height='90'> <img     src='G_2.jpg' height='90'> <img src='G_3.jpg' height='90'> <img src='G_7.jpg' height='90'> <img src='G_5.jpg' height='90'>","null","Animation1",""
"","","","","","html-keyboard-response","85","156695","0.0-75.0","66","1","2025-01-31 01:29:25","af8d355d56820e421d246a7037deb6e6","99.33.29.117","Mozilla/5.0 (Windows NT 10.0; Win64; x64) AppleWebKit/537.36 (KHTML, like Gecko) Chrome/132.0.0.0 Safari/537.36","WebKit","Chrome","132.0.0.0","Windows","10.0","https://app.prolific.com/","en-US,en;q=0.9","614e6f4f00a9e94b123316d3","67949641171f97c04e14fb34","679c276b5daf3bd4e7e17047","","null","<img    src='G_4.jpg' height='90'> <img    src='G_6.jpg' height='90'> <img id='selected'    src='G_8.jpg' height='90'> <img  src='G_1.jpg' height='90'> <img     src='G_2.jpg' height='90'> <img src='G_3.jpg' height='90'> <img src='G_7.jpg' height='90'> <img src='G_5.jpg' height='90'>","null","Animation1",""
"","","","","","html-keyboard-response","86","157208","0.0-76.0","66","1","2025-01-31 01:29:25","af8d355d56820e421d246a7037deb6e6","99.33.29.117","Mozilla/5.0 (Windows NT 10.0; Win64; x64) AppleWebKit/537.36 (KHTML, like Gecko) Chrome/132.0.0.0 Safari/537.36","WebKit","Chrome","132.0.0.0","Windows","10.0","https://app.prolific.com/","en-US,en;q=0.9","614e6f4f00a9e94b123316d3","67949641171f97c04e14fb34","679c276b5daf3bd4e7e17047","","null","<img    src='G_4.jpg' height='90'> <img    src='G_6.jpg' height='90'> <img id='selected'    src='G_8.jpg' height='90'> <img id='selected'  src='G_1.jpg' height='90'> <img     src='G_2.jpg' height='90'> <img src='G_3.jpg' height='90'> <img src='G_7.jpg' height='90'> <img src='G_5.jpg' height='90'>","null","Animation1",""
"","","","","","html-keyboard-response","87","157729","0.0-77.0","66","1","2025-01-31 01:29:25","af8d355d56820e421d246a7037deb6e6","99.33.29.117","Mozilla/5.0 (Windows NT 10.0; Win64; x64) AppleWebKit/537.36 (KHTML, like Gecko) Chrome/132.0.0.0 Safari/537.36","WebKit","Chrome","132.0.0.0","Windows","10.0","https://app.prolific.com/","en-US,en;q=0.9","614e6f4f00a9e94b123316d3","67949641171f97c04e14fb34","679c276b5daf3bd4e7e17047","","null","<img    src='G_4.jpg' height='90'> <img    src='G_6.jpg' height='90'> <img id='swapped'  src='G_1.jpg' height='90'> <img id='swapped'    src='G_8.jpg' height='90'> <img     src='G_2.jpg' height='90'> <img src='G_3.jpg' height='90'> <img src='G_7.jpg' height='90'> <img src='G_5.jpg' height='90'>","null","Animation1",""
"","","","","","html-keyboard-response","88","158050","0.0-78.0","66","1","2025-01-31 01:29:25","af8d355d56820e421d246a7037deb6e6","99.33.29.117","Mozilla/5.0 (Windows NT 10.0; Win64; x64) AppleWebKit/537.36 (KHTML, like Gecko) Chrome/132.0.0.0 Safari/537.36","WebKit","Chrome","132.0.0.0","Windows","10.0","https://app.prolific.com/","en-US,en;q=0.9","614e6f4f00a9e94b123316d3","67949641171f97c04e14fb34","679c276b5daf3bd4e7e17047","","null","<img    src='G_4.jpg' height='90'> <img    src='G_6.jpg' height='90'> <img   src='G_1.jpg' height='90'> <img     src='G_8.jpg' height='90'> <img     src='G_2.jpg' height='90'> <img src='G_3.jpg' height='90'> <img src='G_7.jpg' height='90'> <img src='G_5.jpg' height='90'>","null","Animation1",""
"","","","","","html-keyboard-response","89","158562","0.0-79.0","66","1","2025-01-31 01:29:25","af8d355d56820e421d246a7037deb6e6","99.33.29.117","Mozilla/5.0 (Windows NT 10.0; Win64; x64) AppleWebKit/537.36 (KHTML, like Gecko) Chrome/132.0.0.0 Safari/537.36","WebKit","Chrome","132.0.0.0","Windows","10.0","https://app.prolific.com/","en-US,en;q=0.9","614e6f4f00a9e94b123316d3","67949641171f97c04e14fb34","679c276b5daf3bd4e7e17047","","null","<img    src='G_4.jpg' height='90'> <img id='selected'    src='G_6.jpg' height='90'> <img   src='G_1.jpg' height='90'> <img     src='G_8.jpg' height='90'> <img     src='G_2.jpg' height='90'> <img src='G_3.jpg' height='90'> <img src='G_7.jpg' height='90'> <img src='G_5.jpg' height='90'>","null","Animation1",""
"","","","","","html-keyboard-response","90","159080","0.0-80.0","66","1","2025-01-31 01:29:25","af8d355d56820e421d246a7037deb6e6","99.33.29.117","Mozilla/5.0 (Windows NT 10.0; Win64; x64) AppleWebKit/537.36 (KHTML, like Gecko) Chrome/132.0.0.0 Safari/537.36","WebKit","Chrome","132.0.0.0","Windows","10.0","https://app.prolific.com/","en-US,en;q=0.9","614e6f4f00a9e94b123316d3","67949641171f97c04e14fb34","679c276b5daf3bd4e7e17047","","null","<img    src='G_4.jpg' height='90'> <img id='selected'    src='G_6.jpg' height='90'> <img id='selected'   src='G_1.jpg' height='90'> <img     src='G_8.jpg' height='90'> <img     src='G_2.jpg' height='90'> <img src='G_3.jpg' height='90'> <img src='G_7.jpg' height='90'> <img src='G_5.jpg' height='90'>","null","Animation1",""
"","","","","","html-keyboard-response","91","159594","0.0-81.0","66","1","2025-01-31 01:29:25","af8d355d56820e421d246a7037deb6e6","99.33.29.117","Mozilla/5.0 (Windows NT 10.0; Win64; x64) AppleWebKit/537.36 (KHTML, like Gecko) Chrome/132.0.0.0 Safari/537.36","WebKit","Chrome","132.0.0.0","Windows","10.0","https://app.prolific.com/","en-US,en;q=0.9","614e6f4f00a9e94b123316d3","67949641171f97c04e14fb34","679c276b5daf3bd4e7e17047","","null","<img    src='G_4.jpg' height='90'> <img id='swapped'   src='G_1.jpg' height='90'> <img id='swapped'    src='G_6.jpg' height='90'> <img     src='G_8.jpg' height='90'> <img     src='G_2.jpg' height='90'> <img src='G_3.jpg' height='90'> <img src='G_7.jpg' height='90'> <img src='G_5.jpg' height='90'>","null","Animation1",""
"","","","","","html-keyboard-response","92","159916","0.0-82.0","66","1","2025-01-31 01:29:25","af8d355d56820e421d246a7037deb6e6","99.33.29.117","Mozilla/5.0 (Windows NT 10.0; Win64; x64) AppleWebKit/537.36 (KHTML, like Gecko) Chrome/132.0.0.0 Safari/537.36","WebKit","Chrome","132.0.0.0","Windows","10.0","https://app.prolific.com/","en-US,en;q=0.9","614e6f4f00a9e94b123316d3","67949641171f97c04e14fb34","679c276b5daf3bd4e7e17047","","null","<img    src='G_4.jpg' height='90'> <img    src='G_1.jpg' height='90'> <img     src='G_6.jpg' height='90'> <img     src='G_8.jpg' height='90'> <img     src='G_2.jpg' height='90'> <img src='G_3.jpg' height='90'> <img src='G_7.jpg' height='90'> <img src='G_5.jpg' height='90'>","null","Animation1",""
"","","","","","html-keyboard-response","93","160428","0.0-83.0","66","1","2025-01-31 01:29:25","af8d355d56820e421d246a7037deb6e6","99.33.29.117","Mozilla/5.0 (Windows NT 10.0; Win64; x64) AppleWebKit/537.36 (KHTML, like Gecko) Chrome/132.0.0.0 Safari/537.36","WebKit","Chrome","132.0.0.0","Windows","10.0","https://app.prolific.com/","en-US,en;q=0.9","614e6f4f00a9e94b123316d3","67949641171f97c04e14fb34","679c276b5daf3bd4e7e17047","","null","<img id='selected'    src='G_4.jpg' height='90'> <img    src='G_1.jpg' height='90'> <img     src='G_6.jpg' height='90'> <img     src='G_8.jpg' height='90'> <img     src='G_2.jpg' height='90'> <img src='G_3.jpg' height='90'> <img src='G_7.jpg' height='90'> <img src='G_5.jpg' height='90'>","null","Animation1",""
"","","","","","html-keyboard-response","94","160945","0.0-84.0","66","1","2025-01-31 01:29:25","af8d355d56820e421d246a7037deb6e6","99.33.29.117","Mozilla/5.0 (Windows NT 10.0; Win64; x64) AppleWebKit/537.36 (KHTML, like Gecko) Chrome/132.0.0.0 Safari/537.36","WebKit","Chrome","132.0.0.0","Windows","10.0","https://app.prolific.com/","en-US,en;q=0.9","614e6f4f00a9e94b123316d3","67949641171f97c04e14fb34","679c276b5daf3bd4e7e17047","","null","<img id='selected'    src='G_4.jpg' height='90'> <img id='selected'    src='G_1.jpg' height='90'> <img     src='G_6.jpg' height='90'> <img     src='G_8.jpg' height='90'> <img     src='G_2.jpg' height='90'> <img src='G_3.jpg' height='90'> <img src='G_7.jpg' height='90'> <img src='G_5.jpg' height='90'>","null","Animation1",""
"","","","","","html-keyboard-response","95","161460","0.0-85.0","66","1","2025-01-31 01:29:25","af8d355d56820e421d246a7037deb6e6","99.33.29.117","Mozilla/5.0 (Windows NT 10.0; Win64; x64) AppleWebKit/537.36 (KHTML, like Gecko) Chrome/132.0.0.0 Safari/537.36","WebKit","Chrome","132.0.0.0","Windows","10.0","https://app.prolific.com/","en-US,en;q=0.9","614e6f4f00a9e94b123316d3","67949641171f97c04e14fb34","679c276b5daf3bd4e7e17047","","null","<img id='selected'    src='G_4.jpg' height='90'> <img id='selected'    src='G_1.jpg' height='90'> <img     src='G_6.jpg' height='90'> <img     src='G_8.jpg' height='90'> <img     src='G_2.jpg' height='90'> <img src='G_3.jpg' height='90'> <img src='G_7.jpg' height='90'> <img src='G_5.jpg' height='90'>","null","Animation1",""
"","","","","","html-keyboard-response","96","161781","0.0-86.0","66","1","2025-01-31 01:29:25","af8d355d56820e421d246a7037deb6e6","99.33.29.117","Mozilla/5.0 (Windows NT 10.0; Win64; x64) AppleWebKit/537.36 (KHTML, like Gecko) Chrome/132.0.0.0 Safari/537.36","WebKit","Chrome","132.0.0.0","Windows","10.0","https://app.prolific.com/","en-US,en;q=0.9","614e6f4f00a9e94b123316d3","67949641171f97c04e14fb34","679c276b5daf3bd4e7e17047","","null","<img     src='G_4.jpg' height='90'> <img     src='G_1.jpg' height='90'> <img     src='G_6.jpg' height='90'> <img     src='G_8.jpg' height='90'> <img     src='G_2.jpg' height='90'> <img src='G_3.jpg' height='90'> <img src='G_7.jpg' height='90'> <img src='G_5.jpg' height='90'>","null","Animation1",""
"","","","","","html-keyboard-response","97","162307","0.0-87.0","66","1","2025-01-31 01:29:25","af8d355d56820e421d246a7037deb6e6","99.33.29.117","Mozilla/5.0 (Windows NT 10.0; Win64; x64) AppleWebKit/537.36 (KHTML, like Gecko) Chrome/132.0.0.0 Safari/537.36","WebKit","Chrome","132.0.0.0","Windows","10.0","https://app.prolific.com/","en-US,en;q=0.9","614e6f4f00a9e94b123316d3","67949641171f97c04e14fb34","679c276b5daf3bd4e7e17047","","null","<img     src='G_4.jpg' height='90'> <img     src='G_1.jpg' height='90'> <img     src='G_6.jpg' height='90'> <img     src='G_8.jpg' height='90'> <img id='selected'     src='G_2.jpg' height='90'> <img src='G_3.jpg' height='90'> <img src='G_7.jpg' height='90'> <img src='G_5.jpg' height='90'>","null","Animation1",""
"","","","","","html-keyboard-response","98","162823","0.0-88.0","66","1","2025-01-31 01:29:25","af8d355d56820e421d246a7037deb6e6","99.33.29.117","Mozilla/5.0 (Windows NT 10.0; Win64; x64) AppleWebKit/537.36 (KHTML, like Gecko) Chrome/132.0.0.0 Safari/537.36","WebKit","Chrome","132.0.0.0","Windows","10.0","https://app.prolific.com/","en-US,en;q=0.9","614e6f4f00a9e94b123316d3","67949641171f97c04e14fb34","679c276b5daf3bd4e7e17047","","null","<img     src='G_4.jpg' height='90'> <img     src='G_1.jpg' height='90'> <img     src='G_6.jpg' height='90'> <img     src='G_8.jpg' height='90'> <img id='selected'     src='G_2.jpg' height='90'> <img id='selected' src='G_3.jpg' height='90'> <img src='G_7.jpg' height='90'> <img src='G_5.jpg' height='90'>","null","Animation1",""
"","","","","","html-keyboard-response","99","163339","0.0-89.0","66","1","2025-01-31 01:29:25","af8d355d56820e421d246a7037deb6e6","99.33.29.117","Mozilla/5.0 (Windows NT 10.0; Win64; x64) AppleWebKit/537.36 (KHTML, like Gecko) Chrome/132.0.0.0 Safari/537.36","WebKit","Chrome","132.0.0.0","Windows","10.0","https://app.prolific.com/","en-US,en;q=0.9","614e6f4f00a9e94b123316d3","67949641171f97c04e14fb34","679c276b5daf3bd4e7e17047","","null","<img     src='G_4.jpg' height='90'> <img     src='G_1.jpg' height='90'> <img     src='G_6.jpg' height='90'> <img     src='G_8.jpg' height='90'> <img id='swapped' src='G_3.jpg' height='90'> <img id='swapped'     src='G_2.jpg' height='90'> <img src='G_7.jpg' height='90'> <img src='G_5.jpg' height='90'>","null","Animation1",""
"","","","","","html-keyboard-response","100","163650","0.0-90.0","66","1","2025-01-31 01:29:25","af8d355d56820e421d246a7037deb6e6","99.33.29.117","Mozilla/5.0 (Windows NT 10.0; Win64; x64) AppleWebKit/537.36 (KHTML, like Gecko) Chrome/132.0.0.0 Safari/537.36","WebKit","Chrome","132.0.0.0","Windows","10.0","https://app.prolific.com/","en-US,en;q=0.9","614e6f4f00a9e94b123316d3","67949641171f97c04e14fb34","679c276b5daf3bd4e7e17047","","null","<img     src='G_4.jpg' height='90'> <img     src='G_1.jpg' height='90'> <img     src='G_6.jpg' height='90'> <img     src='G_8.jpg' height='90'> <img  src='G_3.jpg' height='90'> <img      src='G_2.jpg' height='90'> <img src='G_7.jpg' height='90'> <img src='G_5.jpg' height='90'>","null","Animation1",""
"","","","","","html-keyboard-response","101","164171","0.0-91.0","66","1","2025-01-31 01:29:25","af8d355d56820e421d246a7037deb6e6","99.33.29.117","Mozilla/5.0 (Windows NT 10.0; Win64; x64) AppleWebKit/537.36 (KHTML, like Gecko) Chrome/132.0.0.0 Safari/537.36","WebKit","Chrome","132.0.0.0","Windows","10.0","https://app.prolific.com/","en-US,en;q=0.9","614e6f4f00a9e94b123316d3","67949641171f97c04e14fb34","679c276b5daf3bd4e7e17047","","null","<img     src='G_4.jpg' height='90'> <img     src='G_1.jpg' height='90'> <img     src='G_6.jpg' height='90'> <img id='selected'     src='G_8.jpg' height='90'> <img  src='G_3.jpg' height='90'> <img      src='G_2.jpg' height='90'> <img src='G_7.jpg' height='90'> <img src='G_5.jpg' height='90'>","null","Animation1",""
"","","","","","html-keyboard-response","102","165217","0.0-92.0","66","1","2025-01-31 01:29:25","af8d355d56820e421d246a7037deb6e6","99.33.29.117","Mozilla/5.0 (Windows NT 10.0; Win64; x64) AppleWebKit/537.36 (KHTML, like Gecko) Chrome/132.0.0.0 Safari/537.36","WebKit","Chrome","132.0.0.0","Windows","10.0","https://app.prolific.com/","en-US,en;q=0.9","614e6f4f00a9e94b123316d3","67949641171f97c04e14fb34","679c276b5daf3bd4e7e17047","","null","<img     src='G_4.jpg' height='90'> <img     src='G_1.jpg' height='90'> <img     src='G_6.jpg' height='90'> <img id='selected'     src='G_8.jpg' height='90'> <img id='selected'  src='G_3.jpg' height='90'> <img      src='G_2.jpg' height='90'> <img src='G_7.jpg' height='90'> <img src='G_5.jpg' height='90'>","null","Animation1",""
"","","","","","html-keyboard-response","103","166236","0.0-93.0","66","1","2025-01-31 01:29:25","af8d355d56820e421d246a7037deb6e6","99.33.29.117","Mozilla/5.0 (Windows NT 10.0; Win64; x64) AppleWebKit/537.36 (KHTML, like Gecko) Chrome/132.0.0.0 Safari/537.36","WebKit","Chrome","132.0.0.0","Windows","10.0","https://app.prolific.com/","en-US,en;q=0.9","614e6f4f00a9e94b123316d3","67949641171f97c04e14fb34","679c276b5daf3bd4e7e17047","","null","<img     src='G_4.jpg' height='90'> <img     src='G_1.jpg' height='90'> <img     src='G_6.jpg' height='90'> <img id='selected'     src='G_8.jpg' height='90'> <img id='selected'  src='G_3.jpg' height='90'> <img      src='G_2.jpg' height='90'> <img src='G_7.jpg' height='90'> <img src='G_5.jpg' height='90'>","null","Animation1",""
"","","","","","html-keyboard-response","104","167177","0.0-94.0","66","1","2025-01-31 01:29:25","af8d355d56820e421d246a7037deb6e6","99.33.29.117","Mozilla/5.0 (Windows NT 10.0; Win64; x64) AppleWebKit/537.36 (KHTML, like Gecko) Chrome/132.0.0.0 Safari/537.36","WebKit","Chrome","132.0.0.0","Windows","10.0","https://app.prolific.com/","en-US,en;q=0.9","614e6f4f00a9e94b123316d3","67949641171f97c04e14fb34","679c276b5daf3bd4e7e17047","","null","<img     src='G_4.jpg' height='90'> <img     src='G_1.jpg' height='90'> <img     src='G_6.jpg' height='90'> <img      src='G_8.jpg' height='90'> <img   src='G_3.jpg' height='90'> <img      src='G_2.jpg' height='90'> <img src='G_7.jpg' height='90'> <img src='G_5.jpg' height='90'>","null","Animation1",""
"","","","","","html-keyboard-response","105","167687","0.0-95.0","66","1","2025-01-31 01:29:25","af8d355d56820e421d246a7037deb6e6","99.33.29.117","Mozilla/5.0 (Windows NT 10.0; Win64; x64) AppleWebKit/537.36 (KHTML, like Gecko) Chrome/132.0.0.0 Safari/537.36","WebKit","Chrome","132.0.0.0","Windows","10.0","https://app.prolific.com/","en-US,en;q=0.9","614e6f4f00a9e94b123316d3","67949641171f97c04e14fb34","679c276b5daf3bd4e7e17047","","null","<img     src='G_4.jpg' height='90'> <img     src='G_1.jpg' height='90'> <img     src='G_6.jpg' height='90'> <img      src='G_8.jpg' height='90'> <img   src='G_3.jpg' height='90'> <img id='selected'      src='G_2.jpg' height='90'> <img src='G_7.jpg' height='90'> <img src='G_5.jpg' height='90'>","null","Animation1",""
"","","","","","html-keyboard-response","106","168207","0.0-96.0","66","1","2025-01-31 01:29:25","af8d355d56820e421d246a7037deb6e6","99.33.29.117","Mozilla/5.0 (Windows NT 10.0; Win64; x64) AppleWebKit/537.36 (KHTML, like Gecko) Chrome/132.0.0.0 Safari/537.36","WebKit","Chrome","132.0.0.0","Windows","10.0","https://app.prolific.com/","en-US,en;q=0.9","614e6f4f00a9e94b123316d3","67949641171f97c04e14fb34","679c276b5daf3bd4e7e17047","","null","<img     src='G_4.jpg' height='90'> <img     src='G_1.jpg' height='90'> <img     src='G_6.jpg' height='90'> <img      src='G_8.jpg' height='90'> <img   src='G_3.jpg' height='90'> <img id='selected'      src='G_2.jpg' height='90'> <img id='selected' src='G_7.jpg' height='90'> <img src='G_5.jpg' height='90'>","null","Animation1",""
"","","","","","html-keyboard-response","107","168717","0.0-97.0","66","1","2025-01-31 01:29:25","af8d355d56820e421d246a7037deb6e6","99.33.29.117","Mozilla/5.0 (Windows NT 10.0; Win64; x64) AppleWebKit/537.36 (KHTML, like Gecko) Chrome/132.0.0.0 Safari/537.36","WebKit","Chrome","132.0.0.0","Windows","10.0","https://app.prolific.com/","en-US,en;q=0.9","614e6f4f00a9e94b123316d3","67949641171f97c04e14fb34","679c276b5daf3bd4e7e17047","","null","<img     src='G_4.jpg' height='90'> <img     src='G_1.jpg' height='90'> <img     src='G_6.jpg' height='90'> <img      src='G_8.jpg' height='90'> <img   src='G_3.jpg' height='90'> <img id='selected'      src='G_2.jpg' height='90'> <img id='selected' src='G_7.jpg' height='90'> <img src='G_5.jpg' height='90'>","null","Animation1",""
"","","","","","html-keyboard-response","108","169039","0.0-98.0","66","1","2025-01-31 01:29:25","af8d355d56820e421d246a7037deb6e6","99.33.29.117","Mozilla/5.0 (Windows NT 10.0; Win64; x64) AppleWebKit/537.36 (KHTML, like Gecko) Chrome/132.0.0.0 Safari/537.36","WebKit","Chrome","132.0.0.0","Windows","10.0","https://app.prolific.com/","en-US,en;q=0.9","614e6f4f00a9e94b123316d3","67949641171f97c04e14fb34","679c276b5daf3bd4e7e17047","","null","<img     src='G_4.jpg' height='90'> <img     src='G_1.jpg' height='90'> <img     src='G_6.jpg' height='90'> <img      src='G_8.jpg' height='90'> <img   src='G_3.jpg' height='90'> <img       src='G_2.jpg' height='90'> <img  src='G_7.jpg' height='90'> <img src='G_5.jpg' height='90'>","null","Animation1",""
"","","","","","html-keyboard-response","109","169551","0.0-99.0","66","1","2025-01-31 01:29:25","af8d355d56820e421d246a7037deb6e6","99.33.29.117","Mozilla/5.0 (Windows NT 10.0; Win64; x64) AppleWebKit/537.36 (KHTML, like Gecko) Chrome/132.0.0.0 Safari/537.36","WebKit","Chrome","132.0.0.0","Windows","10.0","https://app.prolific.com/","en-US,en;q=0.9","614e6f4f00a9e94b123316d3","67949641171f97c04e14fb34","679c276b5daf3bd4e7e17047","","null","<img     src='G_4.jpg' height='90'> <img     src='G_1.jpg' height='90'> <img     src='G_6.jpg' height='90'> <img      src='G_8.jpg' height='90'> <img   src='G_3.jpg' height='90'> <img       src='G_2.jpg' height='90'> <img id='selected'  src='G_7.jpg' height='90'> <img src='G_5.jpg' height='90'>","null","Animation1",""
"","","","","","html-keyboard-response","110","170066","0.0-100.0","66","1","2025-01-31 01:29:25","af8d355d56820e421d246a7037deb6e6","99.33.29.117","Mozilla/5.0 (Windows NT 10.0; Win64; x64) AppleWebKit/537.36 (KHTML, like Gecko) Chrome/132.0.0.0 Safari/537.36","WebKit","Chrome","132.0.0.0","Windows","10.0","https://app.prolific.com/","en-US,en;q=0.9","614e6f4f00a9e94b123316d3","67949641171f97c04e14fb34","679c276b5daf3bd4e7e17047","","null","<img     src='G_4.jpg' height='90'> <img     src='G_1.jpg' height='90'> <img     src='G_6.jpg' height='90'> <img      src='G_8.jpg' height='90'> <img   src='G_3.jpg' height='90'> <img       src='G_2.jpg' height='90'> <img id='selected'  src='G_7.jpg' height='90'> <img id='selected' src='G_5.jpg' height='90'>","null","Animation1",""
"","","","","","html-keyboard-response","111","170584","0.0-101.0","66","1","2025-01-31 01:29:25","af8d355d56820e421d246a7037deb6e6","99.33.29.117","Mozilla/5.0 (Windows NT 10.0; Win64; x64) AppleWebKit/537.36 (KHTML, like Gecko) Chrome/132.0.0.0 Safari/537.36","WebKit","Chrome","132.0.0.0","Windows","10.0","https://app.prolific.com/","en-US,en;q=0.9","614e6f4f00a9e94b123316d3","67949641171f97c04e14fb34","679c276b5daf3bd4e7e17047","","null","<img     src='G_4.jpg' height='90'> <img     src='G_1.jpg' height='90'> <img     src='G_6.jpg' height='90'> <img      src='G_8.jpg' height='90'> <img   src='G_3.jpg' height='90'> <img       src='G_2.jpg' height='90'> <img id='swapped' src='G_5.jpg' height='90'> <img id='swapped'  src='G_7.jpg' height='90'>","null","Animation1",""
"","","","","","html-keyboard-response","112","170904","0.0-102.0","66","1","2025-01-31 01:29:25","af8d355d56820e421d246a7037deb6e6","99.33.29.117","Mozilla/5.0 (Windows NT 10.0; Win64; x64) AppleWebKit/537.36 (KHTML, like Gecko) Chrome/132.0.0.0 Safari/537.36","WebKit","Chrome","132.0.0.0","Windows","10.0","https://app.prolific.com/","en-US,en;q=0.9","614e6f4f00a9e94b123316d3","67949641171f97c04e14fb34","679c276b5daf3bd4e7e17047","","null","<img     src='G_4.jpg' height='90'> <img     src='G_1.jpg' height='90'> <img     src='G_6.jpg' height='90'> <img      src='G_8.jpg' height='90'> <img   src='G_3.jpg' height='90'> <img       src='G_2.jpg' height='90'> <img  src='G_5.jpg' height='90'> <img   src='G_7.jpg' height='90'>","null","Animation1",""
"","","","","","html-keyboard-response","113","171418","0.0-103.0","66","1","2025-01-31 01:29:25","af8d355d56820e421d246a7037deb6e6","99.33.29.117","Mozilla/5.0 (Windows NT 10.0; Win64; x64) AppleWebKit/537.36 (KHTML, like Gecko) Chrome/132.0.0.0 Safari/537.36","WebKit","Chrome","132.0.0.0","Windows","10.0","https://app.prolific.com/","en-US,en;q=0.9","614e6f4f00a9e94b123316d3","67949641171f97c04e14fb34","679c276b5daf3bd4e7e17047","","null","<img     src='G_4.jpg' height='90'> <img     src='G_1.jpg' height='90'> <img     src='G_6.jpg' height='90'> <img      src='G_8.jpg' height='90'> <img   src='G_3.jpg' height='90'> <img id='selected'       src='G_2.jpg' height='90'> <img  src='G_5.jpg' height='90'> <img   src='G_7.jpg' height='90'>","null","Animation1",""
"","","","","","html-keyboard-response","114","171931","0.0-104.0","66","1","2025-01-31 01:29:25","af8d355d56820e421d246a7037deb6e6","99.33.29.117","Mozilla/5.0 (Windows NT 10.0; Win64; x64) AppleWebKit/537.36 (KHTML, like Gecko) Chrome/132.0.0.0 Safari/537.36","WebKit","Chrome","132.0.0.0","Windows","10.0","https://app.prolific.com/","en-US,en;q=0.9","614e6f4f00a9e94b123316d3","67949641171f97c04e14fb34","679c276b5daf3bd4e7e17047","","null","<img     src='G_4.jpg' height='90'> <img     src='G_1.jpg' height='90'> <img     src='G_6.jpg' height='90'> <img      src='G_8.jpg' height='90'> <img   src='G_3.jpg' height='90'> <img id='selected'       src='G_2.jpg' height='90'> <img id='selected'  src='G_5.jpg' height='90'> <img   src='G_7.jpg' height='90'>","null","Animation1",""
"","","","","","html-keyboard-response","115","172444","0.0-105.0","66","1","2025-01-31 01:29:25","af8d355d56820e421d246a7037deb6e6","99.33.29.117","Mozilla/5.0 (Windows NT 10.0; Win64; x64) AppleWebKit/537.36 (KHTML, like Gecko) Chrome/132.0.0.0 Safari/537.36","WebKit","Chrome","132.0.0.0","Windows","10.0","https://app.prolific.com/","en-US,en;q=0.9","614e6f4f00a9e94b123316d3","67949641171f97c04e14fb34","679c276b5daf3bd4e7e17047","","null","<img     src='G_4.jpg' height='90'> <img     src='G_1.jpg' height='90'> <img     src='G_6.jpg' height='90'> <img      src='G_8.jpg' height='90'> <img   src='G_3.jpg' height='90'> <img id='selected'       src='G_2.jpg' height='90'> <img id='selected'  src='G_5.jpg' height='90'> <img   src='G_7.jpg' height='90'>","null","Animation1",""
"","","","","","html-keyboard-response","116","172769","0.0-106.0","66","1","2025-01-31 01:29:25","af8d355d56820e421d246a7037deb6e6","99.33.29.117","Mozilla/5.0 (Windows NT 10.0; Win64; x64) AppleWebKit/537.36 (KHTML, like Gecko) Chrome/132.0.0.0 Safari/537.36","WebKit","Chrome","132.0.0.0","Windows","10.0","https://app.prolific.com/","en-US,en;q=0.9","614e6f4f00a9e94b123316d3","67949641171f97c04e14fb34","679c276b5daf3bd4e7e17047","","null","<img     src='G_4.jpg' height='90'> <img     src='G_1.jpg' height='90'> <img     src='G_6.jpg' height='90'> <img      src='G_8.jpg' height='90'> <img   src='G_3.jpg' height='90'> <img        src='G_2.jpg' height='90'> <img   src='G_5.jpg' height='90'> <img   src='G_7.jpg' height='90'>","null","Animation1",""
"","","","","","html-keyboard-response","117","181788","0.0-107.0","66","1","2025-01-31 01:29:25","af8d355d56820e421d246a7037deb6e6","99.33.29.117","Mozilla/5.0 (Windows NT 10.0; Win64; x64) AppleWebKit/537.36 (KHTML, like Gecko) Chrome/132.0.0.0 Safari/537.36","WebKit","Chrome","132.0.0.0","Windows","10.0","https://app.prolific.com/","en-US,en;q=0.9","614e6f4f00a9e94b123316d3","67949641171f97c04e14fb34","679c276b5daf3bd4e7e17047","","9013","[""Did you notice any patterns? <br><br>Press Enter to watch that example again and follow the steps of Omgne Sort.""]","enter","",""
"","","","","","html-button-response","118","182207","0.0-108.0","66","1","2025-01-31 01:29:25","af8d355d56820e421d246a7037deb6e6","99.33.29.117","Mozilla/5.0 (Windows NT 10.0; Win64; x64) AppleWebKit/537.36 (KHTML, like Gecko) Chrome/132.0.0.0 Safari/537.36","WebKit","Chrome","132.0.0.0","Windows","10.0","https://app.prolific.com/","en-US,en;q=0.9","614e6f4f00a9e94b123316d3","67949641171f97c04e14fb34","679c276b5daf3bd4e7e17047","","null","<img id='selected' src='G_8.jpg' height='90'> <img src='G_2.jpg' height='90'> <img src='G_6.jpg' height='90'> <img src='G_4.jpg' height='90'> <img src='G_1.jpg' height='90'> <img src='G_3.jpg' height='90'> <img src='G_7.jpg' height='90'> <img src='G_5.jpg' height='90'>","null","Learning example 1",""
"","","","","","html-button-response","119","182528","0.0-109.0","66","1","2025-01-31 01:29:25","af8d355d56820e421d246a7037deb6e6","99.33.29.117","Mozilla/5.0 (Windows NT 10.0; Win64; x64) AppleWebKit/537.36 (KHTML, like Gecko) Chrome/132.0.0.0 Safari/537.36","WebKit","Chrome","132.0.0.0","Windows","10.0","https://app.prolific.com/","en-US,en;q=0.9","614e6f4f00a9e94b123316d3","67949641171f97c04e14fb34","679c276b5daf3bd4e7e17047","","null","<img id='selected' src='G_8.jpg' height='90'> <img id='selected' src='G_2.jpg' height='90'> <img src='G_6.jpg' height='90'> <img src='G_4.jpg' height='90'> <img src='G_1.jpg' height='90'> <img src='G_3.jpg' height='90'> <img src='G_7.jpg' height='90'> <img src='G_5.jpg' height='90'>","null","Learning example 1",""
"","","","","","html-button-response","120","182841","0.0-110.0","66","1","2025-01-31 01:29:25","af8d355d56820e421d246a7037deb6e6","99.33.29.117","Mozilla/5.0 (Windows NT 10.0; Win64; x64) AppleWebKit/537.36 (KHTML, like Gecko) Chrome/132.0.0.0 Safari/537.36","WebKit","Chrome","132.0.0.0","Windows","10.0","https://app.prolific.com/","en-US,en;q=0.9","614e6f4f00a9e94b123316d3","67949641171f97c04e14fb34","679c276b5daf3bd4e7e17047","","null","<img id='selected' src='G_8.jpg' height='90'> <img id='selected' src='G_2.jpg' height='90'> <img src='G_6.jpg' height='90'> <img src='G_4.jpg' height='90'> <img src='G_1.jpg' height='90'> <img src='G_3.jpg' height='90'> <img src='G_7.jpg' height='90'> <img src='G_5.jpg' height='90'>","null","Learning example 1",""
"","","","","","html-button-response","121","185813","0.0-111.0-0.0-0.0","66","1","2025-01-31 01:29:25","af8d355d56820e421d246a7037deb6e6","99.33.29.117","Mozilla/5.0 (Windows NT 10.0; Win64; x64) AppleWebKit/537.36 (KHTML, like Gecko) Chrome/132.0.0.0 Safari/537.36","WebKit","Chrome","132.0.0.0","Windows","10.0","https://app.prolific.com/","en-US,en;q=0.9","614e6f4f00a9e94b123316d3","67949641171f97c04e14fb34","679c276b5daf3bd4e7e17047","","2960","<img id='selected' src='G_8.jpg' height='90'> <img id='selected' src='G_2.jpg' height='90'> <img src='G_6.jpg' height='90'> <img src='G_4.jpg' height='90'> <img src='G_1.jpg' height='90'> <img src='G_3.jpg' height='90'> <img src='G_7.jpg' height='90'> <img src='G_5.jpg' height='90'>","0","Learning example 1",""
"","","","","","html-button-response","122","186413","0.0-111.1-0.1-0.1","66","1","2025-01-31 01:29:25","af8d355d56820e421d246a7037deb6e6","99.33.29.117","Mozilla/5.0 (Windows NT 10.0; Win64; x64) AppleWebKit/537.36 (KHTML, like Gecko) Chrome/132.0.0.0 Safari/537.36","WebKit","Chrome","132.0.0.0","Windows","10.0","https://app.prolific.com/","en-US,en;q=0.9","614e6f4f00a9e94b123316d3","67949641171f97c04e14fb34","679c276b5daf3bd4e7e17047","","588","<img id='selected' src='G_8.jpg' height='90'> <img id='selected' src='G_2.jpg' height='90'> <img src='G_6.jpg' height='90'> <img src='G_4.jpg' height='90'> <img src='G_1.jpg' height='90'> <img src='G_3.jpg' height='90'> <img src='G_7.jpg' height='90'> <img src='G_5.jpg' height='90'>","1","Learning example 1",""
"","","","","","html-button-response","123","186625","0.0-112.0","66","1","2025-01-31 01:29:25","af8d355d56820e421d246a7037deb6e6","99.33.29.117","Mozilla/5.0 (Windows NT 10.0; Win64; x64) AppleWebKit/537.36 (KHTML, like Gecko) Chrome/132.0.0.0 Safari/537.36","WebKit","Chrome","132.0.0.0","Windows","10.0","https://app.prolific.com/","en-US,en;q=0.9","614e6f4f00a9e94b123316d3","67949641171f97c04e14fb34","679c276b5daf3bd4e7e17047","","null","<img  src='G_8.jpg' height='90'> <img  src='G_2.jpg' height='90'> <img src='G_6.jpg' height='90'> <img src='G_4.jpg' height='90'> <img src='G_1.jpg' height='90'> <img src='G_3.jpg' height='90'> <img src='G_7.jpg' height='90'> <img src='G_5.jpg' height='90'>","null","Learning example 1",""
"","","","","","html-button-response","124","187037","0.0-113.0","66","1","2025-01-31 01:29:25","af8d355d56820e421d246a7037deb6e6","99.33.29.117","Mozilla/5.0 (Windows NT 10.0; Win64; x64) AppleWebKit/537.36 (KHTML, like Gecko) Chrome/132.0.0.0 Safari/537.36","WebKit","Chrome","132.0.0.0","Windows","10.0","https://app.prolific.com/","en-US,en;q=0.9","614e6f4f00a9e94b123316d3","67949641171f97c04e14fb34","679c276b5daf3bd4e7e17047","","null","<img  src='G_8.jpg' height='90'> <img id='selected'  src='G_2.jpg' height='90'> <img src='G_6.jpg' height='90'> <img src='G_4.jpg' height='90'> <img src='G_1.jpg' height='90'> <img src='G_3.jpg' height='90'> <img src='G_7.jpg' height='90'> <img src='G_5.jpg' height='90'>","null","Learning example 1",""
"","","","","","html-button-response","125","187356","0.0-114.0","66","1","2025-01-31 01:29:25","af8d355d56820e421d246a7037deb6e6","99.33.29.117","Mozilla/5.0 (Windows NT 10.0; Win64; x64) AppleWebKit/537.36 (KHTML, like Gecko) Chrome/132.0.0.0 Safari/537.36","WebKit","Chrome","132.0.0.0","Windows","10.0","https://app.prolific.com/","en-US,en;q=0.9","614e6f4f00a9e94b123316d3","67949641171f97c04e14fb34","679c276b5daf3bd4e7e17047","","null","<img  src='G_8.jpg' height='90'> <img id='selected'  src='G_2.jpg' height='90'> <img id='selected' src='G_6.jpg' height='90'> <img src='G_4.jpg' height='90'> <img src='G_1.jpg' height='90'> <img src='G_3.jpg' height='90'> <img src='G_7.jpg' height='90'> <img src='G_5.jpg' height='90'>","null","Learning example 1",""
"","","","","","html-button-response","126","187668","0.0-115.0","66","1","2025-01-31 01:29:25","af8d355d56820e421d246a7037deb6e6","99.33.29.117","Mozilla/5.0 (Windows NT 10.0; Win64; x64) AppleWebKit/537.36 (KHTML, like Gecko) Chrome/132.0.0.0 Safari/537.36","WebKit","Chrome","132.0.0.0","Windows","10.0","https://app.prolific.com/","en-US,en;q=0.9","614e6f4f00a9e94b123316d3","67949641171f97c04e14fb34","679c276b5daf3bd4e7e17047","","null","<img  src='G_8.jpg' height='90'> <img id='swapped' src='G_6.jpg' height='90'> <img id='swapped'  src='G_2.jpg' height='90'> <img src='G_4.jpg' height='90'> <img src='G_1.jpg' height='90'> <img src='G_3.jpg' height='90'> <img src='G_7.jpg' height='90'> <img src='G_5.jpg' height='90'>","null","Learning example 1",""
"","","","","","html-button-response","127","188278","0.0-116.0-0.0-0.0","66","1","2025-01-31 01:29:25","af8d355d56820e421d246a7037deb6e6","99.33.29.117","Mozilla/5.0 (Windows NT 10.0; Win64; x64) AppleWebKit/537.36 (KHTML, like Gecko) Chrome/132.0.0.0 Safari/537.36","WebKit","Chrome","132.0.0.0","Windows","10.0","https://app.prolific.com/","en-US,en;q=0.9","614e6f4f00a9e94b123316d3","67949641171f97c04e14fb34","679c276b5daf3bd4e7e17047","","603","<img  src='G_8.jpg' height='90'> <img id='swapped' src='G_6.jpg' height='90'> <img id='swapped'  src='G_2.jpg' height='90'> <img src='G_4.jpg' height='90'> <img src='G_1.jpg' height='90'> <img src='G_3.jpg' height='90'> <img src='G_7.jpg' height='90'> <img src='G_5.jpg' height='90'>","1","Learning example 1",""
"","","","","","html-button-response","128","188910","0.0-116.1-0.1-0.1","66","1","2025-01-31 01:29:25","af8d355d56820e421d246a7037deb6e6","99.33.29.117","Mozilla/5.0 (Windows NT 10.0; Win64; x64) AppleWebKit/537.36 (KHTML, like Gecko) Chrome/132.0.0.0 Safari/537.36","WebKit","Chrome","132.0.0.0","Windows","10.0","https://app.prolific.com/","en-US,en;q=0.9","614e6f4f00a9e94b123316d3","67949641171f97c04e14fb34","679c276b5daf3bd4e7e17047","","619","<img  src='G_8.jpg' height='90'> <img id='swapped' src='G_6.jpg' height='90'> <img id='swapped'  src='G_2.jpg' height='90'> <img src='G_4.jpg' height='90'> <img src='G_1.jpg' height='90'> <img src='G_3.jpg' height='90'> <img src='G_7.jpg' height='90'> <img src='G_5.jpg' height='90'>","2","Learning example 1",""
"","","","","","html-button-response","129","189123","0.0-117.0","66","1","2025-01-31 01:29:25","af8d355d56820e421d246a7037deb6e6","99.33.29.117","Mozilla/5.0 (Windows NT 10.0; Win64; x64) AppleWebKit/537.36 (KHTML, like Gecko) Chrome/132.0.0.0 Safari/537.36","WebKit","Chrome","132.0.0.0","Windows","10.0","https://app.prolific.com/","en-US,en;q=0.9","614e6f4f00a9e94b123316d3","67949641171f97c04e14fb34","679c276b5daf3bd4e7e17047","","null","<img  src='G_8.jpg' height='90'> <img  src='G_6.jpg' height='90'> <img   src='G_2.jpg' height='90'> <img src='G_4.jpg' height='90'> <img src='G_1.jpg' height='90'> <img src='G_3.jpg' height='90'> <img src='G_7.jpg' height='90'> <img src='G_5.jpg' height='90'>","null","Learning example 1",""
"","","","","","html-button-response","130","189534","0.0-118.0","66","1","2025-01-31 01:29:25","af8d355d56820e421d246a7037deb6e6","99.33.29.117","Mozilla/5.0 (Windows NT 10.0; Win64; x64) AppleWebKit/537.36 (KHTML, like Gecko) Chrome/132.0.0.0 Safari/537.36","WebKit","Chrome","132.0.0.0","Windows","10.0","https://app.prolific.com/","en-US,en;q=0.9","614e6f4f00a9e94b123316d3","67949641171f97c04e14fb34","679c276b5daf3bd4e7e17047","","null","<img id='selected'  src='G_8.jpg' height='90'> <img  src='G_6.jpg' height='90'> <img   src='G_2.jpg' height='90'> <img src='G_4.jpg' height='90'> <img src='G_1.jpg' height='90'> <img src='G_3.jpg' height='90'> <img src='G_7.jpg' height='90'> <img src='G_5.jpg' height='90'>","null","Learning example 1",""
"","","","","","html-button-response","131","189839","0.0-119.0","66","1","2025-01-31 01:29:25","af8d355d56820e421d246a7037deb6e6","99.33.29.117","Mozilla/5.0 (Windows NT 10.0; Win64; x64) AppleWebKit/537.36 (KHTML, like Gecko) Chrome/132.0.0.0 Safari/537.36","WebKit","Chrome","132.0.0.0","Windows","10.0","https://app.prolific.com/","en-US,en;q=0.9","614e6f4f00a9e94b123316d3","67949641171f97c04e14fb34","679c276b5daf3bd4e7e17047","","null","<img id='selected'  src='G_8.jpg' height='90'> <img id='selected'  src='G_6.jpg' height='90'> <img   src='G_2.jpg' height='90'> <img src='G_4.jpg' height='90'> <img src='G_1.jpg' height='90'> <img src='G_3.jpg' height='90'> <img src='G_7.jpg' height='90'> <img src='G_5.jpg' height='90'>","null","Learning example 1",""
"","","","","","html-button-response","132","190156","0.0-120.0","66","1","2025-01-31 01:29:25","af8d355d56820e421d246a7037deb6e6","99.33.29.117","Mozilla/5.0 (Windows NT 10.0; Win64; x64) AppleWebKit/537.36 (KHTML, like Gecko) Chrome/132.0.0.0 Safari/537.36","WebKit","Chrome","132.0.0.0","Windows","10.0","https://app.prolific.com/","en-US,en;q=0.9","614e6f4f00a9e94b123316d3","67949641171f97c04e14fb34","679c276b5daf3bd4e7e17047","","null","<img id='swapped'  src='G_6.jpg' height='90'> <img id='swapped'  src='G_8.jpg' height='90'> <img   src='G_2.jpg' height='90'> <img src='G_4.jpg' height='90'> <img src='G_1.jpg' height='90'> <img src='G_3.jpg' height='90'> <img src='G_7.jpg' height='90'> <img src='G_5.jpg' height='90'>","null","Learning example 1",""
"","","","","","html-button-response","133","190659","0.0-121.0-0.0-0.0","66","1","2025-01-31 01:29:25","af8d355d56820e421d246a7037deb6e6","99.33.29.117","Mozilla/5.0 (Windows NT 10.0; Win64; x64) AppleWebKit/537.36 (KHTML, like Gecko) Chrome/132.0.0.0 Safari/537.36","WebKit","Chrome","132.0.0.0","Windows","10.0","https://app.prolific.com/","en-US,en;q=0.9","614e6f4f00a9e94b123316d3","67949641171f97c04e14fb34","679c276b5daf3bd4e7e17047","","491","<img id='swapped'  src='G_6.jpg' height='90'> <img id='swapped'  src='G_8.jpg' height='90'> <img   src='G_2.jpg' height='90'> <img src='G_4.jpg' height='90'> <img src='G_1.jpg' height='90'> <img src='G_3.jpg' height='90'> <img src='G_7.jpg' height='90'> <img src='G_5.jpg' height='90'>","1","Learning example 1",""
"","","","","","html-button-response","134","191305","0.0-121.1-0.1-0.1","66","1","2025-01-31 01:29:25","af8d355d56820e421d246a7037deb6e6","99.33.29.117","Mozilla/5.0 (Windows NT 10.0; Win64; x64) AppleWebKit/537.36 (KHTML, like Gecko) Chrome/132.0.0.0 Safari/537.36","WebKit","Chrome","132.0.0.0","Windows","10.0","https://app.prolific.com/","en-US,en;q=0.9","614e6f4f00a9e94b123316d3","67949641171f97c04e14fb34","679c276b5daf3bd4e7e17047","","633","<img id='swapped'  src='G_6.jpg' height='90'> <img id='swapped'  src='G_8.jpg' height='90'> <img   src='G_2.jpg' height='90'> <img src='G_4.jpg' height='90'> <img src='G_1.jpg' height='90'> <img src='G_3.jpg' height='90'> <img src='G_7.jpg' height='90'> <img src='G_5.jpg' height='90'>","0","Learning example 1",""
"","","","","","html-button-response","135","191520","0.0-122.0","66","1","2025-01-31 01:29:25","af8d355d56820e421d246a7037deb6e6","99.33.29.117","Mozilla/5.0 (Windows NT 10.0; Win64; x64) AppleWebKit/537.36 (KHTML, like Gecko) Chrome/132.0.0.0 Safari/537.36","WebKit","Chrome","132.0.0.0","Windows","10.0","https://app.prolific.com/","en-US,en;q=0.9","614e6f4f00a9e94b123316d3","67949641171f97c04e14fb34","679c276b5daf3bd4e7e17047","","null","<img   src='G_6.jpg' height='90'> <img   src='G_8.jpg' height='90'> <img   src='G_2.jpg' height='90'> <img src='G_4.jpg' height='90'> <img src='G_1.jpg' height='90'> <img src='G_3.jpg' height='90'> <img src='G_7.jpg' height='90'> <img src='G_5.jpg' height='90'>","null","Learning example 1",""
"","","","","","html-button-response","136","191927","0.0-123.0","66","1","2025-01-31 01:29:25","af8d355d56820e421d246a7037deb6e6","99.33.29.117","Mozilla/5.0 (Windows NT 10.0; Win64; x64) AppleWebKit/537.36 (KHTML, like Gecko) Chrome/132.0.0.0 Safari/537.36","WebKit","Chrome","132.0.0.0","Windows","10.0","https://app.prolific.com/","en-US,en;q=0.9","614e6f4f00a9e94b123316d3","67949641171f97c04e14fb34","679c276b5daf3bd4e7e17047","","null","<img   src='G_6.jpg' height='90'> <img   src='G_8.jpg' height='90'> <img id='selected'   src='G_2.jpg' height='90'> <img src='G_4.jpg' height='90'> <img src='G_1.jpg' height='90'> <img src='G_3.jpg' height='90'> <img src='G_7.jpg' height='90'> <img src='G_5.jpg' height='90'>","null","Learning example 1",""
"","","","","","html-button-response","137","192240","0.0-124.0","66","1","2025-01-31 01:29:25","af8d355d56820e421d246a7037deb6e6","99.33.29.117","Mozilla/5.0 (Windows NT 10.0; Win64; x64) AppleWebKit/537.36 (KHTML, like Gecko) Chrome/132.0.0.0 Safari/537.36","WebKit","Chrome","132.0.0.0","Windows","10.0","https://app.prolific.com/","en-US,en;q=0.9","614e6f4f00a9e94b123316d3","67949641171f97c04e14fb34","679c276b5daf3bd4e7e17047","","null","<img   src='G_6.jpg' height='90'> <img   src='G_8.jpg' height='90'> <img id='selected'   src='G_2.jpg' height='90'> <img id='selected' src='G_4.jpg' height='90'> <img src='G_1.jpg' height='90'> <img src='G_3.jpg' height='90'> <img src='G_7.jpg' height='90'> <img src='G_5.jpg' height='90'>","null","Learning example 1",""
"","","","","","html-button-response","138","192563","0.0-125.0","66","1","2025-01-31 01:29:25","af8d355d56820e421d246a7037deb6e6","99.33.29.117","Mozilla/5.0 (Windows NT 10.0; Win64; x64) AppleWebKit/537.36 (KHTML, like Gecko) Chrome/132.0.0.0 Safari/537.36","WebKit","Chrome","132.0.0.0","Windows","10.0","https://app.prolific.com/","en-US,en;q=0.9","614e6f4f00a9e94b123316d3","67949641171f97c04e14fb34","679c276b5daf3bd4e7e17047","","null","<img   src='G_6.jpg' height='90'> <img   src='G_8.jpg' height='90'> <img id='swapped' src='G_4.jpg' height='90'> <img id='swapped'   src='G_2.jpg' height='90'> <img src='G_1.jpg' height='90'> <img src='G_3.jpg' height='90'> <img src='G_7.jpg' height='90'> <img src='G_5.jpg' height='90'>","null","Learning example 1",""
"","","","","","html-button-response","139","193204","0.0-126.0-0.0-0.0","66","1","2025-01-31 01:29:25","af8d355d56820e421d246a7037deb6e6","99.33.29.117","Mozilla/5.0 (Windows NT 10.0; Win64; x64) AppleWebKit/537.36 (KHTML, like Gecko) Chrome/132.0.0.0 Safari/537.36","WebKit","Chrome","132.0.0.0","Windows","10.0","https://app.prolific.com/","en-US,en;q=0.9","614e6f4f00a9e94b123316d3","67949641171f97c04e14fb34","679c276b5daf3bd4e7e17047","","633","<img   src='G_6.jpg' height='90'> <img   src='G_8.jpg' height='90'> <img id='swapped' src='G_4.jpg' height='90'> <img id='swapped'   src='G_2.jpg' height='90'> <img src='G_1.jpg' height='90'> <img src='G_3.jpg' height='90'> <img src='G_7.jpg' height='90'> <img src='G_5.jpg' height='90'>","2","Learning example 1",""
"","","","","","html-button-response","140","193839","0.0-126.1-0.1-0.1","66","1","2025-01-31 01:29:25","af8d355d56820e421d246a7037deb6e6","99.33.29.117","Mozilla/5.0 (Windows NT 10.0; Win64; x64) AppleWebKit/537.36 (KHTML, like Gecko) Chrome/132.0.0.0 Safari/537.36","WebKit","Chrome","132.0.0.0","Windows","10.0","https://app.prolific.com/","en-US,en;q=0.9","614e6f4f00a9e94b123316d3","67949641171f97c04e14fb34","679c276b5daf3bd4e7e17047","","627","<img   src='G_6.jpg' height='90'> <img   src='G_8.jpg' height='90'> <img id='swapped' src='G_4.jpg' height='90'> <img id='swapped'   src='G_2.jpg' height='90'> <img src='G_1.jpg' height='90'> <img src='G_3.jpg' height='90'> <img src='G_7.jpg' height='90'> <img src='G_5.jpg' height='90'>","3","Learning example 1",""
"","","","","","html-button-response","141","194053","0.0-127.0","66","1","2025-01-31 01:29:25","af8d355d56820e421d246a7037deb6e6","99.33.29.117","Mozilla/5.0 (Windows NT 10.0; Win64; x64) AppleWebKit/537.36 (KHTML, like Gecko) Chrome/132.0.0.0 Safari/537.36","WebKit","Chrome","132.0.0.0","Windows","10.0","https://app.prolific.com/","en-US,en;q=0.9","614e6f4f00a9e94b123316d3","67949641171f97c04e14fb34","679c276b5daf3bd4e7e17047","","null","<img   src='G_6.jpg' height='90'> <img   src='G_8.jpg' height='90'> <img  src='G_4.jpg' height='90'> <img    src='G_2.jpg' height='90'> <img src='G_1.jpg' height='90'> <img src='G_3.jpg' height='90'> <img src='G_7.jpg' height='90'> <img src='G_5.jpg' height='90'>","null","Learning example 1",""
