"success","timeout","failed_images","failed_audio","failed_video","trial_type","trial_index","time_elapsed","internal_node_id","run_id","condition","recorded_at","source_code_version","ip","user_agent","device","browser","browser_version","platform","platform_version","referer","accept_language","PROLIFIC_PID","STUDY_ID","SESSION_ID","view_history","rt","stimulus","response","phase","question_order"
"true","false","[]","[]","[]","preload","0","6047","0.0-0.0","67","1","2025-01-31 01:31:58","af8d355d56820e421d246a7037deb6e6","172.84.188.3","Mozilla/5.0 (Windows NT 10.0; Win64; x64) AppleWebKit/537.36 (KHTML, like Gecko) Chrome/132.0.0.0 Safari/537.36","WebKit","Chrome","132.0.0.0","Windows","10.0","https://app.prolific.com/","en-US,en;q=0.9","65e0fc6b883b6a493d50e0a5","67949641171f97c04e14fb34","679c244fbd215cb22adc8870","","","","","",""
"","","","","","instructions","1","19727","0.0-1.0","67","1","2025-01-31 01:31:58","af8d355d56820e421d246a7037deb6e6","172.84.188.3","Mozilla/5.0 (Windows NT 10.0; Win64; x64) AppleWebKit/537.36 (KHTML, like Gecko) Chrome/132.0.0.0 Safari/537.36","WebKit","Chrome","132.0.0.0","Windows","10.0","https://app.prolific.com/","en-US,en;q=0.9","65e0fc6b883b6a493d50e0a5","67949641171f97c04e14fb34","679c244fbd215cb22adc8870","[{""page_index"":0,""viewing_time"":13673}]","13674","","","",""
"","","","","","html-keyboard-response","2","20238","0.0-2.0","67","1","2025-01-31 01:31:58","af8d355d56820e421d246a7037deb6e6","172.84.188.3","Mozilla/5.0 (Windows NT 10.0; Win64; x64) AppleWebKit/537.36 (KHTML, like Gecko) Chrome/132.0.0.0 Safari/537.36","WebKit","Chrome","132.0.0.0","Windows","10.0","https://app.prolific.com/","en-US,en;q=0.9","65e0fc6b883b6a493d50e0a5","67949641171f97c04e14fb34","679c244fbd215cb22adc8870","","null","<p> + <p/>","null","",""
"","","","","","instructions","3","54197","0.0-3.0","67","1","2025-01-31 01:31:58","af8d355d56820e421d246a7037deb6e6","172.84.188.3","Mozilla/5.0 (Windows NT 10.0; Win64; x64) AppleWebKit/537.36 (KHTML, like Gecko) Chrome/132.0.0.0 Safari/537.36","WebKit","Chrome","132.0.0.0","Windows","10.0","https://app.prolific.com/","en-US,en;q=0.9","65e0fc6b883b6a493d50e0a5","67949641171f97c04e14fb34","679c244fbd215cb22adc8870","[{""page_index"":0,""viewing_time"":3060},{""page_index"":1,""viewing_time"":8716},{""page_index"":2,""viewing_time"":10988},{""page_index"":3,""viewing_time"":4695},{""page_index"":4,""viewing_time"":6496}]","33957","","","",""
"","","","","","html-button-response","4","78224","0.0-4.0-0.0-0.0","67","1","2025-01-31 01:31:58","af8d355d56820e421d246a7037deb6e6","172.84.188.3","Mozilla/5.0 (Windows NT 10.0; Win64; x64) AppleWebKit/537.36 (KHTML, like Gecko) Chrome/132.0.0.0 Safari/537.36","WebKit","Chrome","132.0.0.0","Windows","10.0","https://app.prolific.com/","en-US,en;q=0.9","65e0fc6b883b6a493d50e0a5","67949641171f97c04e14fb34","679c244fbd215cb22adc8870","","24022","","0","Intro Trial",""
"","","","","","html-button-response","5","78698","0.0-4.1-0.1-0.1","67","1","2025-01-31 01:31:58","af8d355d56820e421d246a7037deb6e6","172.84.188.3","Mozilla/5.0 (Windows NT 10.0; Win64; x64) AppleWebKit/537.36 (KHTML, like Gecko) Chrome/132.0.0.0 Safari/537.36","WebKit","Chrome","132.0.0.0","Windows","10.0","https://app.prolific.com/","en-US,en;q=0.9","65e0fc6b883b6a493d50e0a5","67949641171f97c04e14fb34","679c244fbd215cb22adc8870","","469","","1","Intro Trial",""
"","","","","","html-button-response","6","84598","0.0-4.2-0.2-0.2","67","1","2025-01-31 01:31:58","af8d355d56820e421d246a7037deb6e6","172.84.188.3","Mozilla/5.0 (Windows NT 10.0; Win64; x64) AppleWebKit/537.36 (KHTML, like Gecko) Chrome/132.0.0.0 Safari/537.36","WebKit","Chrome","132.0.0.0","Windows","10.0","https://app.prolific.com/","en-US,en;q=0.9","65e0fc6b883b6a493d50e0a5","67949641171f97c04e14fb34","679c244fbd215cb22adc8870","","5897","","2","Intro Trial",""
"","","","","","html-button-response","7","85165","0.0-4.3-0.3-0.3","67","1","2025-01-31 01:31:58","af8d355d56820e421d246a7037deb6e6","172.84.188.3","Mozilla/5.0 (Windows NT 10.0; Win64; x64) AppleWebKit/537.36 (KHTML, like Gecko) Chrome/132.0.0.0 Safari/537.36","WebKit","Chrome","132.0.0.0","Windows","10.0","https://app.prolific.com/","en-US,en;q=0.9","65e0fc6b883b6a493d50e0a5","67949641171f97c04e14fb34","679c244fbd215cb22adc8870","","566","","1","Intro Trial",""
"","","","","","html-button-response","8","87768","0.0-4.4-0.4-0.4","67","1","2025-01-31 01:31:58","af8d355d56820e421d246a7037deb6e6","172.84.188.3","Mozilla/5.0 (Windows NT 10.0; Win64; x64) AppleWebKit/537.36 (KHTML, like Gecko) Chrome/132.0.0.0 Safari/537.36","WebKit","Chrome","132.0.0.0","Windows","10.0","https://app.prolific.com/","en-US,en;q=0.9","65e0fc6b883b6a493d50e0a5","67949641171f97c04e14fb34","679c244fbd215cb22adc8870","","2598","","3","Intro Trial",""
"","","","","","html-button-response","9","88065","0.0-4.5-0.5-0.5","67","1","2025-01-31 01:31:58","af8d355d56820e421d246a7037deb6e6","172.84.188.3","Mozilla/5.0 (Windows NT 10.0; Win64; x64) AppleWebKit/537.36 (KHTML, like Gecko) Chrome/132.0.0.0 Safari/537.36","WebKit","Chrome","132.0.0.0","Windows","10.0","https://app.prolific.com/","en-US,en;q=0.9","65e0fc6b883b6a493d50e0a5","67949641171f97c04e14fb34","679c244fbd215cb22adc8870","","293","","2","Intro Trial",""
"","","","","","html-button-response","10","88966","0.0-4.6-0.6-0.6","67","1","2025-01-31 01:31:58","af8d355d56820e421d246a7037deb6e6","172.84.188.3","Mozilla/5.0 (Windows NT 10.0; Win64; x64) AppleWebKit/537.36 (KHTML, like Gecko) Chrome/132.0.0.0 Safari/537.36","WebKit","Chrome","132.0.0.0","Windows","10.0","https://app.prolific.com/","en-US,en;q=0.9","65e0fc6b883b6a493d50e0a5","67949641171f97c04e14fb34","679c244fbd215cb22adc8870","","897","","3","Intro Trial",""
"","","","","","html-button-response","11","89228","0.0-4.7-0.7-0.7","67","1","2025-01-31 01:31:58","af8d355d56820e421d246a7037deb6e6","172.84.188.3","Mozilla/5.0 (Windows NT 10.0; Win64; x64) AppleWebKit/537.36 (KHTML, like Gecko) Chrome/132.0.0.0 Safari/537.36","WebKit","Chrome","132.0.0.0","Windows","10.0","https://app.prolific.com/","en-US,en;q=0.9","65e0fc6b883b6a493d50e0a5","67949641171f97c04e14fb34","679c244fbd215cb22adc8870","","259","","2","Intro Trial",""
"","","","","","html-button-response","12","90123","0.0-4.8-0.8-0.8","67","1","2025-01-31 01:31:58","af8d355d56820e421d246a7037deb6e6","172.84.188.3","Mozilla/5.0 (Windows NT 10.0; Win64; x64) AppleWebKit/537.36 (KHTML, like Gecko) Chrome/132.0.0.0 Safari/537.36","WebKit","Chrome","132.0.0.0","Windows","10.0","https://app.prolific.com/","en-US,en;q=0.9","65e0fc6b883b6a493d50e0a5","67949641171f97c04e14fb34","679c244fbd215cb22adc8870","","893","","3","Intro Trial",""
"","","","","","html-button-response","13","90429","0.0-4.9-0.9-0.9","67","1","2025-01-31 01:31:58","af8d355d56820e421d246a7037deb6e6","172.84.188.3","Mozilla/5.0 (Windows NT 10.0; Win64; x64) AppleWebKit/537.36 (KHTML, like Gecko) Chrome/132.0.0.0 Safari/537.36","WebKit","Chrome","132.0.0.0","Windows","10.0","https://app.prolific.com/","en-US,en;q=0.9","65e0fc6b883b6a493d50e0a5","67949641171f97c04e14fb34","679c244fbd215cb22adc8870","","302","","2","Intro Trial",""
"","","","","","html-button-response","14","91431","0.0-4.10-0.10-0.10","67","1","2025-01-31 01:31:58","af8d355d56820e421d246a7037deb6e6","172.84.188.3","Mozilla/5.0 (Windows NT 10.0; Win64; x64) AppleWebKit/537.36 (KHTML, like Gecko) Chrome/132.0.0.0 Safari/537.36","WebKit","Chrome","132.0.0.0","Windows","10.0","https://app.prolific.com/","en-US,en;q=0.9","65e0fc6b883b6a493d50e0a5","67949641171f97c04e14fb34","679c244fbd215cb22adc8870","","998","","2","Intro Trial",""
"","","","","","html-button-response","15","91663","0.0-4.11-0.11-0.11","67","1","2025-01-31 01:31:58","af8d355d56820e421d246a7037deb6e6","172.84.188.3","Mozilla/5.0 (Windows NT 10.0; Win64; x64) AppleWebKit/537.36 (KHTML, like Gecko) Chrome/132.0.0.0 Safari/537.36","WebKit","Chrome","132.0.0.0","Windows","10.0","https://app.prolific.com/","en-US,en;q=0.9","65e0fc6b883b6a493d50e0a5","67949641171f97c04e14fb34","679c244fbd215cb22adc8870","","229","","3","Intro Trial",""
"","","","","","html-button-response","16","92398","0.0-4.12-0.12-0.12","67","1","2025-01-31 01:31:58","af8d355d56820e421d246a7037deb6e6","172.84.188.3","Mozilla/5.0 (Windows NT 10.0; Win64; x64) AppleWebKit/537.36 (KHTML, like Gecko) Chrome/132.0.0.0 Safari/537.36","WebKit","Chrome","132.0.0.0","Windows","10.0","https://app.prolific.com/","en-US,en;q=0.9","65e0fc6b883b6a493d50e0a5","67949641171f97c04e14fb34","679c244fbd215cb22adc8870","","731","","3","Intro Trial",""
"","","","","","html-button-response","17","92848","0.0-4.13-0.13-0.13","67","1","2025-01-31 01:31:58","af8d355d56820e421d246a7037deb6e6","172.84.188.3","Mozilla/5.0 (Windows NT 10.0; Win64; x64) AppleWebKit/537.36 (KHTML, like Gecko) Chrome/132.0.0.0 Safari/537.36","WebKit","Chrome","132.0.0.0","Windows","10.0","https://app.prolific.com/","en-US,en;q=0.9","65e0fc6b883b6a493d50e0a5","67949641171f97c04e14fb34","679c244fbd215cb22adc8870","","446","","4","Intro Trial",""
"","","","","","html-button-response","18","93092","0.0-4.14-0.14-0.14","67","1","2025-01-31 01:31:58","af8d355d56820e421d246a7037deb6e6","172.84.188.3","Mozilla/5.0 (Windows NT 10.0; Win64; x64) AppleWebKit/537.36 (KHTML, like Gecko) Chrome/132.0.0.0 Safari/537.36","WebKit","Chrome","132.0.0.0","Windows","10.0","https://app.prolific.com/","en-US,en;q=0.9","65e0fc6b883b6a493d50e0a5","67949641171f97c04e14fb34","679c244fbd215cb22adc8870","","240","","3","Intro Trial",""
"","","","","","html-button-response","19","95843","0.0-4.15-0.15-0.15","67","1","2025-01-31 01:31:58","af8d355d56820e421d246a7037deb6e6","172.84.188.3","Mozilla/5.0 (Windows NT 10.0; Win64; x64) AppleWebKit/537.36 (KHTML, like Gecko) Chrome/132.0.0.0 Safari/537.36","WebKit","Chrome","132.0.0.0","Windows","10.0","https://app.prolific.com/","en-US,en;q=0.9","65e0fc6b883b6a493d50e0a5","67949641171f97c04e14fb34","679c244fbd215cb22adc8870","","2749","","1","Intro Trial",""
"","","","","","html-button-response","20","96062","0.0-4.16-0.16-0.16","67","1","2025-01-31 01:31:58","af8d355d56820e421d246a7037deb6e6","172.84.188.3","Mozilla/5.0 (Windows NT 10.0; Win64; x64) AppleWebKit/537.36 (KHTML, like Gecko) Chrome/132.0.0.0 Safari/537.36","WebKit","Chrome","132.0.0.0","Windows","10.0","https://app.prolific.com/","en-US,en;q=0.9","65e0fc6b883b6a493d50e0a5","67949641171f97c04e14fb34","679c244fbd215cb22adc8870","","215","","0","Intro Trial",""
"","","","","","html-button-response","21","98485","0.0-4.17-0.17-0.17","67","1","2025-01-31 01:31:58","af8d355d56820e421d246a7037deb6e6","172.84.188.3","Mozilla/5.0 (Windows NT 10.0; Win64; x64) AppleWebKit/537.36 (KHTML, like Gecko) Chrome/132.0.0.0 Safari/537.36","WebKit","Chrome","132.0.0.0","Windows","10.0","https://app.prolific.com/","en-US,en;q=0.9","65e0fc6b883b6a493d50e0a5","67949641171f97c04e14fb34","679c244fbd215cb22adc8870","","2419","","1","Intro Trial",""
"","","","","","html-button-response","22","99791","0.0-4.18-0.18-0.18","67","1","2025-01-31 01:31:58","af8d355d56820e421d246a7037deb6e6","172.84.188.3","Mozilla/5.0 (Windows NT 10.0; Win64; x64) AppleWebKit/537.36 (KHTML, like Gecko) Chrome/132.0.0.0 Safari/537.36","WebKit","Chrome","132.0.0.0","Windows","10.0","https://app.prolific.com/","en-US,en;q=0.9","65e0fc6b883b6a493d50e0a5","67949641171f97c04e14fb34","679c244fbd215cb22adc8870","","1302","","2","Intro Trial",""
"","","","","","html-button-response","23","100243","0.0-4.19-0.19-0.19","67","1","2025-01-31 01:31:58","af8d355d56820e421d246a7037deb6e6","172.84.188.3","Mozilla/5.0 (Windows NT 10.0; Win64; x64) AppleWebKit/537.36 (KHTML, like Gecko) Chrome/132.0.0.0 Safari/537.36","WebKit","Chrome","132.0.0.0","Windows","10.0","https://app.prolific.com/","en-US,en;q=0.9","65e0fc6b883b6a493d50e0a5","67949641171f97c04e14fb34","679c244fbd215cb22adc8870","","447","","3","Intro Trial",""
"","","","","","html-button-response","24","102148","0.0-4.20-0.20-0.20","67","1","2025-01-31 01:31:58","af8d355d56820e421d246a7037deb6e6","172.84.188.3","Mozilla/5.0 (Windows NT 10.0; Win64; x64) AppleWebKit/537.36 (KHTML, like Gecko) Chrome/132.0.0.0 Safari/537.36","WebKit","Chrome","132.0.0.0","Windows","10.0","https://app.prolific.com/","en-US,en;q=0.9","65e0fc6b883b6a493d50e0a5","67949641171f97c04e14fb34","679c244fbd215cb22adc8870","","1902","","1","Intro Trial",""
"","","","","","html-button-response","25","102464","0.0-4.21-0.21-0.21","67","1","2025-01-31 01:31:58","af8d355d56820e421d246a7037deb6e6","172.84.188.3","Mozilla/5.0 (Windows NT 10.0; Win64; x64) AppleWebKit/537.36 (KHTML, like Gecko) Chrome/132.0.0.0 Safari/537.36","WebKit","Chrome","132.0.0.0","Windows","10.0","https://app.prolific.com/","en-US,en;q=0.9","65e0fc6b883b6a493d50e0a5","67949641171f97c04e14fb34","679c244fbd215cb22adc8870","","314","","2","Intro Trial",""
"","","","","","html-button-response","26","103209","0.0-4.22-0.22-0.22","67","1","2025-01-31 01:31:58","af8d355d56820e421d246a7037deb6e6","172.84.188.3","Mozilla/5.0 (Windows NT 10.0; Win64; x64) AppleWebKit/537.36 (KHTML, like Gecko) Chrome/132.0.0.0 Safari/537.36","WebKit","Chrome","132.0.0.0","Windows","10.0","https://app.prolific.com/","en-US,en;q=0.9","65e0fc6b883b6a493d50e0a5","67949641171f97c04e14fb34","679c244fbd215cb22adc8870","","741","","2","Intro Trial",""
"","","","","","html-button-response","27","103492","0.0-4.23-0.23-0.23","67","1","2025-01-31 01:31:58","af8d355d56820e421d246a7037deb6e6","172.84.188.3","Mozilla/5.0 (Windows NT 10.0; Win64; x64) AppleWebKit/537.36 (KHTML, like Gecko) Chrome/132.0.0.0 Safari/537.36","WebKit","Chrome","132.0.0.0","Windows","10.0","https://app.prolific.com/","en-US,en;q=0.9","65e0fc6b883b6a493d50e0a5","67949641171f97c04e14fb34","679c244fbd215cb22adc8870","","279","","1","Intro Trial",""
"","","","","","html-button-response","28","104470","0.0-4.24-0.24-0.24","67","1","2025-01-31 01:31:58","af8d355d56820e421d246a7037deb6e6","172.84.188.3","Mozilla/5.0 (Windows NT 10.0; Win64; x64) AppleWebKit/537.36 (KHTML, like Gecko) Chrome/132.0.0.0 Safari/537.36","WebKit","Chrome","132.0.0.0","Windows","10.0","https://app.prolific.com/","en-US,en;q=0.9","65e0fc6b883b6a493d50e0a5","67949641171f97c04e14fb34","679c244fbd215cb22adc8870","","974","","2","Intro Trial",""
"","","","","","html-button-response","29","104742","0.0-4.25-0.25-0.25","67","1","2025-01-31 01:31:58","af8d355d56820e421d246a7037deb6e6","172.84.188.3","Mozilla/5.0 (Windows NT 10.0; Win64; x64) AppleWebKit/537.36 (KHTML, like Gecko) Chrome/132.0.0.0 Safari/537.36","WebKit","Chrome","132.0.0.0","Windows","10.0","https://app.prolific.com/","en-US,en;q=0.9","65e0fc6b883b6a493d50e0a5","67949641171f97c04e14fb34","679c244fbd215cb22adc8870","","269","","1","Intro Trial",""
"","","","","","html-button-response","30","107122","0.0-4.26-0.26-0.26","67","1","2025-01-31 01:31:58","af8d355d56820e421d246a7037deb6e6","172.84.188.3","Mozilla/5.0 (Windows NT 10.0; Win64; x64) AppleWebKit/537.36 (KHTML, like Gecko) Chrome/132.0.0.0 Safari/537.36","WebKit","Chrome","132.0.0.0","Windows","10.0","https://app.prolific.com/","en-US,en;q=0.9","65e0fc6b883b6a493d50e0a5","67949641171f97c04e14fb34","679c244fbd215cb22adc8870","","2376","","4","Intro Trial",""
"","","","","","html-button-response","31","107393","0.0-4.27-0.27-0.27","67","1","2025-01-31 01:31:58","af8d355d56820e421d246a7037deb6e6","172.84.188.3","Mozilla/5.0 (Windows NT 10.0; Win64; x64) AppleWebKit/537.36 (KHTML, like Gecko) Chrome/132.0.0.0 Safari/537.36","WebKit","Chrome","132.0.0.0","Windows","10.0","https://app.prolific.com/","en-US,en;q=0.9","65e0fc6b883b6a493d50e0a5","67949641171f97c04e14fb34","679c244fbd215cb22adc8870","","266","","3","Intro Trial",""
"","","","","","html-button-response","32","108016","0.0-4.28-0.28-0.28","67","1","2025-01-31 01:31:58","af8d355d56820e421d246a7037deb6e6","172.84.188.3","Mozilla/5.0 (Windows NT 10.0; Win64; x64) AppleWebKit/537.36 (KHTML, like Gecko) Chrome/132.0.0.0 Safari/537.36","WebKit","Chrome","132.0.0.0","Windows","10.0","https://app.prolific.com/","en-US,en;q=0.9","65e0fc6b883b6a493d50e0a5","67949641171f97c04e14fb34","679c244fbd215cb22adc8870","","618","","3","Intro Trial",""
"","","","","","html-button-response","33","108322","0.0-4.29-0.29-0.29","67","1","2025-01-31 01:31:58","af8d355d56820e421d246a7037deb6e6","172.84.188.3","Mozilla/5.0 (Windows NT 10.0; Win64; x64) AppleWebKit/537.36 (KHTML, like Gecko) Chrome/132.0.0.0 Safari/537.36","WebKit","Chrome","132.0.0.0","Windows","10.0","https://app.prolific.com/","en-US,en;q=0.9","65e0fc6b883b6a493d50e0a5","67949641171f97c04e14fb34","679c244fbd215cb22adc8870","","301","","4","Intro Trial",""
"","","","","","html-button-response","34","109367","0.0-4.30-0.30-0.30","67","1","2025-01-31 01:31:58","af8d355d56820e421d246a7037deb6e6","172.84.188.3","Mozilla/5.0 (Windows NT 10.0; Win64; x64) AppleWebKit/537.36 (KHTML, like Gecko) Chrome/132.0.0.0 Safari/537.36","WebKit","Chrome","132.0.0.0","Windows","10.0","https://app.prolific.com/","en-US,en;q=0.9","65e0fc6b883b6a493d50e0a5","67949641171f97c04e14fb34","679c244fbd215cb22adc8870","","1039","","0","Intro Trial",""
"","","","","","html-button-response","35","109659","0.0-4.31-0.31-0.31","67","1","2025-01-31 01:31:58","af8d355d56820e421d246a7037deb6e6","172.84.188.3","Mozilla/5.0 (Windows NT 10.0; Win64; x64) AppleWebKit/537.36 (KHTML, like Gecko) Chrome/132.0.0.0 Safari/537.36","WebKit","Chrome","132.0.0.0","Windows","10.0","https://app.prolific.com/","en-US,en;q=0.9","65e0fc6b883b6a493d50e0a5","67949641171f97c04e14fb34","679c244fbd215cb22adc8870","","288","","1","Intro Trial",""
"","","","","","html-button-response","36","110919","0.0-4.32-0.32-0.32","67","1","2025-01-31 01:31:58","af8d355d56820e421d246a7037deb6e6","172.84.188.3","Mozilla/5.0 (Windows NT 10.0; Win64; x64) AppleWebKit/537.36 (KHTML, like Gecko) Chrome/132.0.0.0 Safari/537.36","WebKit","Chrome","132.0.0.0","Windows","10.0","https://app.prolific.com/","en-US,en;q=0.9","65e0fc6b883b6a493d50e0a5","67949641171f97c04e14fb34","679c244fbd215cb22adc8870","","1257","","5","Intro Trial",""
"","","","","","html-keyboard-response","37","128853","0.0-5.0","67","1","2025-01-31 01:31:58","af8d355d56820e421d246a7037deb6e6","172.84.188.3","Mozilla/5.0 (Windows NT 10.0; Win64; x64) AppleWebKit/537.36 (KHTML, like Gecko) Chrome/132.0.0.0 Safari/537.36","WebKit","Chrome","132.0.0.0","Windows","10.0","https://app.prolific.com/","en-US,en;q=0.9","65e0fc6b883b6a493d50e0a5","67949641171f97c04e14fb34","679c244fbd215cb22adc8870","","17928","[""You sorted correctly by using the balance 16 times. <br><br> <img src='G_5.jpg' height='90'><img src='G_2.jpg' height='90'><img src='G_3.jpg' height='90'><img src='G_1.jpg' height='90'><img src='G_4.jpg' height='90'><br><br> Your final order is 1,2,3,4,5<br><br><br>Omgne Sort in this game will allow you to sort correctly by using the balance 8 times. Press Enter to learn it!""]","enter","",""
"","","","","","html-keyboard-response","38","133843","0.0-6.0","67","1","2025-01-31 01:31:58","af8d355d56820e421d246a7037deb6e6","172.84.188.3","Mozilla/5.0 (Windows NT 10.0; Win64; x64) AppleWebKit/537.36 (KHTML, like Gecko) Chrome/132.0.0.0 Safari/537.36","WebKit","Chrome","132.0.0.0","Windows","10.0","https://app.prolific.com/","en-US,en;q=0.9","65e0fc6b883b6a493d50e0a5","67949641171f97c04e14fb34","679c244fbd215cb22adc8870","","4987","<p>Welcome to the learning phase! <br><br> You will learn by six examples. The following learning trials will not be used to calculate your performance. <br><br> Press Enter to continue.<p/>","enter","",""
"","","","","","html-keyboard-response","39","139051","0.0-7.0","67","1","2025-01-31 01:31:58","af8d355d56820e421d246a7037deb6e6","172.84.188.3","Mozilla/5.0 (Windows NT 10.0; Win64; x64) AppleWebKit/537.36 (KHTML, like Gecko) Chrome/132.0.0.0 Safari/537.36","WebKit","Chrome","132.0.0.0","Windows","10.0","https://app.prolific.com/","en-US,en;q=0.9","65e0fc6b883b6a493d50e0a5","67949641171f97c04e14fb34","679c244fbd215cb22adc8870","","5205","[""Example 1<br><br>You will watch Omnge Sort in action. Try to identify any patterns in the comparisons made by this method. <br><br>Press Enter to continue.""]","enter","",""
"","","","","","html-keyboard-response","40","139555","0.0-8.0","67","1","2025-01-31 01:31:58","af8d355d56820e421d246a7037deb6e6","172.84.188.3","Mozilla/5.0 (Windows NT 10.0; Win64; x64) AppleWebKit/537.36 (KHTML, like Gecko) Chrome/132.0.0.0 Safari/537.36","WebKit","Chrome","132.0.0.0","Windows","10.0","https://app.prolific.com/","en-US,en;q=0.9","65e0fc6b883b6a493d50e0a5","67949641171f97c04e14fb34","679c244fbd215cb22adc8870","","null","<img id='selected' src='G_3.jpg' height='90'> <img src='G_9.jpg' height='90'> <img src='G_5.jpg' height='90'> <img src='G_1.jpg' height='90'> <img src='G_7.jpg' height='90'>","null","Animation0",""
"","","","","","html-keyboard-response","41","140069","0.0-9.0","67","1","2025-01-31 01:31:58","af8d355d56820e421d246a7037deb6e6","172.84.188.3","Mozilla/5.0 (Windows NT 10.0; Win64; x64) AppleWebKit/537.36 (KHTML, like Gecko) Chrome/132.0.0.0 Safari/537.36","WebKit","Chrome","132.0.0.0","Windows","10.0","https://app.prolific.com/","en-US,en;q=0.9","65e0fc6b883b6a493d50e0a5","67949641171f97c04e14fb34","679c244fbd215cb22adc8870","","null","<img id='selected' src='G_3.jpg' height='90'> <img id='selected' src='G_9.jpg' height='90'> <img src='G_5.jpg' height='90'> <img src='G_1.jpg' height='90'> <img src='G_7.jpg' height='90'>","null","Animation0",""
"","","","","","html-keyboard-response","42","140580","0.0-10.0","67","1","2025-01-31 01:31:58","af8d355d56820e421d246a7037deb6e6","172.84.188.3","Mozilla/5.0 (Windows NT 10.0; Win64; x64) AppleWebKit/537.36 (KHTML, like Gecko) Chrome/132.0.0.0 Safari/537.36","WebKit","Chrome","132.0.0.0","Windows","10.0","https://app.prolific.com/","en-US,en;q=0.9","65e0fc6b883b6a493d50e0a5","67949641171f97c04e14fb34","679c244fbd215cb22adc8870","","null","<img id='swapped' src='G_9.jpg' height='90'> <img id='swapped' src='G_3.jpg' height='90'> <img src='G_5.jpg' height='90'> <img src='G_1.jpg' height='90'> <img src='G_7.jpg' height='90'>","null","Animation0",""
"","","","","","html-keyboard-response","43","140892","0.0-11.0","67","1","2025-01-31 01:31:58","af8d355d56820e421d246a7037deb6e6","172.84.188.3","Mozilla/5.0 (Windows NT 10.0; Win64; x64) AppleWebKit/537.36 (KHTML, like Gecko) Chrome/132.0.0.0 Safari/537.36","WebKit","Chrome","132.0.0.0","Windows","10.0","https://app.prolific.com/","en-US,en;q=0.9","65e0fc6b883b6a493d50e0a5","67949641171f97c04e14fb34","679c244fbd215cb22adc8870","","null","<img  src='G_9.jpg' height='90'> <img  src='G_3.jpg' height='90'> <img src='G_5.jpg' height='90'> <img src='G_1.jpg' height='90'> <img src='G_7.jpg' height='90'>","null","Animation0",""
"","","","","","html-keyboard-response","44","141402","0.0-12.0","67","1","2025-01-31 01:31:58","af8d355d56820e421d246a7037deb6e6","172.84.188.3","Mozilla/5.0 (Windows NT 10.0; Win64; x64) AppleWebKit/537.36 (KHTML, like Gecko) Chrome/132.0.0.0 Safari/537.36","WebKit","Chrome","132.0.0.0","Windows","10.0","https://app.prolific.com/","en-US,en;q=0.9","65e0fc6b883b6a493d50e0a5","67949641171f97c04e14fb34","679c244fbd215cb22adc8870","","null","<img  src='G_9.jpg' height='90'> <img id='selected'  src='G_3.jpg' height='90'> <img src='G_5.jpg' height='90'> <img src='G_1.jpg' height='90'> <img src='G_7.jpg' height='90'>","null","Animation0",""
"","","","","","html-keyboard-response","45","141914","0.0-13.0","67","1","2025-01-31 01:31:58","af8d355d56820e421d246a7037deb6e6","172.84.188.3","Mozilla/5.0 (Windows NT 10.0; Win64; x64) AppleWebKit/537.36 (KHTML, like Gecko) Chrome/132.0.0.0 Safari/537.36","WebKit","Chrome","132.0.0.0","Windows","10.0","https://app.prolific.com/","en-US,en;q=0.9","65e0fc6b883b6a493d50e0a5","67949641171f97c04e14fb34","679c244fbd215cb22adc8870","","null","<img  src='G_9.jpg' height='90'> <img id='selected'  src='G_3.jpg' height='90'> <img id='selected' src='G_5.jpg' height='90'> <img src='G_1.jpg' height='90'> <img src='G_7.jpg' height='90'>","null","Animation0",""
"","","","","","html-keyboard-response","46","142432","0.0-14.0","67","1","2025-01-31 01:31:58","af8d355d56820e421d246a7037deb6e6","172.84.188.3","Mozilla/5.0 (Windows NT 10.0; Win64; x64) AppleWebKit/537.36 (KHTML, like Gecko) Chrome/132.0.0.0 Safari/537.36","WebKit","Chrome","132.0.0.0","Windows","10.0","https://app.prolific.com/","en-US,en;q=0.9","65e0fc6b883b6a493d50e0a5","67949641171f97c04e14fb34","679c244fbd215cb22adc8870","","null","<img  src='G_9.jpg' height='90'> <img id='selected'  src='G_3.jpg' height='90'> <img id='selected' src='G_5.jpg' height='90'> <img src='G_1.jpg' height='90'> <img src='G_7.jpg' height='90'>","null","Animation0",""
"","","","","","html-keyboard-response","47","142750","0.0-15.0","67","1","2025-01-31 01:31:58","af8d355d56820e421d246a7037deb6e6","172.84.188.3","Mozilla/5.0 (Windows NT 10.0; Win64; x64) AppleWebKit/537.36 (KHTML, like Gecko) Chrome/132.0.0.0 Safari/537.36","WebKit","Chrome","132.0.0.0","Windows","10.0","https://app.prolific.com/","en-US,en;q=0.9","65e0fc6b883b6a493d50e0a5","67949641171f97c04e14fb34","679c244fbd215cb22adc8870","","null","<img  src='G_9.jpg' height='90'> <img   src='G_3.jpg' height='90'> <img  src='G_5.jpg' height='90'> <img src='G_1.jpg' height='90'> <img src='G_7.jpg' height='90'>","null","Animation0",""
"","","","","","html-keyboard-response","48","143265","0.0-16.0","67","1","2025-01-31 01:31:58","af8d355d56820e421d246a7037deb6e6","172.84.188.3","Mozilla/5.0 (Windows NT 10.0; Win64; x64) AppleWebKit/537.36 (KHTML, like Gecko) Chrome/132.0.0.0 Safari/537.36","WebKit","Chrome","132.0.0.0","Windows","10.0","https://app.prolific.com/","en-US,en;q=0.9","65e0fc6b883b6a493d50e0a5","67949641171f97c04e14fb34","679c244fbd215cb22adc8870","","null","<img  src='G_9.jpg' height='90'> <img   src='G_3.jpg' height='90'> <img id='selected'  src='G_5.jpg' height='90'> <img src='G_1.jpg' height='90'> <img src='G_7.jpg' height='90'>","null","Animation0",""
"","","","","","html-keyboard-response","49","143773","0.0-17.0","67","1","2025-01-31 01:31:58","af8d355d56820e421d246a7037deb6e6","172.84.188.3","Mozilla/5.0 (Windows NT 10.0; Win64; x64) AppleWebKit/537.36 (KHTML, like Gecko) Chrome/132.0.0.0 Safari/537.36","WebKit","Chrome","132.0.0.0","Windows","10.0","https://app.prolific.com/","en-US,en;q=0.9","65e0fc6b883b6a493d50e0a5","67949641171f97c04e14fb34","679c244fbd215cb22adc8870","","null","<img  src='G_9.jpg' height='90'> <img   src='G_3.jpg' height='90'> <img id='selected'  src='G_5.jpg' height='90'> <img id='selected' src='G_1.jpg' height='90'> <img src='G_7.jpg' height='90'>","null","Animation0",""
"","","","","","html-keyboard-response","50","144283","0.0-18.0","67","1","2025-01-31 01:31:58","af8d355d56820e421d246a7037deb6e6","172.84.188.3","Mozilla/5.0 (Windows NT 10.0; Win64; x64) AppleWebKit/537.36 (KHTML, like Gecko) Chrome/132.0.0.0 Safari/537.36","WebKit","Chrome","132.0.0.0","Windows","10.0","https://app.prolific.com/","en-US,en;q=0.9","65e0fc6b883b6a493d50e0a5","67949641171f97c04e14fb34","679c244fbd215cb22adc8870","","null","<img  src='G_9.jpg' height='90'> <img   src='G_3.jpg' height='90'> <img id='selected'  src='G_5.jpg' height='90'> <img id='selected' src='G_1.jpg' height='90'> <img src='G_7.jpg' height='90'>","null","Animation0",""
"","","","","","html-keyboard-response","51","144588","0.0-19.0","67","1","2025-01-31 01:31:58","af8d355d56820e421d246a7037deb6e6","172.84.188.3","Mozilla/5.0 (Windows NT 10.0; Win64; x64) AppleWebKit/537.36 (KHTML, like Gecko) Chrome/132.0.0.0 Safari/537.36","WebKit","Chrome","132.0.0.0","Windows","10.0","https://app.prolific.com/","en-US,en;q=0.9","65e0fc6b883b6a493d50e0a5","67949641171f97c04e14fb34","679c244fbd215cb22adc8870","","null","<img  src='G_9.jpg' height='90'> <img   src='G_3.jpg' height='90'> <img   src='G_5.jpg' height='90'> <img  src='G_1.jpg' height='90'> <img src='G_7.jpg' height='90'>","null","Animation0",""
"","","","","","html-keyboard-response","52","145103","0.0-20.0","67","1","2025-01-31 01:31:58","af8d355d56820e421d246a7037deb6e6","172.84.188.3","Mozilla/5.0 (Windows NT 10.0; Win64; x64) AppleWebKit/537.36 (KHTML, like Gecko) Chrome/132.0.0.0 Safari/537.36","WebKit","Chrome","132.0.0.0","Windows","10.0","https://app.prolific.com/","en-US,en;q=0.9","65e0fc6b883b6a493d50e0a5","67949641171f97c04e14fb34","679c244fbd215cb22adc8870","","null","<img  src='G_9.jpg' height='90'> <img   src='G_3.jpg' height='90'> <img   src='G_5.jpg' height='90'> <img id='selected'  src='G_1.jpg' height='90'> <img src='G_7.jpg' height='90'>","null","Animation0",""
"","","","","","html-keyboard-response","53","145608","0.0-21.0","67","1","2025-01-31 01:31:58","af8d355d56820e421d246a7037deb6e6","172.84.188.3","Mozilla/5.0 (Windows NT 10.0; Win64; x64) AppleWebKit/537.36 (KHTML, like Gecko) Chrome/132.0.0.0 Safari/537.36","WebKit","Chrome","132.0.0.0","Windows","10.0","https://app.prolific.com/","en-US,en;q=0.9","65e0fc6b883b6a493d50e0a5","67949641171f97c04e14fb34","679c244fbd215cb22adc8870","","null","<img  src='G_9.jpg' height='90'> <img   src='G_3.jpg' height='90'> <img   src='G_5.jpg' height='90'> <img id='selected'  src='G_1.jpg' height='90'> <img id='selected' src='G_7.jpg' height='90'>","null","Animation0",""
"","","","","","html-keyboard-response","54","146117","0.0-22.0","67","1","2025-01-31 01:31:58","af8d355d56820e421d246a7037deb6e6","172.84.188.3","Mozilla/5.0 (Windows NT 10.0; Win64; x64) AppleWebKit/537.36 (KHTML, like Gecko) Chrome/132.0.0.0 Safari/537.36","WebKit","Chrome","132.0.0.0","Windows","10.0","https://app.prolific.com/","en-US,en;q=0.9","65e0fc6b883b6a493d50e0a5","67949641171f97c04e14fb34","679c244fbd215cb22adc8870","","null","<img  src='G_9.jpg' height='90'> <img   src='G_3.jpg' height='90'> <img   src='G_5.jpg' height='90'> <img id='selected'  src='G_1.jpg' height='90'> <img id='selected' src='G_7.jpg' height='90'>","null","Animation0",""
"","","","","","html-keyboard-response","55","146436","0.0-23.0","67","1","2025-01-31 01:31:58","af8d355d56820e421d246a7037deb6e6","172.84.188.3","Mozilla/5.0 (Windows NT 10.0; Win64; x64) AppleWebKit/537.36 (KHTML, like Gecko) Chrome/132.0.0.0 Safari/537.36","WebKit","Chrome","132.0.0.0","Windows","10.0","https://app.prolific.com/","en-US,en;q=0.9","65e0fc6b883b6a493d50e0a5","67949641171f97c04e14fb34","679c244fbd215cb22adc8870","","null","<img  src='G_9.jpg' height='90'> <img   src='G_3.jpg' height='90'> <img   src='G_5.jpg' height='90'> <img   src='G_1.jpg' height='90'> <img  src='G_7.jpg' height='90'>","null","Animation0",""
"","","","","","html-keyboard-response","56","150022","0.0-24.0","67","1","2025-01-31 01:31:58","af8d355d56820e421d246a7037deb6e6","172.84.188.3","Mozilla/5.0 (Windows NT 10.0; Win64; x64) AppleWebKit/537.36 (KHTML, like Gecko) Chrome/132.0.0.0 Safari/537.36","WebKit","Chrome","132.0.0.0","Windows","10.0","https://app.prolific.com/","en-US,en;q=0.9","65e0fc6b883b6a493d50e0a5","67949641171f97c04e14fb34","679c244fbd215cb22adc8870","","3584","[""Did you notice any patterns? <br><br>Press Enter to watch that example again and follow the steps of Omgne Sort.""]","enter","",""
"","","","","","html-button-response","57","150431","0.0-25.0","67","1","2025-01-31 01:31:58","af8d355d56820e421d246a7037deb6e6","172.84.188.3","Mozilla/5.0 (Windows NT 10.0; Win64; x64) AppleWebKit/537.36 (KHTML, like Gecko) Chrome/132.0.0.0 Safari/537.36","WebKit","Chrome","132.0.0.0","Windows","10.0","https://app.prolific.com/","en-US,en;q=0.9","65e0fc6b883b6a493d50e0a5","67949641171f97c04e14fb34","679c244fbd215cb22adc8870","","null","<img id='selected' src='G_3.jpg' height='90'> <img src='G_9.jpg' height='90'> <img src='G_5.jpg' height='90'> <img src='G_1.jpg' height='90'> <img src='G_7.jpg' height='90'>","null","Learning example 0",""
"","","","","","html-button-response","58","150739","0.0-26.0","67","1","2025-01-31 01:31:58","af8d355d56820e421d246a7037deb6e6","172.84.188.3","Mozilla/5.0 (Windows NT 10.0; Win64; x64) AppleWebKit/537.36 (KHTML, like Gecko) Chrome/132.0.0.0 Safari/537.36","WebKit","Chrome","132.0.0.0","Windows","10.0","https://app.prolific.com/","en-US,en;q=0.9","65e0fc6b883b6a493d50e0a5","67949641171f97c04e14fb34","679c244fbd215cb22adc8870","","null","<img id='selected' src='G_3.jpg' height='90'> <img id='selected' src='G_9.jpg' height='90'> <img src='G_5.jpg' height='90'> <img src='G_1.jpg' height='90'> <img src='G_7.jpg' height='90'>","null","Learning example 0",""
"","","","","","html-button-response","59","151050","0.0-27.0","67","1","2025-01-31 01:31:58","af8d355d56820e421d246a7037deb6e6","172.84.188.3","Mozilla/5.0 (Windows NT 10.0; Win64; x64) AppleWebKit/537.36 (KHTML, like Gecko) Chrome/132.0.0.0 Safari/537.36","WebKit","Chrome","132.0.0.0","Windows","10.0","https://app.prolific.com/","en-US,en;q=0.9","65e0fc6b883b6a493d50e0a5","67949641171f97c04e14fb34","679c244fbd215cb22adc8870","","null","<img id='swapped' src='G_9.jpg' height='90'> <img id='swapped' src='G_3.jpg' height='90'> <img src='G_5.jpg' height='90'> <img src='G_1.jpg' height='90'> <img src='G_7.jpg' height='90'>","null","Learning example 0",""
"","","","","","html-button-response","60","208142","0.0-28.0-0.0-0.0","67","1","2025-01-31 01:31:58","af8d355d56820e421d246a7037deb6e6","172.84.188.3","Mozilla/5.0 (Windows NT 10.0; Win64; x64) AppleWebKit/537.36 (KHTML, like Gecko) Chrome/132.0.0.0 Safari/537.36","WebKit","Chrome","132.0.0.0","Windows","10.0","https://app.prolific.com/","en-US,en;q=0.9","65e0fc6b883b6a493d50e0a5","67949641171f97c04e14fb34","679c244fbd215cb22adc8870","","57086","<img id='swapped' src='G_9.jpg' height='90'> <img id='swapped' src='G_3.jpg' height='90'> <img src='G_5.jpg' height='90'> <img src='G_1.jpg' height='90'> <img src='G_7.jpg' height='90'>","0","Learning example 0",""
"","","","","","html-button-response","61","208505","0.0-28.1-0.1-0.1","67","1","2025-01-31 01:31:58","af8d355d56820e421d246a7037deb6e6","172.84.188.3","Mozilla/5.0 (Windows NT 10.0; Win64; x64) AppleWebKit/537.36 (KHTML, like Gecko) Chrome/132.0.0.0 Safari/537.36","WebKit","Chrome","132.0.0.0","Windows","10.0","https://app.prolific.com/","en-US,en;q=0.9","65e0fc6b883b6a493d50e0a5","67949641171f97c04e14fb34","679c244fbd215cb22adc8870","","357","<img id='swapped' src='G_9.jpg' height='90'> <img id='swapped' src='G_3.jpg' height='90'> <img src='G_5.jpg' height='90'> <img src='G_1.jpg' height='90'> <img src='G_7.jpg' height='90'>","1","Learning example 0",""
"","","","","","html-button-response","62","208712","0.0-29.0","67","1","2025-01-31 01:31:58","af8d355d56820e421d246a7037deb6e6","172.84.188.3","Mozilla/5.0 (Windows NT 10.0; Win64; x64) AppleWebKit/537.36 (KHTML, like Gecko) Chrome/132.0.0.0 Safari/537.36","WebKit","Chrome","132.0.0.0","Windows","10.0","https://app.prolific.com/","en-US,en;q=0.9","65e0fc6b883b6a493d50e0a5","67949641171f97c04e14fb34","679c244fbd215cb22adc8870","","null","<img  src='G_9.jpg' height='90'> <img  src='G_3.jpg' height='90'> <img src='G_5.jpg' height='90'> <img src='G_1.jpg' height='90'> <img src='G_7.jpg' height='90'>","null","Learning example 0",""
"","","","","","html-button-response","63","209126","0.0-30.0","67","1","2025-01-31 01:31:58","af8d355d56820e421d246a7037deb6e6","172.84.188.3","Mozilla/5.0 (Windows NT 10.0; Win64; x64) AppleWebKit/537.36 (KHTML, like Gecko) Chrome/132.0.0.0 Safari/537.36","WebKit","Chrome","132.0.0.0","Windows","10.0","https://app.prolific.com/","en-US,en;q=0.9","65e0fc6b883b6a493d50e0a5","67949641171f97c04e14fb34","679c244fbd215cb22adc8870","","null","<img  src='G_9.jpg' height='90'> <img id='selected'  src='G_3.jpg' height='90'> <img src='G_5.jpg' height='90'> <img src='G_1.jpg' height='90'> <img src='G_7.jpg' height='90'>","null","Learning example 0",""
"","","","","","html-button-response","64","209440","0.0-31.0","67","1","2025-01-31 01:31:58","af8d355d56820e421d246a7037deb6e6","172.84.188.3","Mozilla/5.0 (Windows NT 10.0; Win64; x64) AppleWebKit/537.36 (KHTML, like Gecko) Chrome/132.0.0.0 Safari/537.36","WebKit","Chrome","132.0.0.0","Windows","10.0","https://app.prolific.com/","en-US,en;q=0.9","65e0fc6b883b6a493d50e0a5","67949641171f97c04e14fb34","679c244fbd215cb22adc8870","","null","<img  src='G_9.jpg' height='90'> <img id='selected'  src='G_3.jpg' height='90'> <img id='selected' src='G_5.jpg' height='90'> <img src='G_1.jpg' height='90'> <img src='G_7.jpg' height='90'>","null","Learning example 0",""
"","","","","","html-button-response","65","209758","0.0-32.0","67","1","2025-01-31 01:31:58","af8d355d56820e421d246a7037deb6e6","172.84.188.3","Mozilla/5.0 (Windows NT 10.0; Win64; x64) AppleWebKit/537.36 (KHTML, like Gecko) Chrome/132.0.0.0 Safari/537.36","WebKit","Chrome","132.0.0.0","Windows","10.0","https://app.prolific.com/","en-US,en;q=0.9","65e0fc6b883b6a493d50e0a5","67949641171f97c04e14fb34","679c244fbd215cb22adc8870","","null","<img  src='G_9.jpg' height='90'> <img id='selected'  src='G_3.jpg' height='90'> <img id='selected' src='G_5.jpg' height='90'> <img src='G_1.jpg' height='90'> <img src='G_7.jpg' height='90'>","null","Learning example 0",""
"","","","","","html-button-response","66","215007","0.0-33.0-0.0-0.0","67","1","2025-01-31 01:31:58","af8d355d56820e421d246a7037deb6e6","172.84.188.3","Mozilla/5.0 (Windows NT 10.0; Win64; x64) AppleWebKit/537.36 (KHTML, like Gecko) Chrome/132.0.0.0 Safari/537.36","WebKit","Chrome","132.0.0.0","Windows","10.0","https://app.prolific.com/","en-US,en;q=0.9","65e0fc6b883b6a493d50e0a5","67949641171f97c04e14fb34","679c244fbd215cb22adc8870","","5244","<img  src='G_9.jpg' height='90'> <img id='selected'  src='G_3.jpg' height='90'> <img id='selected' src='G_5.jpg' height='90'> <img src='G_1.jpg' height='90'> <img src='G_7.jpg' height='90'>","3","Learning example 0",""
"","","","","","html-button-response","67","215324","0.0-33.1-0.1-0.1","67","1","2025-01-31 01:31:58","af8d355d56820e421d246a7037deb6e6","172.84.188.3","Mozilla/5.0 (Windows NT 10.0; Win64; x64) AppleWebKit/537.36 (KHTML, like Gecko) Chrome/132.0.0.0 Safari/537.36","WebKit","Chrome","132.0.0.0","Windows","10.0","https://app.prolific.com/","en-US,en;q=0.9","65e0fc6b883b6a493d50e0a5","67949641171f97c04e14fb34","679c244fbd215cb22adc8870","","310","<img  src='G_9.jpg' height='90'> <img id='selected'  src='G_3.jpg' height='90'> <img id='selected' src='G_5.jpg' height='90'> <img src='G_1.jpg' height='90'> <img src='G_7.jpg' height='90'>","2","Learning example 0",""
"","","","","","html-button-response","68","217168","0.0-33.2-0.2-0.2","67","1","2025-01-31 01:31:58","af8d355d56820e421d246a7037deb6e6","172.84.188.3","Mozilla/5.0 (Windows NT 10.0; Win64; x64) AppleWebKit/537.36 (KHTML, like Gecko) Chrome/132.0.0.0 Safari/537.36","WebKit","Chrome","132.0.0.0","Windows","10.0","https://app.prolific.com/","en-US,en;q=0.9","65e0fc6b883b6a493d50e0a5","67949641171f97c04e14fb34","679c244fbd215cb22adc8870","","1838","<img  src='G_9.jpg' height='90'> <img id='selected'  src='G_3.jpg' height='90'> <img id='selected' src='G_5.jpg' height='90'> <img src='G_1.jpg' height='90'> <img src='G_7.jpg' height='90'>","3","Learning example 0",""
"","","","","","html-button-response","69","218044","0.0-33.3-0.3-0.3","67","1","2025-01-31 01:31:58","af8d355d56820e421d246a7037deb6e6","172.84.188.3","Mozilla/5.0 (Windows NT 10.0; Win64; x64) AppleWebKit/537.36 (KHTML, like Gecko) Chrome/132.0.0.0 Safari/537.36","WebKit","Chrome","132.0.0.0","Windows","10.0","https://app.prolific.com/","en-US,en;q=0.9","65e0fc6b883b6a493d50e0a5","67949641171f97c04e14fb34","679c244fbd215cb22adc8870","","869","<img  src='G_9.jpg' height='90'> <img id='selected'  src='G_3.jpg' height='90'> <img id='selected' src='G_5.jpg' height='90'> <img src='G_1.jpg' height='90'> <img src='G_7.jpg' height='90'>","4","Learning example 0",""
"","","","","","html-button-response","70","219265","0.0-33.4-0.4-0.4","67","1","2025-01-31 01:31:58","af8d355d56820e421d246a7037deb6e6","172.84.188.3","Mozilla/5.0 (Windows NT 10.0; Win64; x64) AppleWebKit/537.36 (KHTML, like Gecko) Chrome/132.0.0.0 Safari/537.36","WebKit","Chrome","132.0.0.0","Windows","10.0","https://app.prolific.com/","en-US,en;q=0.9","65e0fc6b883b6a493d50e0a5","67949641171f97c04e14fb34","679c244fbd215cb22adc8870","","1214","<img  src='G_9.jpg' height='90'> <img id='selected'  src='G_3.jpg' height='90'> <img id='selected' src='G_5.jpg' height='90'> <img src='G_1.jpg' height='90'> <img src='G_7.jpg' height='90'>","4","Learning example 0",""
"","","","","","html-button-response","71","219535","0.0-33.5-0.5-0.5","67","1","2025-01-31 01:31:58","af8d355d56820e421d246a7037deb6e6","172.84.188.3","Mozilla/5.0 (Windows NT 10.0; Win64; x64) AppleWebKit/537.36 (KHTML, like Gecko) Chrome/132.0.0.0 Safari/537.36","WebKit","Chrome","132.0.0.0","Windows","10.0","https://app.prolific.com/","en-US,en;q=0.9","65e0fc6b883b6a493d50e0a5","67949641171f97c04e14fb34","679c244fbd215cb22adc8870","","264","<img  src='G_9.jpg' height='90'> <img id='selected'  src='G_3.jpg' height='90'> <img id='selected' src='G_5.jpg' height='90'> <img src='G_1.jpg' height='90'> <img src='G_7.jpg' height='90'>","3","Learning example 0",""
"","","","","","html-button-response","72","220219","0.0-33.6-0.6-0.6","67","1","2025-01-31 01:31:58","af8d355d56820e421d246a7037deb6e6","172.84.188.3","Mozilla/5.0 (Windows NT 10.0; Win64; x64) AppleWebKit/537.36 (KHTML, like Gecko) Chrome/132.0.0.0 Safari/537.36","WebKit","Chrome","132.0.0.0","Windows","10.0","https://app.prolific.com/","en-US,en;q=0.9","65e0fc6b883b6a493d50e0a5","67949641171f97c04e14fb34","679c244fbd215cb22adc8870","","677","<img  src='G_9.jpg' height='90'> <img id='selected'  src='G_3.jpg' height='90'> <img id='selected' src='G_5.jpg' height='90'> <img src='G_1.jpg' height='90'> <img src='G_7.jpg' height='90'>","1","Learning example 0",""
"","","","","","html-button-response","73","222080","0.0-33.7-0.7-0.7","67","1","2025-01-31 01:31:58","af8d355d56820e421d246a7037deb6e6","172.84.188.3","Mozilla/5.0 (Windows NT 10.0; Win64; x64) AppleWebKit/537.36 (KHTML, like Gecko) Chrome/132.0.0.0 Safari/537.36","WebKit","Chrome","132.0.0.0","Windows","10.0","https://app.prolific.com/","en-US,en;q=0.9","65e0fc6b883b6a493d50e0a5","67949641171f97c04e14fb34","679c244fbd215cb22adc8870","","1855","<img  src='G_9.jpg' height='90'> <img id='selected'  src='G_3.jpg' height='90'> <img id='selected' src='G_5.jpg' height='90'> <img src='G_1.jpg' height='90'> <img src='G_7.jpg' height='90'>","0","Learning example 0",""
"","","","","","html-button-response","74","222996","0.0-33.8-0.8-0.8","67","1","2025-01-31 01:31:58","af8d355d56820e421d246a7037deb6e6","172.84.188.3","Mozilla/5.0 (Windows NT 10.0; Win64; x64) AppleWebKit/537.36 (KHTML, like Gecko) Chrome/132.0.0.0 Safari/537.36","WebKit","Chrome","132.0.0.0","Windows","10.0","https://app.prolific.com/","en-US,en;q=0.9","65e0fc6b883b6a493d50e0a5","67949641171f97c04e14fb34","679c244fbd215cb22adc8870","","908","<img  src='G_9.jpg' height='90'> <img id='selected'  src='G_3.jpg' height='90'> <img id='selected' src='G_5.jpg' height='90'> <img src='G_1.jpg' height='90'> <img src='G_7.jpg' height='90'>","0","Learning example 0",""
"","","","","","html-button-response","75","223265","0.0-33.9-0.9-0.9","67","1","2025-01-31 01:31:58","af8d355d56820e421d246a7037deb6e6","172.84.188.3","Mozilla/5.0 (Windows NT 10.0; Win64; x64) AppleWebKit/537.36 (KHTML, like Gecko) Chrome/132.0.0.0 Safari/537.36","WebKit","Chrome","132.0.0.0","Windows","10.0","https://app.prolific.com/","en-US,en;q=0.9","65e0fc6b883b6a493d50e0a5","67949641171f97c04e14fb34","679c244fbd215cb22adc8870","","265","<img  src='G_9.jpg' height='90'> <img id='selected'  src='G_3.jpg' height='90'> <img id='selected' src='G_5.jpg' height='90'> <img src='G_1.jpg' height='90'> <img src='G_7.jpg' height='90'>","1","Learning example 0",""
"","","","","","html-button-response","76","223822","0.0-33.10-0.10-0.10","67","1","2025-01-31 01:31:58","af8d355d56820e421d246a7037deb6e6","172.84.188.3","Mozilla/5.0 (Windows NT 10.0; Win64; x64) AppleWebKit/537.36 (KHTML, like Gecko) Chrome/132.0.0.0 Safari/537.36","WebKit","Chrome","132.0.0.0","Windows","10.0","https://app.prolific.com/","en-US,en;q=0.9","65e0fc6b883b6a493d50e0a5","67949641171f97c04e14fb34","679c244fbd215cb22adc8870","","553","<img  src='G_9.jpg' height='90'> <img id='selected'  src='G_3.jpg' height='90'> <img id='selected' src='G_5.jpg' height='90'> <img src='G_1.jpg' height='90'> <img src='G_7.jpg' height='90'>","1","Learning example 0",""
"","","","","","html-button-response","77","224088","0.0-33.11-0.11-0.11","67","1","2025-01-31 01:31:58","af8d355d56820e421d246a7037deb6e6","172.84.188.3","Mozilla/5.0 (Windows NT 10.0; Win64; x64) AppleWebKit/537.36 (KHTML, like Gecko) Chrome/132.0.0.0 Safari/537.36","WebKit","Chrome","132.0.0.0","Windows","10.0","https://app.prolific.com/","en-US,en;q=0.9","65e0fc6b883b6a493d50e0a5","67949641171f97c04e14fb34","679c244fbd215cb22adc8870","","261","<img  src='G_9.jpg' height='90'> <img id='selected'  src='G_3.jpg' height='90'> <img id='selected' src='G_5.jpg' height='90'> <img src='G_1.jpg' height='90'> <img src='G_7.jpg' height='90'>","0","Learning example 0",""
"","","","","","html-button-response","78","231304","0.0-33.12-0.12-0.12","67","1","2025-01-31 01:31:58","af8d355d56820e421d246a7037deb6e6","172.84.188.3","Mozilla/5.0 (Windows NT 10.0; Win64; x64) AppleWebKit/537.36 (KHTML, like Gecko) Chrome/132.0.0.0 Safari/537.36","WebKit","Chrome","132.0.0.0","Windows","10.0","https://app.prolific.com/","en-US,en;q=0.9","65e0fc6b883b6a493d50e0a5","67949641171f97c04e14fb34","679c244fbd215cb22adc8870","","7211","<img  src='G_9.jpg' height='90'> <img id='selected'  src='G_3.jpg' height='90'> <img id='selected' src='G_5.jpg' height='90'> <img src='G_1.jpg' height='90'> <img src='G_7.jpg' height='90'>","1","Learning example 0",""
"","","","","","html-button-response","79","231803","0.0-33.13-0.13-0.13","67","1","2025-01-31 01:31:58","af8d355d56820e421d246a7037deb6e6","172.84.188.3","Mozilla/5.0 (Windows NT 10.0; Win64; x64) AppleWebKit/537.36 (KHTML, like Gecko) Chrome/132.0.0.0 Safari/537.36","WebKit","Chrome","132.0.0.0","Windows","10.0","https://app.prolific.com/","en-US,en;q=0.9","65e0fc6b883b6a493d50e0a5","67949641171f97c04e14fb34","679c244fbd215cb22adc8870","","491","<img  src='G_9.jpg' height='90'> <img id='selected'  src='G_3.jpg' height='90'> <img id='selected' src='G_5.jpg' height='90'> <img src='G_1.jpg' height='90'> <img src='G_7.jpg' height='90'>","2","Learning example 0",""
"","","","","","html-button-response","80","232025","0.0-34.0","67","1","2025-01-31 01:31:58","af8d355d56820e421d246a7037deb6e6","172.84.188.3","Mozilla/5.0 (Windows NT 10.0; Win64; x64) AppleWebKit/537.36 (KHTML, like Gecko) Chrome/132.0.0.0 Safari/537.36","WebKit","Chrome","132.0.0.0","Windows","10.0","https://app.prolific.com/","en-US,en;q=0.9","65e0fc6b883b6a493d50e0a5","67949641171f97c04e14fb34","679c244fbd215cb22adc8870","","null","<img  src='G_9.jpg' height='90'> <img   src='G_3.jpg' height='90'> <img  src='G_5.jpg' height='90'> <img src='G_1.jpg' height='90'> <img src='G_7.jpg' height='90'>","null","Learning example 0",""
"","","","","","html-button-response","81","232447","0.0-35.0","67","1","2025-01-31 01:31:58","af8d355d56820e421d246a7037deb6e6","172.84.188.3","Mozilla/5.0 (Windows NT 10.0; Win64; x64) AppleWebKit/537.36 (KHTML, like Gecko) Chrome/132.0.0.0 Safari/537.36","WebKit","Chrome","132.0.0.0","Windows","10.0","https://app.prolific.com/","en-US,en;q=0.9","65e0fc6b883b6a493d50e0a5","67949641171f97c04e14fb34","679c244fbd215cb22adc8870","","null","<img  src='G_9.jpg' height='90'> <img   src='G_3.jpg' height='90'> <img id='selected'  src='G_5.jpg' height='90'> <img src='G_1.jpg' height='90'> <img src='G_7.jpg' height='90'>","null","Learning example 0",""
"","","","","","html-button-response","82","232763","0.0-36.0","67","1","2025-01-31 01:31:58","af8d355d56820e421d246a7037deb6e6","172.84.188.3","Mozilla/5.0 (Windows NT 10.0; Win64; x64) AppleWebKit/537.36 (KHTML, like Gecko) Chrome/132.0.0.0 Safari/537.36","WebKit","Chrome","132.0.0.0","Windows","10.0","https://app.prolific.com/","en-US,en;q=0.9","65e0fc6b883b6a493d50e0a5","67949641171f97c04e14fb34","679c244fbd215cb22adc8870","","null","<img  src='G_9.jpg' height='90'> <img   src='G_3.jpg' height='90'> <img id='selected'  src='G_5.jpg' height='90'> <img id='selected' src='G_1.jpg' height='90'> <img src='G_7.jpg' height='90'>","null","Learning example 0",""
"","","","","","html-button-response","83","233072","0.0-37.0","67","1","2025-01-31 01:31:58","af8d355d56820e421d246a7037deb6e6","172.84.188.3","Mozilla/5.0 (Windows NT 10.0; Win64; x64) AppleWebKit/537.36 (KHTML, like Gecko) Chrome/132.0.0.0 Safari/537.36","WebKit","Chrome","132.0.0.0","Windows","10.0","https://app.prolific.com/","en-US,en;q=0.9","65e0fc6b883b6a493d50e0a5","67949641171f97c04e14fb34","679c244fbd215cb22adc8870","","null","<img  src='G_9.jpg' height='90'> <img   src='G_3.jpg' height='90'> <img id='selected'  src='G_5.jpg' height='90'> <img id='selected' src='G_1.jpg' height='90'> <img src='G_7.jpg' height='90'>","null","Learning example 0",""
"","","","","","html-button-response","84","234886","0.0-38.0-0.0-0.0","67","1","2025-01-31 01:31:58","af8d355d56820e421d246a7037deb6e6","172.84.188.3","Mozilla/5.0 (Windows NT 10.0; Win64; x64) AppleWebKit/537.36 (KHTML, like Gecko) Chrome/132.0.0.0 Safari/537.36","WebKit","Chrome","132.0.0.0","Windows","10.0","https://app.prolific.com/","en-US,en;q=0.9","65e0fc6b883b6a493d50e0a5","67949641171f97c04e14fb34","679c244fbd215cb22adc8870","","1806","<img  src='G_9.jpg' height='90'> <img   src='G_3.jpg' height='90'> <img id='selected'  src='G_5.jpg' height='90'> <img id='selected' src='G_1.jpg' height='90'> <img src='G_7.jpg' height='90'>","4","Learning example 0",""
"","","","","","html-button-response","85","235328","0.0-38.1-0.1-0.1","67","1","2025-01-31 01:31:58","af8d355d56820e421d246a7037deb6e6","172.84.188.3","Mozilla/5.0 (Windows NT 10.0; Win64; x64) AppleWebKit/537.36 (KHTML, like Gecko) Chrome/132.0.0.0 Safari/537.36","WebKit","Chrome","132.0.0.0","Windows","10.0","https://app.prolific.com/","en-US,en;q=0.9","65e0fc6b883b6a493d50e0a5","67949641171f97c04e14fb34","679c244fbd215cb22adc8870","","435","<img  src='G_9.jpg' height='90'> <img   src='G_3.jpg' height='90'> <img id='selected'  src='G_5.jpg' height='90'> <img id='selected' src='G_1.jpg' height='90'> <img src='G_7.jpg' height='90'>","3","Learning example 0",""
"","","","","","html-button-response","86","236464","0.0-38.2-0.2-0.2","67","1","2025-01-31 01:31:58","af8d355d56820e421d246a7037deb6e6","172.84.188.3","Mozilla/5.0 (Windows NT 10.0; Win64; x64) AppleWebKit/537.36 (KHTML, like Gecko) Chrome/132.0.0.0 Safari/537.36","WebKit","Chrome","132.0.0.0","Windows","10.0","https://app.prolific.com/","en-US,en;q=0.9","65e0fc6b883b6a493d50e0a5","67949641171f97c04e14fb34","679c244fbd215cb22adc8870","","1126","<img  src='G_9.jpg' height='90'> <img   src='G_3.jpg' height='90'> <img id='selected'  src='G_5.jpg' height='90'> <img id='selected' src='G_1.jpg' height='90'> <img src='G_7.jpg' height='90'>","3","Learning example 0",""
"","","","","","html-button-response","87","237375","0.0-38.3-0.3-0.3","67","1","2025-01-31 01:31:58","af8d355d56820e421d246a7037deb6e6","172.84.188.3","Mozilla/5.0 (Windows NT 10.0; Win64; x64) AppleWebKit/537.36 (KHTML, like Gecko) Chrome/132.0.0.0 Safari/537.36","WebKit","Chrome","132.0.0.0","Windows","10.0","https://app.prolific.com/","en-US,en;q=0.9","65e0fc6b883b6a493d50e0a5","67949641171f97c04e14fb34","679c244fbd215cb22adc8870","","907","<img  src='G_9.jpg' height='90'> <img   src='G_3.jpg' height='90'> <img id='selected'  src='G_5.jpg' height='90'> <img id='selected' src='G_1.jpg' height='90'> <img src='G_7.jpg' height='90'>","3","Learning example 0",""
"","","","","","html-button-response","88","237740","0.0-38.4-0.4-0.4","67","1","2025-01-31 01:31:58","af8d355d56820e421d246a7037deb6e6","172.84.188.3","Mozilla/5.0 (Windows NT 10.0; Win64; x64) AppleWebKit/537.36 (KHTML, like Gecko) Chrome/132.0.0.0 Safari/537.36","WebKit","Chrome","132.0.0.0","Windows","10.0","https://app.prolific.com/","en-US,en;q=0.9","65e0fc6b883b6a493d50e0a5","67949641171f97c04e14fb34","679c244fbd215cb22adc8870","","359","<img  src='G_9.jpg' height='90'> <img   src='G_3.jpg' height='90'> <img id='selected'  src='G_5.jpg' height='90'> <img id='selected' src='G_1.jpg' height='90'> <img src='G_7.jpg' height='90'>","4","Learning example 0",""
"","","","","","html-button-response","89","238456","0.0-38.5-0.5-0.5","67","1","2025-01-31 01:31:58","af8d355d56820e421d246a7037deb6e6","172.84.188.3","Mozilla/5.0 (Windows NT 10.0; Win64; x64) AppleWebKit/537.36 (KHTML, like Gecko) Chrome/132.0.0.0 Safari/537.36","WebKit","Chrome","132.0.0.0","Windows","10.0","https://app.prolific.com/","en-US,en;q=0.9","65e0fc6b883b6a493d50e0a5","67949641171f97c04e14fb34","679c244fbd215cb22adc8870","","707","<img  src='G_9.jpg' height='90'> <img   src='G_3.jpg' height='90'> <img id='selected'  src='G_5.jpg' height='90'> <img id='selected' src='G_1.jpg' height='90'> <img src='G_7.jpg' height='90'>","3","Learning example 0",""
"","","","","","html-button-response","90","239872","0.0-38.6-0.6-0.6","67","1","2025-01-31 01:31:58","af8d355d56820e421d246a7037deb6e6","172.84.188.3","Mozilla/5.0 (Windows NT 10.0; Win64; x64) AppleWebKit/537.36 (KHTML, like Gecko) Chrome/132.0.0.0 Safari/537.36","WebKit","Chrome","132.0.0.0","Windows","10.0","https://app.prolific.com/","en-US,en;q=0.9","65e0fc6b883b6a493d50e0a5","67949641171f97c04e14fb34","679c244fbd215cb22adc8870","","1408","<img  src='G_9.jpg' height='90'> <img   src='G_3.jpg' height='90'> <img id='selected'  src='G_5.jpg' height='90'> <img id='selected' src='G_1.jpg' height='90'> <img src='G_7.jpg' height='90'>","2","Learning example 0",""
"","","","","","html-button-response","91","240089","0.0-39.0","67","1","2025-01-31 01:31:58","af8d355d56820e421d246a7037deb6e6","172.84.188.3","Mozilla/5.0 (Windows NT 10.0; Win64; x64) AppleWebKit/537.36 (KHTML, like Gecko) Chrome/132.0.0.0 Safari/537.36","WebKit","Chrome","132.0.0.0","Windows","10.0","https://app.prolific.com/","en-US,en;q=0.9","65e0fc6b883b6a493d50e0a5","67949641171f97c04e14fb34","679c244fbd215cb22adc8870","","null","<img  src='G_9.jpg' height='90'> <img   src='G_3.jpg' height='90'> <img   src='G_5.jpg' height='90'> <img  src='G_1.jpg' height='90'> <img src='G_7.jpg' height='90'>","null","Learning example 0",""
"","","","","","html-button-response","92","240508","0.0-40.0","67","1","2025-01-31 01:31:58","af8d355d56820e421d246a7037deb6e6","172.84.188.3","Mozilla/5.0 (Windows NT 10.0; Win64; x64) AppleWebKit/537.36 (KHTML, like Gecko) Chrome/132.0.0.0 Safari/537.36","WebKit","Chrome","132.0.0.0","Windows","10.0","https://app.prolific.com/","en-US,en;q=0.9","65e0fc6b883b6a493d50e0a5","67949641171f97c04e14fb34","679c244fbd215cb22adc8870","","null","<img  src='G_9.jpg' height='90'> <img   src='G_3.jpg' height='90'> <img   src='G_5.jpg' height='90'> <img id='selected'  src='G_1.jpg' height='90'> <img src='G_7.jpg' height='90'>","null","Learning example 0",""
"","","","","","html-button-response","93","240822","0.0-41.0","67","1","2025-01-31 01:31:58","af8d355d56820e421d246a7037deb6e6","172.84.188.3","Mozilla/5.0 (Windows NT 10.0; Win64; x64) AppleWebKit/537.36 (KHTML, like Gecko) Chrome/132.0.0.0 Safari/537.36","WebKit","Chrome","132.0.0.0","Windows","10.0","https://app.prolific.com/","en-US,en;q=0.9","65e0fc6b883b6a493d50e0a5","67949641171f97c04e14fb34","679c244fbd215cb22adc8870","","null","<img  src='G_9.jpg' height='90'> <img   src='G_3.jpg' height='90'> <img   src='G_5.jpg' height='90'> <img id='selected'  src='G_1.jpg' height='90'> <img id='selected' src='G_7.jpg' height='90'>","null","Learning example 0",""
"","","","","","html-button-response","94","241142","0.0-42.0","67","1","2025-01-31 01:31:58","af8d355d56820e421d246a7037deb6e6","172.84.188.3","Mozilla/5.0 (Windows NT 10.0; Win64; x64) AppleWebKit/537.36 (KHTML, like Gecko) Chrome/132.0.0.0 Safari/537.36","WebKit","Chrome","132.0.0.0","Windows","10.0","https://app.prolific.com/","en-US,en;q=0.9","65e0fc6b883b6a493d50e0a5","67949641171f97c04e14fb34","679c244fbd215cb22adc8870","","null","<img  src='G_9.jpg' height='90'> <img   src='G_3.jpg' height='90'> <img   src='G_5.jpg' height='90'> <img id='selected'  src='G_1.jpg' height='90'> <img id='selected' src='G_7.jpg' height='90'>","null","Learning example 0",""
"","","","","","html-button-response","95","243221","0.0-43.0-0.0-0.0","67","1","2025-01-31 01:31:58","af8d355d56820e421d246a7037deb6e6","172.84.188.3","Mozilla/5.0 (Windows NT 10.0; Win64; x64) AppleWebKit/537.36 (KHTML, like Gecko) Chrome/132.0.0.0 Safari/537.36","WebKit","Chrome","132.0.0.0","Windows","10.0","https://app.prolific.com/","en-US,en;q=0.9","65e0fc6b883b6a493d50e0a5","67949641171f97c04e14fb34","679c244fbd215cb22adc8870","","2072","<img  src='G_9.jpg' height='90'> <img   src='G_3.jpg' height='90'> <img   src='G_5.jpg' height='90'> <img id='selected'  src='G_1.jpg' height='90'> <img id='selected' src='G_7.jpg' height='90'>","3","Learning example 0",""
"","","","","","html-button-response","96","243507","0.0-43.1-0.1-0.1","67","1","2025-01-31 01:31:58","af8d355d56820e421d246a7037deb6e6","172.84.188.3","Mozilla/5.0 (Windows NT 10.0; Win64; x64) AppleWebKit/537.36 (KHTML, like Gecko) Chrome/132.0.0.0 Safari/537.36","WebKit","Chrome","132.0.0.0","Windows","10.0","https://app.prolific.com/","en-US,en;q=0.9","65e0fc6b883b6a493d50e0a5","67949641171f97c04e14fb34","679c244fbd215cb22adc8870","","278","<img  src='G_9.jpg' height='90'> <img   src='G_3.jpg' height='90'> <img   src='G_5.jpg' height='90'> <img id='selected'  src='G_1.jpg' height='90'> <img id='selected' src='G_7.jpg' height='90'>","4","Learning example 0",""
"","","","","","html-button-response","97","243722","0.0-44.0","67","1","2025-01-31 01:31:58","af8d355d56820e421d246a7037deb6e6","172.84.188.3","Mozilla/5.0 (Windows NT 10.0; Win64; x64) AppleWebKit/537.36 (KHTML, like Gecko) Chrome/132.0.0.0 Safari/537.36","WebKit","Chrome","132.0.0.0","Windows","10.0","https://app.prolific.com/","en-US,en;q=0.9","65e0fc6b883b6a493d50e0a5","67949641171f97c04e14fb34","679c244fbd215cb22adc8870","","null","<img  src='G_9.jpg' height='90'> <img   src='G_3.jpg' height='90'> <img   src='G_5.jpg' height='90'> <img   src='G_1.jpg' height='90'> <img  src='G_7.jpg' height='90'>","null","Learning example 0",""
"","","","","","html-keyboard-response","98","250913","0.0-45.0","67","1","2025-01-31 01:31:58","af8d355d56820e421d246a7037deb6e6","172.84.188.3","Mozilla/5.0 (Windows NT 10.0; Win64; x64) AppleWebKit/537.36 (KHTML, like Gecko) Chrome/132.0.0.0 Safari/537.36","WebKit","Chrome","132.0.0.0","Windows","10.0","https://app.prolific.com/","en-US,en;q=0.9","65e0fc6b883b6a493d50e0a5","67949641171f97c04e14fb34","679c244fbd215cb22adc8870","","7183","[""Final order was 1,2,3,4,5. The initial order was 2,1,3,4,5.<br>It took 1 swaps to sort it correctly with Omgne Sort. <br><br>Press Enter to continue.""]","enter","",""
"","","","","","html-keyboard-response","99","252663","0.0-46.0","67","1","2025-01-31 01:31:58","af8d355d56820e421d246a7037deb6e6","172.84.188.3","Mozilla/5.0 (Windows NT 10.0; Win64; x64) AppleWebKit/537.36 (KHTML, like Gecko) Chrome/132.0.0.0 Safari/537.36","WebKit","Chrome","132.0.0.0","Windows","10.0","https://app.prolific.com/","en-US,en;q=0.9","65e0fc6b883b6a493d50e0a5","67949641171f97c04e14fb34","679c244fbd215cb22adc8870","","1745","[""Example 2<br><br>You will watch Omnge Sort in action. Try to identify any patterns in the comparisons made by this method. <br><br>Press Enter to continue.""]","enter","",""
"","","","","","html-keyboard-response","100","253183","0.0-47.0","67","1","2025-01-31 01:31:58","af8d355d56820e421d246a7037deb6e6","172.84.188.3","Mozilla/5.0 (Windows NT 10.0; Win64; x64) AppleWebKit/537.36 (KHTML, like Gecko) Chrome/132.0.0.0 Safari/537.36","WebKit","Chrome","132.0.0.0","Windows","10.0","https://app.prolific.com/","en-US,en;q=0.9","65e0fc6b883b6a493d50e0a5","67949641171f97c04e14fb34","679c244fbd215cb22adc8870","","null","<img id='selected' src='G_7.jpg' height='90'> <img src='G_2.jpg' height='90'> <img src='G_1.jpg' height='90'> <img src='G_4.jpg' height='90'> <img src='G_5.jpg' height='90'> <img src='G_6.jpg' height='90'> <img src='G_8.jpg' height='90'> <img src='G_3.jpg' height='90'>","null","Animation1",""
"","","","","","html-keyboard-response","101","253696","0.0-48.0","67","1","2025-01-31 01:31:58","af8d355d56820e421d246a7037deb6e6","172.84.188.3","Mozilla/5.0 (Windows NT 10.0; Win64; x64) AppleWebKit/537.36 (KHTML, like Gecko) Chrome/132.0.0.0 Safari/537.36","WebKit","Chrome","132.0.0.0","Windows","10.0","https://app.prolific.com/","en-US,en;q=0.9","65e0fc6b883b6a493d50e0a5","67949641171f97c04e14fb34","679c244fbd215cb22adc8870","","null","<img id='selected' src='G_7.jpg' height='90'> <img id='selected' src='G_2.jpg' height='90'> <img src='G_1.jpg' height='90'> <img src='G_4.jpg' height='90'> <img src='G_5.jpg' height='90'> <img src='G_6.jpg' height='90'> <img src='G_8.jpg' height='90'> <img src='G_3.jpg' height='90'>","null","Animation1",""
"","","","","","html-keyboard-response","102","254204","0.0-49.0","67","1","2025-01-31 01:31:58","af8d355d56820e421d246a7037deb6e6","172.84.188.3","Mozilla/5.0 (Windows NT 10.0; Win64; x64) AppleWebKit/537.36 (KHTML, like Gecko) Chrome/132.0.0.0 Safari/537.36","WebKit","Chrome","132.0.0.0","Windows","10.0","https://app.prolific.com/","en-US,en;q=0.9","65e0fc6b883b6a493d50e0a5","67949641171f97c04e14fb34","679c244fbd215cb22adc8870","","null","<img id='selected' src='G_7.jpg' height='90'> <img id='selected' src='G_2.jpg' height='90'> <img src='G_1.jpg' height='90'> <img src='G_4.jpg' height='90'> <img src='G_5.jpg' height='90'> <img src='G_6.jpg' height='90'> <img src='G_8.jpg' height='90'> <img src='G_3.jpg' height='90'>","null","Animation1",""
"","","","","","html-keyboard-response","103","254518","0.0-50.0","67","1","2025-01-31 01:31:58","af8d355d56820e421d246a7037deb6e6","172.84.188.3","Mozilla/5.0 (Windows NT 10.0; Win64; x64) AppleWebKit/537.36 (KHTML, like Gecko) Chrome/132.0.0.0 Safari/537.36","WebKit","Chrome","132.0.0.0","Windows","10.0","https://app.prolific.com/","en-US,en;q=0.9","65e0fc6b883b6a493d50e0a5","67949641171f97c04e14fb34","679c244fbd215cb22adc8870","","null","<img  src='G_7.jpg' height='90'> <img  src='G_2.jpg' height='90'> <img src='G_1.jpg' height='90'> <img src='G_4.jpg' height='90'> <img src='G_5.jpg' height='90'> <img src='G_6.jpg' height='90'> <img src='G_8.jpg' height='90'> <img src='G_3.jpg' height='90'>","null","Animation1",""
"","","","","","html-keyboard-response","104","255034","0.0-51.0","67","1","2025-01-31 01:31:58","af8d355d56820e421d246a7037deb6e6","172.84.188.3","Mozilla/5.0 (Windows NT 10.0; Win64; x64) AppleWebKit/537.36 (KHTML, like Gecko) Chrome/132.0.0.0 Safari/537.36","WebKit","Chrome","132.0.0.0","Windows","10.0","https://app.prolific.com/","en-US,en;q=0.9","65e0fc6b883b6a493d50e0a5","67949641171f97c04e14fb34","679c244fbd215cb22adc8870","","null","<img  src='G_7.jpg' height='90'> <img id='selected'  src='G_2.jpg' height='90'> <img src='G_1.jpg' height='90'> <img src='G_4.jpg' height='90'> <img src='G_5.jpg' height='90'> <img src='G_6.jpg' height='90'> <img src='G_8.jpg' height='90'> <img src='G_3.jpg' height='90'>","null","Animation1",""
"","","","","","html-keyboard-response","105","255550","0.0-52.0","67","1","2025-01-31 01:31:58","af8d355d56820e421d246a7037deb6e6","172.84.188.3","Mozilla/5.0 (Windows NT 10.0; Win64; x64) AppleWebKit/537.36 (KHTML, like Gecko) Chrome/132.0.0.0 Safari/537.36","WebKit","Chrome","132.0.0.0","Windows","10.0","https://app.prolific.com/","en-US,en;q=0.9","65e0fc6b883b6a493d50e0a5","67949641171f97c04e14fb34","679c244fbd215cb22adc8870","","null","<img  src='G_7.jpg' height='90'> <img id='selected'  src='G_2.jpg' height='90'> <img id='selected' src='G_1.jpg' height='90'> <img src='G_4.jpg' height='90'> <img src='G_5.jpg' height='90'> <img src='G_6.jpg' height='90'> <img src='G_8.jpg' height='90'> <img src='G_3.jpg' height='90'>","null","Animation1",""
"","","","","","html-keyboard-response","106","256065","0.0-53.0","67","1","2025-01-31 01:31:58","af8d355d56820e421d246a7037deb6e6","172.84.188.3","Mozilla/5.0 (Windows NT 10.0; Win64; x64) AppleWebKit/537.36 (KHTML, like Gecko) Chrome/132.0.0.0 Safari/537.36","WebKit","Chrome","132.0.0.0","Windows","10.0","https://app.prolific.com/","en-US,en;q=0.9","65e0fc6b883b6a493d50e0a5","67949641171f97c04e14fb34","679c244fbd215cb22adc8870","","null","<img  src='G_7.jpg' height='90'> <img id='swapped' src='G_1.jpg' height='90'> <img id='swapped'  src='G_2.jpg' height='90'> <img src='G_4.jpg' height='90'> <img src='G_5.jpg' height='90'> <img src='G_6.jpg' height='90'> <img src='G_8.jpg' height='90'> <img src='G_3.jpg' height='90'>","null","Animation1",""
"","","","","","html-keyboard-response","107","256372","0.0-54.0","67","1","2025-01-31 01:31:58","af8d355d56820e421d246a7037deb6e6","172.84.188.3","Mozilla/5.0 (Windows NT 10.0; Win64; x64) AppleWebKit/537.36 (KHTML, like Gecko) Chrome/132.0.0.0 Safari/537.36","WebKit","Chrome","132.0.0.0","Windows","10.0","https://app.prolific.com/","en-US,en;q=0.9","65e0fc6b883b6a493d50e0a5","67949641171f97c04e14fb34","679c244fbd215cb22adc8870","","null","<img  src='G_7.jpg' height='90'> <img  src='G_1.jpg' height='90'> <img   src='G_2.jpg' height='90'> <img src='G_4.jpg' height='90'> <img src='G_5.jpg' height='90'> <img src='G_6.jpg' height='90'> <img src='G_8.jpg' height='90'> <img src='G_3.jpg' height='90'>","null","Animation1",""
"","","","","","html-keyboard-response","108","256880","0.0-55.0","67","1","2025-01-31 01:31:58","af8d355d56820e421d246a7037deb6e6","172.84.188.3","Mozilla/5.0 (Windows NT 10.0; Win64; x64) AppleWebKit/537.36 (KHTML, like Gecko) Chrome/132.0.0.0 Safari/537.36","WebKit","Chrome","132.0.0.0","Windows","10.0","https://app.prolific.com/","en-US,en;q=0.9","65e0fc6b883b6a493d50e0a5","67949641171f97c04e14fb34","679c244fbd215cb22adc8870","","null","<img id='selected'  src='G_7.jpg' height='90'> <img  src='G_1.jpg' height='90'> <img   src='G_2.jpg' height='90'> <img src='G_4.jpg' height='90'> <img src='G_5.jpg' height='90'> <img src='G_6.jpg' height='90'> <img src='G_8.jpg' height='90'> <img src='G_3.jpg' height='90'>","null","Animation1",""
"","","","","","html-keyboard-response","109","257404","0.0-56.0","67","1","2025-01-31 01:31:58","af8d355d56820e421d246a7037deb6e6","172.84.188.3","Mozilla/5.0 (Windows NT 10.0; Win64; x64) AppleWebKit/537.36 (KHTML, like Gecko) Chrome/132.0.0.0 Safari/537.36","WebKit","Chrome","132.0.0.0","Windows","10.0","https://app.prolific.com/","en-US,en;q=0.9","65e0fc6b883b6a493d50e0a5","67949641171f97c04e14fb34","679c244fbd215cb22adc8870","","null","<img id='selected'  src='G_7.jpg' height='90'> <img id='selected'  src='G_1.jpg' height='90'> <img   src='G_2.jpg' height='90'> <img src='G_4.jpg' height='90'> <img src='G_5.jpg' height='90'> <img src='G_6.jpg' height='90'> <img src='G_8.jpg' height='90'> <img src='G_3.jpg' height='90'>","null","Animation1",""
"","","","","","html-keyboard-response","110","257928","0.0-57.0","67","1","2025-01-31 01:31:58","af8d355d56820e421d246a7037deb6e6","172.84.188.3","Mozilla/5.0 (Windows NT 10.0; Win64; x64) AppleWebKit/537.36 (KHTML, like Gecko) Chrome/132.0.0.0 Safari/537.36","WebKit","Chrome","132.0.0.0","Windows","10.0","https://app.prolific.com/","en-US,en;q=0.9","65e0fc6b883b6a493d50e0a5","67949641171f97c04e14fb34","679c244fbd215cb22adc8870","","null","<img id='swapped'  src='G_1.jpg' height='90'> <img id='swapped'  src='G_7.jpg' height='90'> <img   src='G_2.jpg' height='90'> <img src='G_4.jpg' height='90'> <img src='G_5.jpg' height='90'> <img src='G_6.jpg' height='90'> <img src='G_8.jpg' height='90'> <img src='G_3.jpg' height='90'>","null","Animation1",""
"","","","","","html-keyboard-response","111","258236","0.0-58.0","67","1","2025-01-31 01:31:58","af8d355d56820e421d246a7037deb6e6","172.84.188.3","Mozilla/5.0 (Windows NT 10.0; Win64; x64) AppleWebKit/537.36 (KHTML, like Gecko) Chrome/132.0.0.0 Safari/537.36","WebKit","Chrome","132.0.0.0","Windows","10.0","https://app.prolific.com/","en-US,en;q=0.9","65e0fc6b883b6a493d50e0a5","67949641171f97c04e14fb34","679c244fbd215cb22adc8870","","null","<img   src='G_1.jpg' height='90'> <img   src='G_7.jpg' height='90'> <img   src='G_2.jpg' height='90'> <img src='G_4.jpg' height='90'> <img src='G_5.jpg' height='90'> <img src='G_6.jpg' height='90'> <img src='G_8.jpg' height='90'> <img src='G_3.jpg' height='90'>","null","Animation1",""
"","","","","","html-keyboard-response","112","258743","0.0-59.0","67","1","2025-01-31 01:31:58","af8d355d56820e421d246a7037deb6e6","172.84.188.3","Mozilla/5.0 (Windows NT 10.0; Win64; x64) AppleWebKit/537.36 (KHTML, like Gecko) Chrome/132.0.0.0 Safari/537.36","WebKit","Chrome","132.0.0.0","Windows","10.0","https://app.prolific.com/","en-US,en;q=0.9","65e0fc6b883b6a493d50e0a5","67949641171f97c04e14fb34","679c244fbd215cb22adc8870","","null","<img   src='G_1.jpg' height='90'> <img   src='G_7.jpg' height='90'> <img id='selected'   src='G_2.jpg' height='90'> <img src='G_4.jpg' height='90'> <img src='G_5.jpg' height='90'> <img src='G_6.jpg' height='90'> <img src='G_8.jpg' height='90'> <img src='G_3.jpg' height='90'>","null","Animation1",""
"","","","","","html-keyboard-response","113","259262","0.0-60.0","67","1","2025-01-31 01:31:58","af8d355d56820e421d246a7037deb6e6","172.84.188.3","Mozilla/5.0 (Windows NT 10.0; Win64; x64) AppleWebKit/537.36 (KHTML, like Gecko) Chrome/132.0.0.0 Safari/537.36","WebKit","Chrome","132.0.0.0","Windows","10.0","https://app.prolific.com/","en-US,en;q=0.9","65e0fc6b883b6a493d50e0a5","67949641171f97c04e14fb34","679c244fbd215cb22adc8870","","null","<img   src='G_1.jpg' height='90'> <img   src='G_7.jpg' height='90'> <img id='selected'   src='G_2.jpg' height='90'> <img id='selected' src='G_4.jpg' height='90'> <img src='G_5.jpg' height='90'> <img src='G_6.jpg' height='90'> <img src='G_8.jpg' height='90'> <img src='G_3.jpg' height='90'>","null","Animation1",""
"","","","","","html-keyboard-response","114","259770","0.0-61.0","67","1","2025-01-31 01:31:58","af8d355d56820e421d246a7037deb6e6","172.84.188.3","Mozilla/5.0 (Windows NT 10.0; Win64; x64) AppleWebKit/537.36 (KHTML, like Gecko) Chrome/132.0.0.0 Safari/537.36","WebKit","Chrome","132.0.0.0","Windows","10.0","https://app.prolific.com/","en-US,en;q=0.9","65e0fc6b883b6a493d50e0a5","67949641171f97c04e14fb34","679c244fbd215cb22adc8870","","null","<img   src='G_1.jpg' height='90'> <img   src='G_7.jpg' height='90'> <img id='swapped' src='G_4.jpg' height='90'> <img id='swapped'   src='G_2.jpg' height='90'> <img src='G_5.jpg' height='90'> <img src='G_6.jpg' height='90'> <img src='G_8.jpg' height='90'> <img src='G_3.jpg' height='90'>","null","Animation1",""
"","","","","","html-keyboard-response","115","260082","0.0-62.0","67","1","2025-01-31 01:31:58","af8d355d56820e421d246a7037deb6e6","172.84.188.3","Mozilla/5.0 (Windows NT 10.0; Win64; x64) AppleWebKit/537.36 (KHTML, like Gecko) Chrome/132.0.0.0 Safari/537.36","WebKit","Chrome","132.0.0.0","Windows","10.0","https://app.prolific.com/","en-US,en;q=0.9","65e0fc6b883b6a493d50e0a5","67949641171f97c04e14fb34","679c244fbd215cb22adc8870","","null","<img   src='G_1.jpg' height='90'> <img   src='G_7.jpg' height='90'> <img  src='G_4.jpg' height='90'> <img    src='G_2.jpg' height='90'> <img src='G_5.jpg' height='90'> <img src='G_6.jpg' height='90'> <img src='G_8.jpg' height='90'> <img src='G_3.jpg' height='90'>","null","Animation1",""
"","","","","","html-keyboard-response","116","260597","0.0-63.0","67","1","2025-01-31 01:31:58","af8d355d56820e421d246a7037deb6e6","172.84.188.3","Mozilla/5.0 (Windows NT 10.0; Win64; x64) AppleWebKit/537.36 (KHTML, like Gecko) Chrome/132.0.0.0 Safari/537.36","WebKit","Chrome","132.0.0.0","Windows","10.0","https://app.prolific.com/","en-US,en;q=0.9","65e0fc6b883b6a493d50e0a5","67949641171f97c04e14fb34","679c244fbd215cb22adc8870","","null","<img   src='G_1.jpg' height='90'> <img id='selected'   src='G_7.jpg' height='90'> <img  src='G_4.jpg' height='90'> <img    src='G_2.jpg' height='90'> <img src='G_5.jpg' height='90'> <img src='G_6.jpg' height='90'> <img src='G_8.jpg' height='90'> <img src='G_3.jpg' height='90'>","null","Animation1",""
"","","","","","html-keyboard-response","117","261114","0.0-64.0","67","1","2025-01-31 01:31:58","af8d355d56820e421d246a7037deb6e6","172.84.188.3","Mozilla/5.0 (Windows NT 10.0; Win64; x64) AppleWebKit/537.36 (KHTML, like Gecko) Chrome/132.0.0.0 Safari/537.36","WebKit","Chrome","132.0.0.0","Windows","10.0","https://app.prolific.com/","en-US,en;q=0.9","65e0fc6b883b6a493d50e0a5","67949641171f97c04e14fb34","679c244fbd215cb22adc8870","","null","<img   src='G_1.jpg' height='90'> <img id='selected'   src='G_7.jpg' height='90'> <img id='selected'  src='G_4.jpg' height='90'> <img    src='G_2.jpg' height='90'> <img src='G_5.jpg' height='90'> <img src='G_6.jpg' height='90'> <img src='G_8.jpg' height='90'> <img src='G_3.jpg' height='90'>","null","Animation1",""
"","","","","","html-keyboard-response","118","261633","0.0-65.0","67","1","2025-01-31 01:31:58","af8d355d56820e421d246a7037deb6e6","172.84.188.3","Mozilla/5.0 (Windows NT 10.0; Win64; x64) AppleWebKit/537.36 (KHTML, like Gecko) Chrome/132.0.0.0 Safari/537.36","WebKit","Chrome","132.0.0.0","Windows","10.0","https://app.prolific.com/","en-US,en;q=0.9","65e0fc6b883b6a493d50e0a5","67949641171f97c04e14fb34","679c244fbd215cb22adc8870","","null","<img   src='G_1.jpg' height='90'> <img id='swapped'  src='G_4.jpg' height='90'> <img id='swapped'   src='G_7.jpg' height='90'> <img    src='G_2.jpg' height='90'> <img src='G_5.jpg' height='90'> <img src='G_6.jpg' height='90'> <img src='G_8.jpg' height='90'> <img src='G_3.jpg' height='90'>","null","Animation1",""
"","","","","","html-keyboard-response","119","261944","0.0-66.0","67","1","2025-01-31 01:31:58","af8d355d56820e421d246a7037deb6e6","172.84.188.3","Mozilla/5.0 (Windows NT 10.0; Win64; x64) AppleWebKit/537.36 (KHTML, like Gecko) Chrome/132.0.0.0 Safari/537.36","WebKit","Chrome","132.0.0.0","Windows","10.0","https://app.prolific.com/","en-US,en;q=0.9","65e0fc6b883b6a493d50e0a5","67949641171f97c04e14fb34","679c244fbd215cb22adc8870","","null","<img   src='G_1.jpg' height='90'> <img   src='G_4.jpg' height='90'> <img    src='G_7.jpg' height='90'> <img    src='G_2.jpg' height='90'> <img src='G_5.jpg' height='90'> <img src='G_6.jpg' height='90'> <img src='G_8.jpg' height='90'> <img src='G_3.jpg' height='90'>","null","Animation1",""
"","","","","","html-keyboard-response","120","262455","0.0-67.0","67","1","2025-01-31 01:31:58","af8d355d56820e421d246a7037deb6e6","172.84.188.3","Mozilla/5.0 (Windows NT 10.0; Win64; x64) AppleWebKit/537.36 (KHTML, like Gecko) Chrome/132.0.0.0 Safari/537.36","WebKit","Chrome","132.0.0.0","Windows","10.0","https://app.prolific.com/","en-US,en;q=0.9","65e0fc6b883b6a493d50e0a5","67949641171f97c04e14fb34","679c244fbd215cb22adc8870","","null","<img id='selected'   src='G_1.jpg' height='90'> <img   src='G_4.jpg' height='90'> <img    src='G_7.jpg' height='90'> <img    src='G_2.jpg' height='90'> <img src='G_5.jpg' height='90'> <img src='G_6.jpg' height='90'> <img src='G_8.jpg' height='90'> <img src='G_3.jpg' height='90'>","null","Animation1",""
"","","","","","html-keyboard-response","121","262977","0.0-68.0","67","1","2025-01-31 01:31:58","af8d355d56820e421d246a7037deb6e6","172.84.188.3","Mozilla/5.0 (Windows NT 10.0; Win64; x64) AppleWebKit/537.36 (KHTML, like Gecko) Chrome/132.0.0.0 Safari/537.36","WebKit","Chrome","132.0.0.0","Windows","10.0","https://app.prolific.com/","en-US,en;q=0.9","65e0fc6b883b6a493d50e0a5","67949641171f97c04e14fb34","679c244fbd215cb22adc8870","","null","<img id='selected'   src='G_1.jpg' height='90'> <img id='selected'   src='G_4.jpg' height='90'> <img    src='G_7.jpg' height='90'> <img    src='G_2.jpg' height='90'> <img src='G_5.jpg' height='90'> <img src='G_6.jpg' height='90'> <img src='G_8.jpg' height='90'> <img src='G_3.jpg' height='90'>","null","Animation1",""
"","","","","","html-keyboard-response","122","263490","0.0-69.0","67","1","2025-01-31 01:31:58","af8d355d56820e421d246a7037deb6e6","172.84.188.3","Mozilla/5.0 (Windows NT 10.0; Win64; x64) AppleWebKit/537.36 (KHTML, like Gecko) Chrome/132.0.0.0 Safari/537.36","WebKit","Chrome","132.0.0.0","Windows","10.0","https://app.prolific.com/","en-US,en;q=0.9","65e0fc6b883b6a493d50e0a5","67949641171f97c04e14fb34","679c244fbd215cb22adc8870","","null","<img id='swapped'   src='G_4.jpg' height='90'> <img id='swapped'   src='G_1.jpg' height='90'> <img    src='G_7.jpg' height='90'> <img    src='G_2.jpg' height='90'> <img src='G_5.jpg' height='90'> <img src='G_6.jpg' height='90'> <img src='G_8.jpg' height='90'> <img src='G_3.jpg' height='90'>","null","Animation1",""
"","","","","","html-keyboard-response","123","263801","0.0-70.0","67","1","2025-01-31 01:31:58","af8d355d56820e421d246a7037deb6e6","172.84.188.3","Mozilla/5.0 (Windows NT 10.0; Win64; x64) AppleWebKit/537.36 (KHTML, like Gecko) Chrome/132.0.0.0 Safari/537.36","WebKit","Chrome","132.0.0.0","Windows","10.0","https://app.prolific.com/","en-US,en;q=0.9","65e0fc6b883b6a493d50e0a5","67949641171f97c04e14fb34","679c244fbd215cb22adc8870","","null","<img    src='G_4.jpg' height='90'> <img    src='G_1.jpg' height='90'> <img    src='G_7.jpg' height='90'> <img    src='G_2.jpg' height='90'> <img src='G_5.jpg' height='90'> <img src='G_6.jpg' height='90'> <img src='G_8.jpg' height='90'> <img src='G_3.jpg' height='90'>","null","Animation1",""
"","","","","","html-keyboard-response","124","264313","0.0-71.0","67","1","2025-01-31 01:31:58","af8d355d56820e421d246a7037deb6e6","172.84.188.3","Mozilla/5.0 (Windows NT 10.0; Win64; x64) AppleWebKit/537.36 (KHTML, like Gecko) Chrome/132.0.0.0 Safari/537.36","WebKit","Chrome","132.0.0.0","Windows","10.0","https://app.prolific.com/","en-US,en;q=0.9","65e0fc6b883b6a493d50e0a5","67949641171f97c04e14fb34","679c244fbd215cb22adc8870","","null","<img    src='G_4.jpg' height='90'> <img    src='G_1.jpg' height='90'> <img    src='G_7.jpg' height='90'> <img id='selected'    src='G_2.jpg' height='90'> <img src='G_5.jpg' height='90'> <img src='G_6.jpg' height='90'> <img src='G_8.jpg' height='90'> <img src='G_3.jpg' height='90'>","null","Animation1",""
"","","","","","html-keyboard-response","125","264829","0.0-72.0","67","1","2025-01-31 01:31:58","af8d355d56820e421d246a7037deb6e6","172.84.188.3","Mozilla/5.0 (Windows NT 10.0; Win64; x64) AppleWebKit/537.36 (KHTML, like Gecko) Chrome/132.0.0.0 Safari/537.36","WebKit","Chrome","132.0.0.0","Windows","10.0","https://app.prolific.com/","en-US,en;q=0.9","65e0fc6b883b6a493d50e0a5","67949641171f97c04e14fb34","679c244fbd215cb22adc8870","","null","<img    src='G_4.jpg' height='90'> <img    src='G_1.jpg' height='90'> <img    src='G_7.jpg' height='90'> <img id='selected'    src='G_2.jpg' height='90'> <img id='selected' src='G_5.jpg' height='90'> <img src='G_6.jpg' height='90'> <img src='G_8.jpg' height='90'> <img src='G_3.jpg' height='90'>","null","Animation1",""
"","","","","","html-keyboard-response","126","265350","0.0-73.0","67","1","2025-01-31 01:31:58","af8d355d56820e421d246a7037deb6e6","172.84.188.3","Mozilla/5.0 (Windows NT 10.0; Win64; x64) AppleWebKit/537.36 (KHTML, like Gecko) Chrome/132.0.0.0 Safari/537.36","WebKit","Chrome","132.0.0.0","Windows","10.0","https://app.prolific.com/","en-US,en;q=0.9","65e0fc6b883b6a493d50e0a5","67949641171f97c04e14fb34","679c244fbd215cb22adc8870","","null","<img    src='G_4.jpg' height='90'> <img    src='G_1.jpg' height='90'> <img    src='G_7.jpg' height='90'> <img id='swapped' src='G_5.jpg' height='90'> <img id='swapped'    src='G_2.jpg' height='90'> <img src='G_6.jpg' height='90'> <img src='G_8.jpg' height='90'> <img src='G_3.jpg' height='90'>","null","Animation1",""
"","","","","","html-keyboard-response","127","265666","0.0-74.0","67","1","2025-01-31 01:31:58","af8d355d56820e421d246a7037deb6e6","172.84.188.3","Mozilla/5.0 (Windows NT 10.0; Win64; x64) AppleWebKit/537.36 (KHTML, like Gecko) Chrome/132.0.0.0 Safari/537.36","WebKit","Chrome","132.0.0.0","Windows","10.0","https://app.prolific.com/","en-US,en;q=0.9","65e0fc6b883b6a493d50e0a5","67949641171f97c04e14fb34","679c244fbd215cb22adc8870","","null","<img    src='G_4.jpg' height='90'> <img    src='G_1.jpg' height='90'> <img    src='G_7.jpg' height='90'> <img  src='G_5.jpg' height='90'> <img     src='G_2.jpg' height='90'> <img src='G_6.jpg' height='90'> <img src='G_8.jpg' height='90'> <img src='G_3.jpg' height='90'>","null","Animation1",""
"","","","","","html-keyboard-response","128","266181","0.0-75.0","67","1","2025-01-31 01:31:58","af8d355d56820e421d246a7037deb6e6","172.84.188.3","Mozilla/5.0 (Windows NT 10.0; Win64; x64) AppleWebKit/537.36 (KHTML, like Gecko) Chrome/132.0.0.0 Safari/537.36","WebKit","Chrome","132.0.0.0","Windows","10.0","https://app.prolific.com/","en-US,en;q=0.9","65e0fc6b883b6a493d50e0a5","67949641171f97c04e14fb34","679c244fbd215cb22adc8870","","null","<img    src='G_4.jpg' height='90'> <img    src='G_1.jpg' height='90'> <img id='selected'    src='G_7.jpg' height='90'> <img  src='G_5.jpg' height='90'> <img     src='G_2.jpg' height='90'> <img src='G_6.jpg' height='90'> <img src='G_8.jpg' height='90'> <img src='G_3.jpg' height='90'>","null","Animation1",""
"","","","","","html-keyboard-response","129","266696","0.0-76.0","67","1","2025-01-31 01:31:58","af8d355d56820e421d246a7037deb6e6","172.84.188.3","Mozilla/5.0 (Windows NT 10.0; Win64; x64) AppleWebKit/537.36 (KHTML, like Gecko) Chrome/132.0.0.0 Safari/537.36","WebKit","Chrome","132.0.0.0","Windows","10.0","https://app.prolific.com/","en-US,en;q=0.9","65e0fc6b883b6a493d50e0a5","67949641171f97c04e14fb34","679c244fbd215cb22adc8870","","null","<img    src='G_4.jpg' height='90'> <img    src='G_1.jpg' height='90'> <img id='selected'    src='G_7.jpg' height='90'> <img id='selected'  src='G_5.jpg' height='90'> <img     src='G_2.jpg' height='90'> <img src='G_6.jpg' height='90'> <img src='G_8.jpg' height='90'> <img src='G_3.jpg' height='90'>","null","Animation1",""
"","","","","","html-keyboard-response","130","267207","0.0-77.0","67","1","2025-01-31 01:31:58","af8d355d56820e421d246a7037deb6e6","172.84.188.3","Mozilla/5.0 (Windows NT 10.0; Win64; x64) AppleWebKit/537.36 (KHTML, like Gecko) Chrome/132.0.0.0 Safari/537.36","WebKit","Chrome","132.0.0.0","Windows","10.0","https://app.prolific.com/","en-US,en;q=0.9","65e0fc6b883b6a493d50e0a5","67949641171f97c04e14fb34","679c244fbd215cb22adc8870","","null","<img    src='G_4.jpg' height='90'> <img    src='G_1.jpg' height='90'> <img id='swapped'  src='G_5.jpg' height='90'> <img id='swapped'    src='G_7.jpg' height='90'> <img     src='G_2.jpg' height='90'> <img src='G_6.jpg' height='90'> <img src='G_8.jpg' height='90'> <img src='G_3.jpg' height='90'>","null","Animation1",""
"","","","","","html-keyboard-response","131","267527","0.0-78.0","67","1","2025-01-31 01:31:58","af8d355d56820e421d246a7037deb6e6","172.84.188.3","Mozilla/5.0 (Windows NT 10.0; Win64; x64) AppleWebKit/537.36 (KHTML, like Gecko) Chrome/132.0.0.0 Safari/537.36","WebKit","Chrome","132.0.0.0","Windows","10.0","https://app.prolific.com/","en-US,en;q=0.9","65e0fc6b883b6a493d50e0a5","67949641171f97c04e14fb34","679c244fbd215cb22adc8870","","null","<img    src='G_4.jpg' height='90'> <img    src='G_1.jpg' height='90'> <img   src='G_5.jpg' height='90'> <img     src='G_7.jpg' height='90'> <img     src='G_2.jpg' height='90'> <img src='G_6.jpg' height='90'> <img src='G_8.jpg' height='90'> <img src='G_3.jpg' height='90'>","null","Animation1",""
"","","","","","html-keyboard-response","132","268049","0.0-79.0","67","1","2025-01-31 01:31:58","af8d355d56820e421d246a7037deb6e6","172.84.188.3","Mozilla/5.0 (Windows NT 10.0; Win64; x64) AppleWebKit/537.36 (KHTML, like Gecko) Chrome/132.0.0.0 Safari/537.36","WebKit","Chrome","132.0.0.0","Windows","10.0","https://app.prolific.com/","en-US,en;q=0.9","65e0fc6b883b6a493d50e0a5","67949641171f97c04e14fb34","679c244fbd215cb22adc8870","","null","<img    src='G_4.jpg' height='90'> <img id='selected'    src='G_1.jpg' height='90'> <img   src='G_5.jpg' height='90'> <img     src='G_7.jpg' height='90'> <img     src='G_2.jpg' height='90'> <img src='G_6.jpg' height='90'> <img src='G_8.jpg' height='90'> <img src='G_3.jpg' height='90'>","null","Animation1",""
"","","","","","html-keyboard-response","133","268563","0.0-80.0","67","1","2025-01-31 01:31:58","af8d355d56820e421d246a7037deb6e6","172.84.188.3","Mozilla/5.0 (Windows NT 10.0; Win64; x64) AppleWebKit/537.36 (KHTML, like Gecko) Chrome/132.0.0.0 Safari/537.36","WebKit","Chrome","132.0.0.0","Windows","10.0","https://app.prolific.com/","en-US,en;q=0.9","65e0fc6b883b6a493d50e0a5","67949641171f97c04e14fb34","679c244fbd215cb22adc8870","","null","<img    src='G_4.jpg' height='90'> <img id='selected'    src='G_1.jpg' height='90'> <img id='selected'   src='G_5.jpg' height='90'> <img     src='G_7.jpg' height='90'> <img     src='G_2.jpg' height='90'> <img src='G_6.jpg' height='90'> <img src='G_8.jpg' height='90'> <img src='G_3.jpg' height='90'>","null","Animation1",""
"","","","","","html-keyboard-response","134","269076","0.0-81.0","67","1","2025-01-31 01:31:58","af8d355d56820e421d246a7037deb6e6","172.84.188.3","Mozilla/5.0 (Windows NT 10.0; Win64; x64) AppleWebKit/537.36 (KHTML, like Gecko) Chrome/132.0.0.0 Safari/537.36","WebKit","Chrome","132.0.0.0","Windows","10.0","https://app.prolific.com/","en-US,en;q=0.9","65e0fc6b883b6a493d50e0a5","67949641171f97c04e14fb34","679c244fbd215cb22adc8870","","null","<img    src='G_4.jpg' height='90'> <img id='swapped'   src='G_5.jpg' height='90'> <img id='swapped'    src='G_1.jpg' height='90'> <img     src='G_7.jpg' height='90'> <img     src='G_2.jpg' height='90'> <img src='G_6.jpg' height='90'> <img src='G_8.jpg' height='90'> <img src='G_3.jpg' height='90'>","null","Animation1",""
"","","","","","html-keyboard-response","135","269398","0.0-82.0","67","1","2025-01-31 01:31:58","af8d355d56820e421d246a7037deb6e6","172.84.188.3","Mozilla/5.0 (Windows NT 10.0; Win64; x64) AppleWebKit/537.36 (KHTML, like Gecko) Chrome/132.0.0.0 Safari/537.36","WebKit","Chrome","132.0.0.0","Windows","10.0","https://app.prolific.com/","en-US,en;q=0.9","65e0fc6b883b6a493d50e0a5","67949641171f97c04e14fb34","679c244fbd215cb22adc8870","","null","<img    src='G_4.jpg' height='90'> <img    src='G_5.jpg' height='90'> <img     src='G_1.jpg' height='90'> <img     src='G_7.jpg' height='90'> <img     src='G_2.jpg' height='90'> <img src='G_6.jpg' height='90'> <img src='G_8.jpg' height='90'> <img src='G_3.jpg' height='90'>","null","Animation1",""
"","","","","","html-keyboard-response","136","269912","0.0-83.0","67","1","2025-01-31 01:31:58","af8d355d56820e421d246a7037deb6e6","172.84.188.3","Mozilla/5.0 (Windows NT 10.0; Win64; x64) AppleWebKit/537.36 (KHTML, like Gecko) Chrome/132.0.0.0 Safari/537.36","WebKit","Chrome","132.0.0.0","Windows","10.0","https://app.prolific.com/","en-US,en;q=0.9","65e0fc6b883b6a493d50e0a5","67949641171f97c04e14fb34","679c244fbd215cb22adc8870","","null","<img id='selected'    src='G_4.jpg' height='90'> <img    src='G_5.jpg' height='90'> <img     src='G_1.jpg' height='90'> <img     src='G_7.jpg' height='90'> <img     src='G_2.jpg' height='90'> <img src='G_6.jpg' height='90'> <img src='G_8.jpg' height='90'> <img src='G_3.jpg' height='90'>","null","Animation1",""
"","","","","","html-keyboard-response","137","270426","0.0-84.0","67","1","2025-01-31 01:31:58","af8d355d56820e421d246a7037deb6e6","172.84.188.3","Mozilla/5.0 (Windows NT 10.0; Win64; x64) AppleWebKit/537.36 (KHTML, like Gecko) Chrome/132.0.0.0 Safari/537.36","WebKit","Chrome","132.0.0.0","Windows","10.0","https://app.prolific.com/","en-US,en;q=0.9","65e0fc6b883b6a493d50e0a5","67949641171f97c04e14fb34","679c244fbd215cb22adc8870","","null","<img id='selected'    src='G_4.jpg' height='90'> <img id='selected'    src='G_5.jpg' height='90'> <img     src='G_1.jpg' height='90'> <img     src='G_7.jpg' height='90'> <img     src='G_2.jpg' height='90'> <img src='G_6.jpg' height='90'> <img src='G_8.jpg' height='90'> <img src='G_3.jpg' height='90'>","null","Animation1",""
"","","","","","html-keyboard-response","138","270941","0.0-85.0","67","1","2025-01-31 01:31:58","af8d355d56820e421d246a7037deb6e6","172.84.188.3","Mozilla/5.0 (Windows NT 10.0; Win64; x64) AppleWebKit/537.36 (KHTML, like Gecko) Chrome/132.0.0.0 Safari/537.36","WebKit","Chrome","132.0.0.0","Windows","10.0","https://app.prolific.com/","en-US,en;q=0.9","65e0fc6b883b6a493d50e0a5","67949641171f97c04e14fb34","679c244fbd215cb22adc8870","","null","<img id='selected'    src='G_4.jpg' height='90'> <img id='selected'    src='G_5.jpg' height='90'> <img     src='G_1.jpg' height='90'> <img     src='G_7.jpg' height='90'> <img     src='G_2.jpg' height='90'> <img src='G_6.jpg' height='90'> <img src='G_8.jpg' height='90'> <img src='G_3.jpg' height='90'>","null","Animation1",""
"","","","","","html-keyboard-response","139","271257","0.0-86.0","67","1","2025-01-31 01:31:58","af8d355d56820e421d246a7037deb6e6","172.84.188.3","Mozilla/5.0 (Windows NT 10.0; Win64; x64) AppleWebKit/537.36 (KHTML, like Gecko) Chrome/132.0.0.0 Safari/537.36","WebKit","Chrome","132.0.0.0","Windows","10.0","https://app.prolific.com/","en-US,en;q=0.9","65e0fc6b883b6a493d50e0a5","67949641171f97c04e14fb34","679c244fbd215cb22adc8870","","null","<img     src='G_4.jpg' height='90'> <img     src='G_5.jpg' height='90'> <img     src='G_1.jpg' height='90'> <img     src='G_7.jpg' height='90'> <img     src='G_2.jpg' height='90'> <img src='G_6.jpg' height='90'> <img src='G_8.jpg' height='90'> <img src='G_3.jpg' height='90'>","null","Animation1",""
"","","","","","html-keyboard-response","140","271781","0.0-87.0","67","1","2025-01-31 01:31:58","af8d355d56820e421d246a7037deb6e6","172.84.188.3","Mozilla/5.0 (Windows NT 10.0; Win64; x64) AppleWebKit/537.36 (KHTML, like Gecko) Chrome/132.0.0.0 Safari/537.36","WebKit","Chrome","132.0.0.0","Windows","10.0","https://app.prolific.com/","en-US,en;q=0.9","65e0fc6b883b6a493d50e0a5","67949641171f97c04e14fb34","679c244fbd215cb22adc8870","","null","<img     src='G_4.jpg' height='90'> <img     src='G_5.jpg' height='90'> <img     src='G_1.jpg' height='90'> <img     src='G_7.jpg' height='90'> <img id='selected'     src='G_2.jpg' height='90'> <img src='G_6.jpg' height='90'> <img src='G_8.jpg' height='90'> <img src='G_3.jpg' height='90'>","null","Animation1",""
"","","","","","html-keyboard-response","141","272293","0.0-88.0","67","1","2025-01-31 01:31:58","af8d355d56820e421d246a7037deb6e6","172.84.188.3","Mozilla/5.0 (Windows NT 10.0; Win64; x64) AppleWebKit/537.36 (KHTML, like Gecko) Chrome/132.0.0.0 Safari/537.36","WebKit","Chrome","132.0.0.0","Windows","10.0","https://app.prolific.com/","en-US,en;q=0.9","65e0fc6b883b6a493d50e0a5","67949641171f97c04e14fb34","679c244fbd215cb22adc8870","","null","<img     src='G_4.jpg' height='90'> <img     src='G_5.jpg' height='90'> <img     src='G_1.jpg' height='90'> <img     src='G_7.jpg' height='90'> <img id='selected'     src='G_2.jpg' height='90'> <img id='selected' src='G_6.jpg' height='90'> <img src='G_8.jpg' height='90'> <img src='G_3.jpg' height='90'>","null","Animation1",""
"","","","","","html-keyboard-response","142","272804","0.0-89.0","67","1","2025-01-31 01:31:58","af8d355d56820e421d246a7037deb6e6","172.84.188.3","Mozilla/5.0 (Windows NT 10.0; Win64; x64) AppleWebKit/537.36 (KHTML, like Gecko) Chrome/132.0.0.0 Safari/537.36","WebKit","Chrome","132.0.0.0","Windows","10.0","https://app.prolific.com/","en-US,en;q=0.9","65e0fc6b883b6a493d50e0a5","67949641171f97c04e14fb34","679c244fbd215cb22adc8870","","null","<img     src='G_4.jpg' height='90'> <img     src='G_5.jpg' height='90'> <img     src='G_1.jpg' height='90'> <img     src='G_7.jpg' height='90'> <img id='swapped' src='G_6.jpg' height='90'> <img id='swapped'     src='G_2.jpg' height='90'> <img src='G_8.jpg' height='90'> <img src='G_3.jpg' height='90'>","null","Animation1",""
"","","","","","html-keyboard-response","143","273118","0.0-90.0","67","1","2025-01-31 01:31:58","af8d355d56820e421d246a7037deb6e6","172.84.188.3","Mozilla/5.0 (Windows NT 10.0; Win64; x64) AppleWebKit/537.36 (KHTML, like Gecko) Chrome/132.0.0.0 Safari/537.36","WebKit","Chrome","132.0.0.0","Windows","10.0","https://app.prolific.com/","en-US,en;q=0.9","65e0fc6b883b6a493d50e0a5","67949641171f97c04e14fb34","679c244fbd215cb22adc8870","","null","<img     src='G_4.jpg' height='90'> <img     src='G_5.jpg' height='90'> <img     src='G_1.jpg' height='90'> <img     src='G_7.jpg' height='90'> <img  src='G_6.jpg' height='90'> <img      src='G_2.jpg' height='90'> <img src='G_8.jpg' height='90'> <img src='G_3.jpg' height='90'>","null","Animation1",""
"","","","","","html-keyboard-response","144","273630","0.0-91.0","67","1","2025-01-31 01:31:58","af8d355d56820e421d246a7037deb6e6","172.84.188.3","Mozilla/5.0 (Windows NT 10.0; Win64; x64) AppleWebKit/537.36 (KHTML, like Gecko) Chrome/132.0.0.0 Safari/537.36","WebKit","Chrome","132.0.0.0","Windows","10.0","https://app.prolific.com/","en-US,en;q=0.9","65e0fc6b883b6a493d50e0a5","67949641171f97c04e14fb34","679c244fbd215cb22adc8870","","null","<img     src='G_4.jpg' height='90'> <img     src='G_5.jpg' height='90'> <img     src='G_1.jpg' height='90'> <img id='selected'     src='G_7.jpg' height='90'> <img  src='G_6.jpg' height='90'> <img      src='G_2.jpg' height='90'> <img src='G_8.jpg' height='90'> <img src='G_3.jpg' height='90'>","null","Animation1",""
"","","","","","html-keyboard-response","145","274149","0.0-92.0","67","1","2025-01-31 01:31:58","af8d355d56820e421d246a7037deb6e6","172.84.188.3","Mozilla/5.0 (Windows NT 10.0; Win64; x64) AppleWebKit/537.36 (KHTML, like Gecko) Chrome/132.0.0.0 Safari/537.36","WebKit","Chrome","132.0.0.0","Windows","10.0","https://app.prolific.com/","en-US,en;q=0.9","65e0fc6b883b6a493d50e0a5","67949641171f97c04e14fb34","679c244fbd215cb22adc8870","","null","<img     src='G_4.jpg' height='90'> <img     src='G_5.jpg' height='90'> <img     src='G_1.jpg' height='90'> <img id='selected'     src='G_7.jpg' height='90'> <img id='selected'  src='G_6.jpg' height='90'> <img      src='G_2.jpg' height='90'> <img src='G_8.jpg' height='90'> <img src='G_3.jpg' height='90'>","null","Animation1",""
"","","","","","html-keyboard-response","146","274661","0.0-93.0","67","1","2025-01-31 01:31:58","af8d355d56820e421d246a7037deb6e6","172.84.188.3","Mozilla/5.0 (Windows NT 10.0; Win64; x64) AppleWebKit/537.36 (KHTML, like Gecko) Chrome/132.0.0.0 Safari/537.36","WebKit","Chrome","132.0.0.0","Windows","10.0","https://app.prolific.com/","en-US,en;q=0.9","65e0fc6b883b6a493d50e0a5","67949641171f97c04e14fb34","679c244fbd215cb22adc8870","","null","<img     src='G_4.jpg' height='90'> <img     src='G_5.jpg' height='90'> <img     src='G_1.jpg' height='90'> <img id='selected'     src='G_7.jpg' height='90'> <img id='selected'  src='G_6.jpg' height='90'> <img      src='G_2.jpg' height='90'> <img src='G_8.jpg' height='90'> <img src='G_3.jpg' height='90'>","null","Animation1",""
"","","","","","html-keyboard-response","147","274982","0.0-94.0","67","1","2025-01-31 01:31:58","af8d355d56820e421d246a7037deb6e6","172.84.188.3","Mozilla/5.0 (Windows NT 10.0; Win64; x64) AppleWebKit/537.36 (KHTML, like Gecko) Chrome/132.0.0.0 Safari/537.36","WebKit","Chrome","132.0.0.0","Windows","10.0","https://app.prolific.com/","en-US,en;q=0.9","65e0fc6b883b6a493d50e0a5","67949641171f97c04e14fb34","679c244fbd215cb22adc8870","","null","<img     src='G_4.jpg' height='90'> <img     src='G_5.jpg' height='90'> <img     src='G_1.jpg' height='90'> <img      src='G_7.jpg' height='90'> <img   src='G_6.jpg' height='90'> <img      src='G_2.jpg' height='90'> <img src='G_8.jpg' height='90'> <img src='G_3.jpg' height='90'>","null","Animation1",""
"","","","","","html-keyboard-response","148","275491","0.0-95.0","67","1","2025-01-31 01:31:58","af8d355d56820e421d246a7037deb6e6","172.84.188.3","Mozilla/5.0 (Windows NT 10.0; Win64; x64) AppleWebKit/537.36 (KHTML, like Gecko) Chrome/132.0.0.0 Safari/537.36","WebKit","Chrome","132.0.0.0","Windows","10.0","https://app.prolific.com/","en-US,en;q=0.9","65e0fc6b883b6a493d50e0a5","67949641171f97c04e14fb34","679c244fbd215cb22adc8870","","null","<img     src='G_4.jpg' height='90'> <img     src='G_5.jpg' height='90'> <img     src='G_1.jpg' height='90'> <img      src='G_7.jpg' height='90'> <img   src='G_6.jpg' height='90'> <img id='selected'      src='G_2.jpg' height='90'> <img src='G_8.jpg' height='90'> <img src='G_3.jpg' height='90'>","null","Animation1",""
"","","","","","html-keyboard-response","149","276005","0.0-96.0","67","1","2025-01-31 01:31:58","af8d355d56820e421d246a7037deb6e6","172.84.188.3","Mozilla/5.0 (Windows NT 10.0; Win64; x64) AppleWebKit/537.36 (KHTML, like Gecko) Chrome/132.0.0.0 Safari/537.36","WebKit","Chrome","132.0.0.0","Windows","10.0","https://app.prolific.com/","en-US,en;q=0.9","65e0fc6b883b6a493d50e0a5","67949641171f97c04e14fb34","679c244fbd215cb22adc8870","","null","<img     src='G_4.jpg' height='90'> <img     src='G_5.jpg' height='90'> <img     src='G_1.jpg' height='90'> <img      src='G_7.jpg' height='90'> <img   src='G_6.jpg' height='90'> <img id='selected'      src='G_2.jpg' height='90'> <img id='selected' src='G_8.jpg' height='90'> <img src='G_3.jpg' height='90'>","null","Animation1",""
"","","","","","html-keyboard-response","150","276525","0.0-97.0","67","1","2025-01-31 01:31:58","af8d355d56820e421d246a7037deb6e6","172.84.188.3","Mozilla/5.0 (Windows NT 10.0; Win64; x64) AppleWebKit/537.36 (KHTML, like Gecko) Chrome/132.0.0.0 Safari/537.36","WebKit","Chrome","132.0.0.0","Windows","10.0","https://app.prolific.com/","en-US,en;q=0.9","65e0fc6b883b6a493d50e0a5","67949641171f97c04e14fb34","679c244fbd215cb22adc8870","","null","<img     src='G_4.jpg' height='90'> <img     src='G_5.jpg' height='90'> <img     src='G_1.jpg' height='90'> <img      src='G_7.jpg' height='90'> <img   src='G_6.jpg' height='90'> <img id='selected'      src='G_2.jpg' height='90'> <img id='selected' src='G_8.jpg' height='90'> <img src='G_3.jpg' height='90'>","null","Animation1",""
"","","","","","html-keyboard-response","151","276847","0.0-98.0","67","1","2025-01-31 01:31:58","af8d355d56820e421d246a7037deb6e6","172.84.188.3","Mozilla/5.0 (Windows NT 10.0; Win64; x64) AppleWebKit/537.36 (KHTML, like Gecko) Chrome/132.0.0.0 Safari/537.36","WebKit","Chrome","132.0.0.0","Windows","10.0","https://app.prolific.com/","en-US,en;q=0.9","65e0fc6b883b6a493d50e0a5","67949641171f97c04e14fb34","679c244fbd215cb22adc8870","","null","<img     src='G_4.jpg' height='90'> <img     src='G_5.jpg' height='90'> <img     src='G_1.jpg' height='90'> <img      src='G_7.jpg' height='90'> <img   src='G_6.jpg' height='90'> <img       src='G_2.jpg' height='90'> <img  src='G_8.jpg' height='90'> <img src='G_3.jpg' height='90'>","null","Animation1",""
"","","","","","html-keyboard-response","152","277370","0.0-99.0","67","1","2025-01-31 01:31:58","af8d355d56820e421d246a7037deb6e6","172.84.188.3","Mozilla/5.0 (Windows NT 10.0; Win64; x64) AppleWebKit/537.36 (KHTML, like Gecko) Chrome/132.0.0.0 Safari/537.36","WebKit","Chrome","132.0.0.0","Windows","10.0","https://app.prolific.com/","en-US,en;q=0.9","65e0fc6b883b6a493d50e0a5","67949641171f97c04e14fb34","679c244fbd215cb22adc8870","","null","<img     src='G_4.jpg' height='90'> <img     src='G_5.jpg' height='90'> <img     src='G_1.jpg' height='90'> <img      src='G_7.jpg' height='90'> <img   src='G_6.jpg' height='90'> <img       src='G_2.jpg' height='90'> <img id='selected'  src='G_8.jpg' height='90'> <img src='G_3.jpg' height='90'>","null","Animation1",""
