"success","timeout","failed_images","failed_audio","failed_video","trial_type","trial_index","time_elapsed","internal_node_id","run_id","condition","recorded_at","source_code_version","ip","user_agent","device","browser","browser_version","platform","platform_version","referer","accept_language","PROLIFIC_PID","STUDY_ID","SESSION_ID","view_history","rt","stimulus","response","phase","question_order"
"true","false","[]","[]","[]","preload","0","5923","0.0-0.0","68","1","2025-01-31 01:35:15","af8d355d56820e421d246a7037deb6e6","74.80.146.15","Mozilla/5.0 (Windows NT 10.0; Win64; x64) AppleWebKit/537.36 (KHTML, like Gecko) Chrome/132.0.0.0 Safari/537.36","WebKit","Chrome","132.0.0.0","Windows","10.0","https://app.prolific.com/","en-US,en;q=0.9","6733ba14d32d1b6b8d4b11d8","67949641171f97c04e14fb34","679c247da3b54befff92aa42","","","","","",""
"","","","","","instructions","1","389531","0.0-1.0","68","1","2025-01-31 01:35:15","af8d355d56820e421d246a7037deb6e6","74.80.146.15","Mozilla/5.0 (Windows NT 10.0; Win64; x64) AppleWebKit/537.36 (KHTML, like Gecko) Chrome/132.0.0.0 Safari/537.36","WebKit","Chrome","132.0.0.0","Windows","10.0","https://app.prolific.com/","en-US,en;q=0.9","6733ba14d32d1b6b8d4b11d8","67949641171f97c04e14fb34","679c247da3b54befff92aa42","[{""page_index"":0,""viewing_time"":383601}]","383602","","","",""
"","","","","","html-keyboard-response","2","390047","0.0-2.0","68","1","2025-01-31 01:35:15","af8d355d56820e421d246a7037deb6e6","74.80.146.15","Mozilla/5.0 (Windows NT 10.0; Win64; x64) AppleWebKit/537.36 (KHTML, like Gecko) Chrome/132.0.0.0 Safari/537.36","WebKit","Chrome","132.0.0.0","Windows","10.0","https://app.prolific.com/","en-US,en;q=0.9","6733ba14d32d1b6b8d4b11d8","67949641171f97c04e14fb34","679c247da3b54befff92aa42","","null","<p> + <p/>","null","",""
"","","","","","instructions","3","437272","0.0-3.0","68","1","2025-01-31 01:35:15","af8d355d56820e421d246a7037deb6e6","74.80.146.15","Mozilla/5.0 (Windows NT 10.0; Win64; x64) AppleWebKit/537.36 (KHTML, like Gecko) Chrome/132.0.0.0 Safari/537.36","WebKit","Chrome","132.0.0.0","Windows","10.0","https://app.prolific.com/","en-US,en;q=0.9","6733ba14d32d1b6b8d4b11d8","67949641171f97c04e14fb34","679c247da3b54befff92aa42","[{""page_index"":0,""viewing_time"":36864},{""page_index"":1,""viewing_time"":3034},{""page_index"":2,""viewing_time"":1787},{""page_index"":3,""viewing_time"":2585},{""page_index"":4,""viewing_time"":2953}]","47222","","","",""
"","","","","","html-button-response","4","439244","0.0-4.0-0.0-0.0","68","1","2025-01-31 01:35:15","af8d355d56820e421d246a7037deb6e6","74.80.146.15","Mozilla/5.0 (Windows NT 10.0; Win64; x64) AppleWebKit/537.36 (KHTML, like Gecko) Chrome/132.0.0.0 Safari/537.36","WebKit","Chrome","132.0.0.0","Windows","10.0","https://app.prolific.com/","en-US,en;q=0.9","6733ba14d32d1b6b8d4b11d8","67949641171f97c04e14fb34","679c247da3b54befff92aa42","","1967","","0","Intro Trial",""
"","","","","","html-button-response","5","439456","0.0-4.1-0.1-0.1","68","1","2025-01-31 01:35:15","af8d355d56820e421d246a7037deb6e6","74.80.146.15","Mozilla/5.0 (Windows NT 10.0; Win64; x64) AppleWebKit/537.36 (KHTML, like Gecko) Chrome/132.0.0.0 Safari/537.36","WebKit","Chrome","132.0.0.0","Windows","10.0","https://app.prolific.com/","en-US,en;q=0.9","6733ba14d32d1b6b8d4b11d8","67949641171f97c04e14fb34","679c247da3b54befff92aa42","","210","","1","Intro Trial",""
"","","","","","html-button-response","6","443812","0.0-4.2-0.2-0.2","68","1","2025-01-31 01:35:15","af8d355d56820e421d246a7037deb6e6","74.80.146.15","Mozilla/5.0 (Windows NT 10.0; Win64; x64) AppleWebKit/537.36 (KHTML, like Gecko) Chrome/132.0.0.0 Safari/537.36","WebKit","Chrome","132.0.0.0","Windows","10.0","https://app.prolific.com/","en-US,en;q=0.9","6733ba14d32d1b6b8d4b11d8","67949641171f97c04e14fb34","679c247da3b54befff92aa42","","4354","","0","Intro Trial",""
"","","","","","html-button-response","7","444084","0.0-4.3-0.3-0.3","68","1","2025-01-31 01:35:15","af8d355d56820e421d246a7037deb6e6","74.80.146.15","Mozilla/5.0 (Windows NT 10.0; Win64; x64) AppleWebKit/537.36 (KHTML, like Gecko) Chrome/132.0.0.0 Safari/537.36","WebKit","Chrome","132.0.0.0","Windows","10.0","https://app.prolific.com/","en-US,en;q=0.9","6733ba14d32d1b6b8d4b11d8","67949641171f97c04e14fb34","679c247da3b54befff92aa42","","268","","1","Intro Trial",""
"","","","","","html-button-response","8","449396","0.0-4.4-0.4-0.4","68","1","2025-01-31 01:35:15","af8d355d56820e421d246a7037deb6e6","74.80.146.15","Mozilla/5.0 (Windows NT 10.0; Win64; x64) AppleWebKit/537.36 (KHTML, like Gecko) Chrome/132.0.0.0 Safari/537.36","WebKit","Chrome","132.0.0.0","Windows","10.0","https://app.prolific.com/","en-US,en;q=0.9","6733ba14d32d1b6b8d4b11d8","67949641171f97c04e14fb34","679c247da3b54befff92aa42","","5310","","0","Intro Trial",""
"","","","","","html-button-response","9","449784","0.0-4.5-0.5-0.5","68","1","2025-01-31 01:35:15","af8d355d56820e421d246a7037deb6e6","74.80.146.15","Mozilla/5.0 (Windows NT 10.0; Win64; x64) AppleWebKit/537.36 (KHTML, like Gecko) Chrome/132.0.0.0 Safari/537.36","WebKit","Chrome","132.0.0.0","Windows","10.0","https://app.prolific.com/","en-US,en;q=0.9","6733ba14d32d1b6b8d4b11d8","67949641171f97c04e14fb34","679c247da3b54befff92aa42","","384","","1","Intro Trial",""
"","","","","","html-button-response","10","450594","0.0-4.6-0.6-0.6","68","1","2025-01-31 01:35:15","af8d355d56820e421d246a7037deb6e6","74.80.146.15","Mozilla/5.0 (Windows NT 10.0; Win64; x64) AppleWebKit/537.36 (KHTML, like Gecko) Chrome/132.0.0.0 Safari/537.36","WebKit","Chrome","132.0.0.0","Windows","10.0","https://app.prolific.com/","en-US,en;q=0.9","6733ba14d32d1b6b8d4b11d8","67949641171f97c04e14fb34","679c247da3b54befff92aa42","","805","","0","Intro Trial",""
"","","","","","html-button-response","11","450979","0.0-4.7-0.7-0.7","68","1","2025-01-31 01:35:15","af8d355d56820e421d246a7037deb6e6","74.80.146.15","Mozilla/5.0 (Windows NT 10.0; Win64; x64) AppleWebKit/537.36 (KHTML, like Gecko) Chrome/132.0.0.0 Safari/537.36","WebKit","Chrome","132.0.0.0","Windows","10.0","https://app.prolific.com/","en-US,en;q=0.9","6733ba14d32d1b6b8d4b11d8","67949641171f97c04e14fb34","679c247da3b54befff92aa42","","377","","2","Intro Trial",""
"","","","","","html-button-response","12","451479","0.0-4.8-0.8-0.8","68","1","2025-01-31 01:35:15","af8d355d56820e421d246a7037deb6e6","74.80.146.15","Mozilla/5.0 (Windows NT 10.0; Win64; x64) AppleWebKit/537.36 (KHTML, like Gecko) Chrome/132.0.0.0 Safari/537.36","WebKit","Chrome","132.0.0.0","Windows","10.0","https://app.prolific.com/","en-US,en;q=0.9","6733ba14d32d1b6b8d4b11d8","67949641171f97c04e14fb34","679c247da3b54befff92aa42","","495","","1","Intro Trial",""
"","","","","","html-button-response","13","451747","0.0-4.9-0.9-0.9","68","1","2025-01-31 01:35:15","af8d355d56820e421d246a7037deb6e6","74.80.146.15","Mozilla/5.0 (Windows NT 10.0; Win64; x64) AppleWebKit/537.36 (KHTML, like Gecko) Chrome/132.0.0.0 Safari/537.36","WebKit","Chrome","132.0.0.0","Windows","10.0","https://app.prolific.com/","en-US,en;q=0.9","6733ba14d32d1b6b8d4b11d8","67949641171f97c04e14fb34","679c247da3b54befff92aa42","","264","","2","Intro Trial",""
"","","","","","html-button-response","14","452869","0.0-4.10-0.10-0.10","68","1","2025-01-31 01:35:15","af8d355d56820e421d246a7037deb6e6","74.80.146.15","Mozilla/5.0 (Windows NT 10.0; Win64; x64) AppleWebKit/537.36 (KHTML, like Gecko) Chrome/132.0.0.0 Safari/537.36","WebKit","Chrome","132.0.0.0","Windows","10.0","https://app.prolific.com/","en-US,en;q=0.9","6733ba14d32d1b6b8d4b11d8","67949641171f97c04e14fb34","679c247da3b54befff92aa42","","1118","","2","Intro Trial",""
"","","","","","html-button-response","15","453225","0.0-4.11-0.11-0.11","68","1","2025-01-31 01:35:15","af8d355d56820e421d246a7037deb6e6","74.80.146.15","Mozilla/5.0 (Windows NT 10.0; Win64; x64) AppleWebKit/537.36 (KHTML, like Gecko) Chrome/132.0.0.0 Safari/537.36","WebKit","Chrome","132.0.0.0","Windows","10.0","https://app.prolific.com/","en-US,en;q=0.9","6733ba14d32d1b6b8d4b11d8","67949641171f97c04e14fb34","679c247da3b54befff92aa42","","352","","3","Intro Trial",""
"","","","","","html-button-response","16","454159","0.0-4.12-0.12-0.12","68","1","2025-01-31 01:35:15","af8d355d56820e421d246a7037deb6e6","74.80.146.15","Mozilla/5.0 (Windows NT 10.0; Win64; x64) AppleWebKit/537.36 (KHTML, like Gecko) Chrome/132.0.0.0 Safari/537.36","WebKit","Chrome","132.0.0.0","Windows","10.0","https://app.prolific.com/","en-US,en;q=0.9","6733ba14d32d1b6b8d4b11d8","67949641171f97c04e14fb34","679c247da3b54befff92aa42","","930","","3","Intro Trial",""
"","","","","","html-button-response","17","454408","0.0-4.13-0.13-0.13","68","1","2025-01-31 01:35:15","af8d355d56820e421d246a7037deb6e6","74.80.146.15","Mozilla/5.0 (Windows NT 10.0; Win64; x64) AppleWebKit/537.36 (KHTML, like Gecko) Chrome/132.0.0.0 Safari/537.36","WebKit","Chrome","132.0.0.0","Windows","10.0","https://app.prolific.com/","en-US,en;q=0.9","6733ba14d32d1b6b8d4b11d8","67949641171f97c04e14fb34","679c247da3b54befff92aa42","","245","","2","Intro Trial",""
"","","","","","html-button-response","18","455140","0.0-4.14-0.14-0.14","68","1","2025-01-31 01:35:15","af8d355d56820e421d246a7037deb6e6","74.80.146.15","Mozilla/5.0 (Windows NT 10.0; Win64; x64) AppleWebKit/537.36 (KHTML, like Gecko) Chrome/132.0.0.0 Safari/537.36","WebKit","Chrome","132.0.0.0","Windows","10.0","https://app.prolific.com/","en-US,en;q=0.9","6733ba14d32d1b6b8d4b11d8","67949641171f97c04e14fb34","679c247da3b54befff92aa42","","727","","4","Intro Trial",""
"","","","","","html-button-response","19","455430","0.0-4.15-0.15-0.15","68","1","2025-01-31 01:35:15","af8d355d56820e421d246a7037deb6e6","74.80.146.15","Mozilla/5.0 (Windows NT 10.0; Win64; x64) AppleWebKit/537.36 (KHTML, like Gecko) Chrome/132.0.0.0 Safari/537.36","WebKit","Chrome","132.0.0.0","Windows","10.0","https://app.prolific.com/","en-US,en;q=0.9","6733ba14d32d1b6b8d4b11d8","67949641171f97c04e14fb34","679c247da3b54befff92aa42","","287","","3","Intro Trial",""
"","","","","","html-button-response","20","456568","0.0-4.16-0.16-0.16","68","1","2025-01-31 01:35:15","af8d355d56820e421d246a7037deb6e6","74.80.146.15","Mozilla/5.0 (Windows NT 10.0; Win64; x64) AppleWebKit/537.36 (KHTML, like Gecko) Chrome/132.0.0.0 Safari/537.36","WebKit","Chrome","132.0.0.0","Windows","10.0","https://app.prolific.com/","en-US,en;q=0.9","6733ba14d32d1b6b8d4b11d8","67949641171f97c04e14fb34","679c247da3b54befff92aa42","","1134","","5","Intro Trial",""
"","","","","","html-keyboard-response","21","461913","0.0-5.0","68","1","2025-01-31 01:35:15","af8d355d56820e421d246a7037deb6e6","74.80.146.15","Mozilla/5.0 (Windows NT 10.0; Win64; x64) AppleWebKit/537.36 (KHTML, like Gecko) Chrome/132.0.0.0 Safari/537.36","WebKit","Chrome","132.0.0.0","Windows","10.0","https://app.prolific.com/","en-US,en;q=0.9","6733ba14d32d1b6b8d4b11d8","67949641171f97c04e14fb34","679c247da3b54befff92aa42","","5343","[""You sorted incorrectly by using the balance 8 times. <br><br> <img src='G_2.jpg' height='90'><img src='G_3.jpg' height='90'><img src='G_1.jpg' height='90'><img src='G_5.jpg' height='90'><img src='G_4.jpg' height='90'><br><br> Your final order is 2,3,4,1,5<br><br><br>Omgne Sort in this game will allow you to sort correctly by using the balance 8 times. Press Enter to learn it!""]","enter","",""
"","","","","","html-keyboard-response","22","463201","0.0-6.0","68","1","2025-01-31 01:35:15","af8d355d56820e421d246a7037deb6e6","74.80.146.15","Mozilla/5.0 (Windows NT 10.0; Win64; x64) AppleWebKit/537.36 (KHTML, like Gecko) Chrome/132.0.0.0 Safari/537.36","WebKit","Chrome","132.0.0.0","Windows","10.0","https://app.prolific.com/","en-US,en;q=0.9","6733ba14d32d1b6b8d4b11d8","67949641171f97c04e14fb34","679c247da3b54befff92aa42","","1285","<p>Welcome to the learning phase! <br><br> You will learn by six examples. The following learning trials will not be used to calculate your performance. <br><br> Press Enter to continue.<p/>","enter","",""
"","","","","","html-keyboard-response","23","465113","0.0-7.0","68","1","2025-01-31 01:35:15","af8d355d56820e421d246a7037deb6e6","74.80.146.15","Mozilla/5.0 (Windows NT 10.0; Win64; x64) AppleWebKit/537.36 (KHTML, like Gecko) Chrome/132.0.0.0 Safari/537.36","WebKit","Chrome","132.0.0.0","Windows","10.0","https://app.prolific.com/","en-US,en;q=0.9","6733ba14d32d1b6b8d4b11d8","67949641171f97c04e14fb34","679c247da3b54befff92aa42","","1909","[""Example 1<br><br>You will watch Omnge Sort in action. Try to identify any patterns in the comparisons made by this method. <br><br>Press Enter to continue.""]","enter","",""
"","","","","","html-keyboard-response","24","465623","0.0-8.0","68","1","2025-01-31 01:35:15","af8d355d56820e421d246a7037deb6e6","74.80.146.15","Mozilla/5.0 (Windows NT 10.0; Win64; x64) AppleWebKit/537.36 (KHTML, like Gecko) Chrome/132.0.0.0 Safari/537.36","WebKit","Chrome","132.0.0.0","Windows","10.0","https://app.prolific.com/","en-US,en;q=0.9","6733ba14d32d1b6b8d4b11d8","67949641171f97c04e14fb34","679c247da3b54befff92aa42","","null","<img id='selected' src='G_3.jpg' height='90'> <img src='G_9.jpg' height='90'> <img src='G_7.jpg' height='90'> <img src='G_1.jpg' height='90'> <img src='G_5.jpg' height='90'>","null","Animation0",""
"","","","","","html-keyboard-response","25","466134","0.0-9.0","68","1","2025-01-31 01:35:15","af8d355d56820e421d246a7037deb6e6","74.80.146.15","Mozilla/5.0 (Windows NT 10.0; Win64; x64) AppleWebKit/537.36 (KHTML, like Gecko) Chrome/132.0.0.0 Safari/537.36","WebKit","Chrome","132.0.0.0","Windows","10.0","https://app.prolific.com/","en-US,en;q=0.9","6733ba14d32d1b6b8d4b11d8","67949641171f97c04e14fb34","679c247da3b54befff92aa42","","null","<img id='selected' src='G_3.jpg' height='90'> <img id='selected' src='G_9.jpg' height='90'> <img src='G_7.jpg' height='90'> <img src='G_1.jpg' height='90'> <img src='G_5.jpg' height='90'>","null","Animation0",""
"","","","","","html-keyboard-response","26","466637","0.0-10.0","68","1","2025-01-31 01:35:15","af8d355d56820e421d246a7037deb6e6","74.80.146.15","Mozilla/5.0 (Windows NT 10.0; Win64; x64) AppleWebKit/537.36 (KHTML, like Gecko) Chrome/132.0.0.0 Safari/537.36","WebKit","Chrome","132.0.0.0","Windows","10.0","https://app.prolific.com/","en-US,en;q=0.9","6733ba14d32d1b6b8d4b11d8","67949641171f97c04e14fb34","679c247da3b54befff92aa42","","null","<img id='swapped' src='G_9.jpg' height='90'> <img id='swapped' src='G_3.jpg' height='90'> <img src='G_7.jpg' height='90'> <img src='G_1.jpg' height='90'> <img src='G_5.jpg' height='90'>","null","Animation0",""
"","","","","","html-keyboard-response","27","466955","0.0-11.0","68","1","2025-01-31 01:35:15","af8d355d56820e421d246a7037deb6e6","74.80.146.15","Mozilla/5.0 (Windows NT 10.0; Win64; x64) AppleWebKit/537.36 (KHTML, like Gecko) Chrome/132.0.0.0 Safari/537.36","WebKit","Chrome","132.0.0.0","Windows","10.0","https://app.prolific.com/","en-US,en;q=0.9","6733ba14d32d1b6b8d4b11d8","67949641171f97c04e14fb34","679c247da3b54befff92aa42","","null","<img  src='G_9.jpg' height='90'> <img  src='G_3.jpg' height='90'> <img src='G_7.jpg' height='90'> <img src='G_1.jpg' height='90'> <img src='G_5.jpg' height='90'>","null","Animation0",""
"","","","","","html-keyboard-response","28","468040","0.0-12.0","68","1","2025-01-31 01:35:15","af8d355d56820e421d246a7037deb6e6","74.80.146.15","Mozilla/5.0 (Windows NT 10.0; Win64; x64) AppleWebKit/537.36 (KHTML, like Gecko) Chrome/132.0.0.0 Safari/537.36","WebKit","Chrome","132.0.0.0","Windows","10.0","https://app.prolific.com/","en-US,en;q=0.9","6733ba14d32d1b6b8d4b11d8","67949641171f97c04e14fb34","679c247da3b54befff92aa42","","null","<img  src='G_9.jpg' height='90'> <img id='selected'  src='G_3.jpg' height='90'> <img src='G_7.jpg' height='90'> <img src='G_1.jpg' height='90'> <img src='G_5.jpg' height='90'>","null","Animation0",""
"","","","","","html-keyboard-response","29","469032","0.0-13.0","68","1","2025-01-31 01:35:15","af8d355d56820e421d246a7037deb6e6","74.80.146.15","Mozilla/5.0 (Windows NT 10.0; Win64; x64) AppleWebKit/537.36 (KHTML, like Gecko) Chrome/132.0.0.0 Safari/537.36","WebKit","Chrome","132.0.0.0","Windows","10.0","https://app.prolific.com/","en-US,en;q=0.9","6733ba14d32d1b6b8d4b11d8","67949641171f97c04e14fb34","679c247da3b54befff92aa42","","null","<img  src='G_9.jpg' height='90'> <img id='selected'  src='G_3.jpg' height='90'> <img id='selected' src='G_7.jpg' height='90'> <img src='G_1.jpg' height='90'> <img src='G_5.jpg' height='90'>","null","Animation0",""
"","","","","","html-keyboard-response","30","470032","0.0-14.0","68","1","2025-01-31 01:35:15","af8d355d56820e421d246a7037deb6e6","74.80.146.15","Mozilla/5.0 (Windows NT 10.0; Win64; x64) AppleWebKit/537.36 (KHTML, like Gecko) Chrome/132.0.0.0 Safari/537.36","WebKit","Chrome","132.0.0.0","Windows","10.0","https://app.prolific.com/","en-US,en;q=0.9","6733ba14d32d1b6b8d4b11d8","67949641171f97c04e14fb34","679c247da3b54befff92aa42","","null","<img  src='G_9.jpg' height='90'> <img id='selected'  src='G_3.jpg' height='90'> <img id='selected' src='G_7.jpg' height='90'> <img src='G_1.jpg' height='90'> <img src='G_5.jpg' height='90'>","null","Animation0",""
"","","","","","html-keyboard-response","31","471048","0.0-15.0","68","1","2025-01-31 01:35:15","af8d355d56820e421d246a7037deb6e6","74.80.146.15","Mozilla/5.0 (Windows NT 10.0; Win64; x64) AppleWebKit/537.36 (KHTML, like Gecko) Chrome/132.0.0.0 Safari/537.36","WebKit","Chrome","132.0.0.0","Windows","10.0","https://app.prolific.com/","en-US,en;q=0.9","6733ba14d32d1b6b8d4b11d8","67949641171f97c04e14fb34","679c247da3b54befff92aa42","","null","<img  src='G_9.jpg' height='90'> <img   src='G_3.jpg' height='90'> <img  src='G_7.jpg' height='90'> <img src='G_1.jpg' height='90'> <img src='G_5.jpg' height='90'>","null","Animation0",""
"","","","","","html-keyboard-response","32","472032","0.0-16.0","68","1","2025-01-31 01:35:15","af8d355d56820e421d246a7037deb6e6","74.80.146.15","Mozilla/5.0 (Windows NT 10.0; Win64; x64) AppleWebKit/537.36 (KHTML, like Gecko) Chrome/132.0.0.0 Safari/537.36","WebKit","Chrome","132.0.0.0","Windows","10.0","https://app.prolific.com/","en-US,en;q=0.9","6733ba14d32d1b6b8d4b11d8","67949641171f97c04e14fb34","679c247da3b54befff92aa42","","null","<img  src='G_9.jpg' height='90'> <img   src='G_3.jpg' height='90'> <img id='selected'  src='G_7.jpg' height='90'> <img src='G_1.jpg' height='90'> <img src='G_5.jpg' height='90'>","null","Animation0",""
"","","","","","html-keyboard-response","33","473038","0.0-17.0","68","1","2025-01-31 01:35:15","af8d355d56820e421d246a7037deb6e6","74.80.146.15","Mozilla/5.0 (Windows NT 10.0; Win64; x64) AppleWebKit/537.36 (KHTML, like Gecko) Chrome/132.0.0.0 Safari/537.36","WebKit","Chrome","132.0.0.0","Windows","10.0","https://app.prolific.com/","en-US,en;q=0.9","6733ba14d32d1b6b8d4b11d8","67949641171f97c04e14fb34","679c247da3b54befff92aa42","","null","<img  src='G_9.jpg' height='90'> <img   src='G_3.jpg' height='90'> <img id='selected'  src='G_7.jpg' height='90'> <img id='selected' src='G_1.jpg' height='90'> <img src='G_5.jpg' height='90'>","null","Animation0",""
"","","","","","html-keyboard-response","34","474046","0.0-18.0","68","1","2025-01-31 01:35:15","af8d355d56820e421d246a7037deb6e6","74.80.146.15","Mozilla/5.0 (Windows NT 10.0; Win64; x64) AppleWebKit/537.36 (KHTML, like Gecko) Chrome/132.0.0.0 Safari/537.36","WebKit","Chrome","132.0.0.0","Windows","10.0","https://app.prolific.com/","en-US,en;q=0.9","6733ba14d32d1b6b8d4b11d8","67949641171f97c04e14fb34","679c247da3b54befff92aa42","","null","<img  src='G_9.jpg' height='90'> <img   src='G_3.jpg' height='90'> <img id='selected'  src='G_7.jpg' height='90'> <img id='selected' src='G_1.jpg' height='90'> <img src='G_5.jpg' height='90'>","null","Animation0",""
"","","","","","html-keyboard-response","35","475038","0.0-19.0","68","1","2025-01-31 01:35:15","af8d355d56820e421d246a7037deb6e6","74.80.146.15","Mozilla/5.0 (Windows NT 10.0; Win64; x64) AppleWebKit/537.36 (KHTML, like Gecko) Chrome/132.0.0.0 Safari/537.36","WebKit","Chrome","132.0.0.0","Windows","10.0","https://app.prolific.com/","en-US,en;q=0.9","6733ba14d32d1b6b8d4b11d8","67949641171f97c04e14fb34","679c247da3b54befff92aa42","","null","<img  src='G_9.jpg' height='90'> <img   src='G_3.jpg' height='90'> <img   src='G_7.jpg' height='90'> <img  src='G_1.jpg' height='90'> <img src='G_5.jpg' height='90'>","null","Animation0",""
"","","","","","html-keyboard-response","36","476047","0.0-20.0","68","1","2025-01-31 01:35:15","af8d355d56820e421d246a7037deb6e6","74.80.146.15","Mozilla/5.0 (Windows NT 10.0; Win64; x64) AppleWebKit/537.36 (KHTML, like Gecko) Chrome/132.0.0.0 Safari/537.36","WebKit","Chrome","132.0.0.0","Windows","10.0","https://app.prolific.com/","en-US,en;q=0.9","6733ba14d32d1b6b8d4b11d8","67949641171f97c04e14fb34","679c247da3b54befff92aa42","","null","<img  src='G_9.jpg' height='90'> <img   src='G_3.jpg' height='90'> <img   src='G_7.jpg' height='90'> <img id='selected'  src='G_1.jpg' height='90'> <img src='G_5.jpg' height='90'>","null","Animation0",""
"","","","","","html-keyboard-response","37","477038","0.0-21.0","68","1","2025-01-31 01:35:15","af8d355d56820e421d246a7037deb6e6","74.80.146.15","Mozilla/5.0 (Windows NT 10.0; Win64; x64) AppleWebKit/537.36 (KHTML, like Gecko) Chrome/132.0.0.0 Safari/537.36","WebKit","Chrome","132.0.0.0","Windows","10.0","https://app.prolific.com/","en-US,en;q=0.9","6733ba14d32d1b6b8d4b11d8","67949641171f97c04e14fb34","679c247da3b54befff92aa42","","null","<img  src='G_9.jpg' height='90'> <img   src='G_3.jpg' height='90'> <img   src='G_7.jpg' height='90'> <img id='selected'  src='G_1.jpg' height='90'> <img id='selected' src='G_5.jpg' height='90'>","null","Animation0",""
"","","","","","html-keyboard-response","38","478040","0.0-22.0","68","1","2025-01-31 01:35:15","af8d355d56820e421d246a7037deb6e6","74.80.146.15","Mozilla/5.0 (Windows NT 10.0; Win64; x64) AppleWebKit/537.36 (KHTML, like Gecko) Chrome/132.0.0.0 Safari/537.36","WebKit","Chrome","132.0.0.0","Windows","10.0","https://app.prolific.com/","en-US,en;q=0.9","6733ba14d32d1b6b8d4b11d8","67949641171f97c04e14fb34","679c247da3b54befff92aa42","","null","<img  src='G_9.jpg' height='90'> <img   src='G_3.jpg' height='90'> <img   src='G_7.jpg' height='90'> <img id='selected'  src='G_1.jpg' height='90'> <img id='selected' src='G_5.jpg' height='90'>","null","Animation0",""
"","","","","","html-keyboard-response","39","479042","0.0-23.0","68","1","2025-01-31 01:35:15","af8d355d56820e421d246a7037deb6e6","74.80.146.15","Mozilla/5.0 (Windows NT 10.0; Win64; x64) AppleWebKit/537.36 (KHTML, like Gecko) Chrome/132.0.0.0 Safari/537.36","WebKit","Chrome","132.0.0.0","Windows","10.0","https://app.prolific.com/","en-US,en;q=0.9","6733ba14d32d1b6b8d4b11d8","67949641171f97c04e14fb34","679c247da3b54befff92aa42","","null","<img  src='G_9.jpg' height='90'> <img   src='G_3.jpg' height='90'> <img   src='G_7.jpg' height='90'> <img   src='G_1.jpg' height='90'> <img  src='G_5.jpg' height='90'>","null","Animation0",""
"","","","","","html-keyboard-response","40","675971","0.0-24.0","68","1","2025-01-31 01:35:15","af8d355d56820e421d246a7037deb6e6","74.80.146.15","Mozilla/5.0 (Windows NT 10.0; Win64; x64) AppleWebKit/537.36 (KHTML, like Gecko) Chrome/132.0.0.0 Safari/537.36","WebKit","Chrome","132.0.0.0","Windows","10.0","https://app.prolific.com/","en-US,en;q=0.9","6733ba14d32d1b6b8d4b11d8","67949641171f97c04e14fb34","679c247da3b54befff92aa42","","196925","[""Did you notice any patterns? <br><br>Press Enter to watch that example again and follow the steps of Omgne Sort.""]","enter","",""
"","","","","","html-button-response","41","676386","0.0-25.0","68","1","2025-01-31 01:35:15","af8d355d56820e421d246a7037deb6e6","74.80.146.15","Mozilla/5.0 (Windows NT 10.0; Win64; x64) AppleWebKit/537.36 (KHTML, like Gecko) Chrome/132.0.0.0 Safari/537.36","WebKit","Chrome","132.0.0.0","Windows","10.0","https://app.prolific.com/","en-US,en;q=0.9","6733ba14d32d1b6b8d4b11d8","67949641171f97c04e14fb34","679c247da3b54befff92aa42","","null","<img id='selected' src='G_3.jpg' height='90'> <img src='G_9.jpg' height='90'> <img src='G_7.jpg' height='90'> <img src='G_1.jpg' height='90'> <img src='G_5.jpg' height='90'>","null","Learning example 0",""
"","","","","","html-button-response","42","676705","0.0-26.0","68","1","2025-01-31 01:35:15","af8d355d56820e421d246a7037deb6e6","74.80.146.15","Mozilla/5.0 (Windows NT 10.0; Win64; x64) AppleWebKit/537.36 (KHTML, like Gecko) Chrome/132.0.0.0 Safari/537.36","WebKit","Chrome","132.0.0.0","Windows","10.0","https://app.prolific.com/","en-US,en;q=0.9","6733ba14d32d1b6b8d4b11d8","67949641171f97c04e14fb34","679c247da3b54befff92aa42","","null","<img id='selected' src='G_3.jpg' height='90'> <img id='selected' src='G_9.jpg' height='90'> <img src='G_7.jpg' height='90'> <img src='G_1.jpg' height='90'> <img src='G_5.jpg' height='90'>","null","Learning example 0",""
"","","","","","html-button-response","43","677020","0.0-27.0","68","1","2025-01-31 01:35:15","af8d355d56820e421d246a7037deb6e6","74.80.146.15","Mozilla/5.0 (Windows NT 10.0; Win64; x64) AppleWebKit/537.36 (KHTML, like Gecko) Chrome/132.0.0.0 Safari/537.36","WebKit","Chrome","132.0.0.0","Windows","10.0","https://app.prolific.com/","en-US,en;q=0.9","6733ba14d32d1b6b8d4b11d8","67949641171f97c04e14fb34","679c247da3b54befff92aa42","","null","<img id='swapped' src='G_9.jpg' height='90'> <img id='swapped' src='G_3.jpg' height='90'> <img src='G_7.jpg' height='90'> <img src='G_1.jpg' height='90'> <img src='G_5.jpg' height='90'>","null","Learning example 0",""
"","","","","","html-button-response","44","1081793","0.0-28.0-0.0-0.0","68","1","2025-01-31 01:35:15","af8d355d56820e421d246a7037deb6e6","74.80.146.15","Mozilla/5.0 (Windows NT 10.0; Win64; x64) AppleWebKit/537.36 (KHTML, like Gecko) Chrome/132.0.0.0 Safari/537.36","WebKit","Chrome","132.0.0.0","Windows","10.0","https://app.prolific.com/","en-US,en;q=0.9","6733ba14d32d1b6b8d4b11d8","67949641171f97c04e14fb34","679c247da3b54befff92aa42","","404766","<img id='swapped' src='G_9.jpg' height='90'> <img id='swapped' src='G_3.jpg' height='90'> <img src='G_7.jpg' height='90'> <img src='G_1.jpg' height='90'> <img src='G_5.jpg' height='90'>","1","Learning example 0",""
"","","","","","html-button-response","45","1082001","0.0-28.1-0.1-0.1","68","1","2025-01-31 01:35:15","af8d355d56820e421d246a7037deb6e6","74.80.146.15","Mozilla/5.0 (Windows NT 10.0; Win64; x64) AppleWebKit/537.36 (KHTML, like Gecko) Chrome/132.0.0.0 Safari/537.36","WebKit","Chrome","132.0.0.0","Windows","10.0","https://app.prolific.com/","en-US,en;q=0.9","6733ba14d32d1b6b8d4b11d8","67949641171f97c04e14fb34","679c247da3b54befff92aa42","","203","<img id='swapped' src='G_9.jpg' height='90'> <img id='swapped' src='G_3.jpg' height='90'> <img src='G_7.jpg' height='90'> <img src='G_1.jpg' height='90'> <img src='G_5.jpg' height='90'>","0","Learning example 0",""
"","","","","","html-button-response","46","1082206","0.0-29.0","68","1","2025-01-31 01:35:15","af8d355d56820e421d246a7037deb6e6","74.80.146.15","Mozilla/5.0 (Windows NT 10.0; Win64; x64) AppleWebKit/537.36 (KHTML, like Gecko) Chrome/132.0.0.0 Safari/537.36","WebKit","Chrome","132.0.0.0","Windows","10.0","https://app.prolific.com/","en-US,en;q=0.9","6733ba14d32d1b6b8d4b11d8","67949641171f97c04e14fb34","679c247da3b54befff92aa42","","null","<img  src='G_9.jpg' height='90'> <img  src='G_3.jpg' height='90'> <img src='G_7.jpg' height='90'> <img src='G_1.jpg' height='90'> <img src='G_5.jpg' height='90'>","null","Learning example 0",""
"","","","","","html-button-response","47","1082519","0.0-30.0","68","1","2025-01-31 01:35:15","af8d355d56820e421d246a7037deb6e6","74.80.146.15","Mozilla/5.0 (Windows NT 10.0; Win64; x64) AppleWebKit/537.36 (KHTML, like Gecko) Chrome/132.0.0.0 Safari/537.36","WebKit","Chrome","132.0.0.0","Windows","10.0","https://app.prolific.com/","en-US,en;q=0.9","6733ba14d32d1b6b8d4b11d8","67949641171f97c04e14fb34","679c247da3b54befff92aa42","","306","<img  src='G_9.jpg' height='90'> <img id='selected'  src='G_3.jpg' height='90'> <img src='G_7.jpg' height='90'> <img src='G_1.jpg' height='90'> <img src='G_5.jpg' height='90'>","2","Learning example 0",""
"","","","","","html-button-response","48","1082827","0.0-31.0","68","1","2025-01-31 01:35:15","af8d355d56820e421d246a7037deb6e6","74.80.146.15","Mozilla/5.0 (Windows NT 10.0; Win64; x64) AppleWebKit/537.36 (KHTML, like Gecko) Chrome/132.0.0.0 Safari/537.36","WebKit","Chrome","132.0.0.0","Windows","10.0","https://app.prolific.com/","en-US,en;q=0.9","6733ba14d32d1b6b8d4b11d8","67949641171f97c04e14fb34","679c247da3b54befff92aa42","","null","<img  src='G_9.jpg' height='90'> <img id='selected'  src='G_3.jpg' height='90'> <img id='selected' src='G_7.jpg' height='90'> <img src='G_1.jpg' height='90'> <img src='G_5.jpg' height='90'>","null","Learning example 0",""
"","","","","","html-button-response","49","1082836","0.0-32.0","68","1","2025-01-31 01:35:15","af8d355d56820e421d246a7037deb6e6","74.80.146.15","Mozilla/5.0 (Windows NT 10.0; Win64; x64) AppleWebKit/537.36 (KHTML, like Gecko) Chrome/132.0.0.0 Safari/537.36","WebKit","Chrome","132.0.0.0","Windows","10.0","https://app.prolific.com/","en-US,en;q=0.9","6733ba14d32d1b6b8d4b11d8","67949641171f97c04e14fb34","679c247da3b54befff92aa42","","4","<img  src='G_9.jpg' height='90'> <img id='selected'  src='G_3.jpg' height='90'> <img id='selected' src='G_7.jpg' height='90'> <img src='G_1.jpg' height='90'> <img src='G_5.jpg' height='90'>","3","Learning example 0",""
"","","","","","html-button-response","50","1083361","0.0-33.0-0.0-0.0","68","1","2025-01-31 01:35:15","af8d355d56820e421d246a7037deb6e6","74.80.146.15","Mozilla/5.0 (Windows NT 10.0; Win64; x64) AppleWebKit/537.36 (KHTML, like Gecko) Chrome/132.0.0.0 Safari/537.36","WebKit","Chrome","132.0.0.0","Windows","10.0","https://app.prolific.com/","en-US,en;q=0.9","6733ba14d32d1b6b8d4b11d8","67949641171f97c04e14fb34","679c247da3b54befff92aa42","","520","<img  src='G_9.jpg' height='90'> <img id='selected'  src='G_3.jpg' height='90'> <img id='selected' src='G_7.jpg' height='90'> <img src='G_1.jpg' height='90'> <img src='G_5.jpg' height='90'>","2","Learning example 0",""
"","","","","","html-button-response","51","1083752","0.0-33.1-0.1-0.1","68","1","2025-01-31 01:35:15","af8d355d56820e421d246a7037deb6e6","74.80.146.15","Mozilla/5.0 (Windows NT 10.0; Win64; x64) AppleWebKit/537.36 (KHTML, like Gecko) Chrome/132.0.0.0 Safari/537.36","WebKit","Chrome","132.0.0.0","Windows","10.0","https://app.prolific.com/","en-US,en;q=0.9","6733ba14d32d1b6b8d4b11d8","67949641171f97c04e14fb34","679c247da3b54befff92aa42","","385","<img  src='G_9.jpg' height='90'> <img id='selected'  src='G_3.jpg' height='90'> <img id='selected' src='G_7.jpg' height='90'> <img src='G_1.jpg' height='90'> <img src='G_5.jpg' height='90'>","4","Learning example 0",""
"","","","","","html-button-response","52","1083997","0.0-33.2-0.2-0.2","68","1","2025-01-31 01:35:15","af8d355d56820e421d246a7037deb6e6","74.80.146.15","Mozilla/5.0 (Windows NT 10.0; Win64; x64) AppleWebKit/537.36 (KHTML, like Gecko) Chrome/132.0.0.0 Safari/537.36","WebKit","Chrome","132.0.0.0","Windows","10.0","https://app.prolific.com/","en-US,en;q=0.9","6733ba14d32d1b6b8d4b11d8","67949641171f97c04e14fb34","679c247da3b54befff92aa42","","241","<img  src='G_9.jpg' height='90'> <img id='selected'  src='G_3.jpg' height='90'> <img id='selected' src='G_7.jpg' height='90'> <img src='G_1.jpg' height='90'> <img src='G_5.jpg' height='90'>","3","Learning example 0",""
"","","","","","html-button-response","53","1085307","0.0-33.3-0.3-0.3","68","1","2025-01-31 01:35:15","af8d355d56820e421d246a7037deb6e6","74.80.146.15","Mozilla/5.0 (Windows NT 10.0; Win64; x64) AppleWebKit/537.36 (KHTML, like Gecko) Chrome/132.0.0.0 Safari/537.36","WebKit","Chrome","132.0.0.0","Windows","10.0","https://app.prolific.com/","en-US,en;q=0.9","6733ba14d32d1b6b8d4b11d8","67949641171f97c04e14fb34","679c247da3b54befff92aa42","","1306","<img  src='G_9.jpg' height='90'> <img id='selected'  src='G_3.jpg' height='90'> <img id='selected' src='G_7.jpg' height='90'> <img src='G_1.jpg' height='90'> <img src='G_5.jpg' height='90'>","4","Learning example 0",""
"","","","","","html-button-response","54","1085527","0.0-33.4-0.4-0.4","68","1","2025-01-31 01:35:15","af8d355d56820e421d246a7037deb6e6","74.80.146.15","Mozilla/5.0 (Windows NT 10.0; Win64; x64) AppleWebKit/537.36 (KHTML, like Gecko) Chrome/132.0.0.0 Safari/537.36","WebKit","Chrome","132.0.0.0","Windows","10.0","https://app.prolific.com/","en-US,en;q=0.9","6733ba14d32d1b6b8d4b11d8","67949641171f97c04e14fb34","679c247da3b54befff92aa42","","213","<img  src='G_9.jpg' height='90'> <img id='selected'  src='G_3.jpg' height='90'> <img id='selected' src='G_7.jpg' height='90'> <img src='G_1.jpg' height='90'> <img src='G_5.jpg' height='90'>","3","Learning example 0",""
"","","","","","html-button-response","55","1086057","0.0-33.5-0.5-0.5","68","1","2025-01-31 01:35:15","af8d355d56820e421d246a7037deb6e6","74.80.146.15","Mozilla/5.0 (Windows NT 10.0; Win64; x64) AppleWebKit/537.36 (KHTML, like Gecko) Chrome/132.0.0.0 Safari/537.36","WebKit","Chrome","132.0.0.0","Windows","10.0","https://app.prolific.com/","en-US,en;q=0.9","6733ba14d32d1b6b8d4b11d8","67949641171f97c04e14fb34","679c247da3b54befff92aa42","","524","<img  src='G_9.jpg' height='90'> <img id='selected'  src='G_3.jpg' height='90'> <img id='selected' src='G_7.jpg' height='90'> <img src='G_1.jpg' height='90'> <img src='G_5.jpg' height='90'>","1","Learning example 0",""
"","","","","","html-button-response","56","1086319","0.0-33.6-0.6-0.6","68","1","2025-01-31 01:35:15","af8d355d56820e421d246a7037deb6e6","74.80.146.15","Mozilla/5.0 (Windows NT 10.0; Win64; x64) AppleWebKit/537.36 (KHTML, like Gecko) Chrome/132.0.0.0 Safari/537.36","WebKit","Chrome","132.0.0.0","Windows","10.0","https://app.prolific.com/","en-US,en;q=0.9","6733ba14d32d1b6b8d4b11d8","67949641171f97c04e14fb34","679c247da3b54befff92aa42","","255","<img  src='G_9.jpg' height='90'> <img id='selected'  src='G_3.jpg' height='90'> <img id='selected' src='G_7.jpg' height='90'> <img src='G_1.jpg' height='90'> <img src='G_5.jpg' height='90'>","0","Learning example 0",""
"","","","","","html-button-response","57","1087506","0.0-33.7-0.7-0.7","68","1","2025-01-31 01:35:15","af8d355d56820e421d246a7037deb6e6","74.80.146.15","Mozilla/5.0 (Windows NT 10.0; Win64; x64) AppleWebKit/537.36 (KHTML, like Gecko) Chrome/132.0.0.0 Safari/537.36","WebKit","Chrome","132.0.0.0","Windows","10.0","https://app.prolific.com/","en-US,en;q=0.9","6733ba14d32d1b6b8d4b11d8","67949641171f97c04e14fb34","679c247da3b54befff92aa42","","1182","<img  src='G_9.jpg' height='90'> <img id='selected'  src='G_3.jpg' height='90'> <img id='selected' src='G_7.jpg' height='90'> <img src='G_1.jpg' height='90'> <img src='G_5.jpg' height='90'>","0","Learning example 0",""
"","","","","","html-button-response","58","1088364","0.0-33.8-0.8-0.8","68","1","2025-01-31 01:35:15","af8d355d56820e421d246a7037deb6e6","74.80.146.15","Mozilla/5.0 (Windows NT 10.0; Win64; x64) AppleWebKit/537.36 (KHTML, like Gecko) Chrome/132.0.0.0 Safari/537.36","WebKit","Chrome","132.0.0.0","Windows","10.0","https://app.prolific.com/","en-US,en;q=0.9","6733ba14d32d1b6b8d4b11d8","67949641171f97c04e14fb34","679c247da3b54befff92aa42","","851","<img  src='G_9.jpg' height='90'> <img id='selected'  src='G_3.jpg' height='90'> <img id='selected' src='G_7.jpg' height='90'> <img src='G_1.jpg' height='90'> <img src='G_5.jpg' height='90'>","1","Learning example 0",""
"","","","","","html-button-response","59","1089076","0.0-33.9-0.9-0.9","68","1","2025-01-31 01:35:15","af8d355d56820e421d246a7037deb6e6","74.80.146.15","Mozilla/5.0 (Windows NT 10.0; Win64; x64) AppleWebKit/537.36 (KHTML, like Gecko) Chrome/132.0.0.0 Safari/537.36","WebKit","Chrome","132.0.0.0","Windows","10.0","https://app.prolific.com/","en-US,en;q=0.9","6733ba14d32d1b6b8d4b11d8","67949641171f97c04e14fb34","679c247da3b54befff92aa42","","705","<img  src='G_9.jpg' height='90'> <img id='selected'  src='G_3.jpg' height='90'> <img id='selected' src='G_7.jpg' height='90'> <img src='G_1.jpg' height='90'> <img src='G_5.jpg' height='90'>","2","Learning example 0",""
"","","","","","html-button-response","60","1089289","0.0-34.0","68","1","2025-01-31 01:35:15","af8d355d56820e421d246a7037deb6e6","74.80.146.15","Mozilla/5.0 (Windows NT 10.0; Win64; x64) AppleWebKit/537.36 (KHTML, like Gecko) Chrome/132.0.0.0 Safari/537.36","WebKit","Chrome","132.0.0.0","Windows","10.0","https://app.prolific.com/","en-US,en;q=0.9","6733ba14d32d1b6b8d4b11d8","67949641171f97c04e14fb34","679c247da3b54befff92aa42","","null","<img  src='G_9.jpg' height='90'> <img   src='G_3.jpg' height='90'> <img  src='G_7.jpg' height='90'> <img src='G_1.jpg' height='90'> <img src='G_5.jpg' height='90'>","null","Learning example 0",""
"","","","","","html-button-response","61","1089700","0.0-35.0","68","1","2025-01-31 01:35:15","af8d355d56820e421d246a7037deb6e6","74.80.146.15","Mozilla/5.0 (Windows NT 10.0; Win64; x64) AppleWebKit/537.36 (KHTML, like Gecko) Chrome/132.0.0.0 Safari/537.36","WebKit","Chrome","132.0.0.0","Windows","10.0","https://app.prolific.com/","en-US,en;q=0.9","6733ba14d32d1b6b8d4b11d8","67949641171f97c04e14fb34","679c247da3b54befff92aa42","","null","<img  src='G_9.jpg' height='90'> <img   src='G_3.jpg' height='90'> <img id='selected'  src='G_7.jpg' height='90'> <img src='G_1.jpg' height='90'> <img src='G_5.jpg' height='90'>","null","Learning example 0",""
"","","","","","html-button-response","62","1090019","0.0-36.0","68","1","2025-01-31 01:35:15","af8d355d56820e421d246a7037deb6e6","74.80.146.15","Mozilla/5.0 (Windows NT 10.0; Win64; x64) AppleWebKit/537.36 (KHTML, like Gecko) Chrome/132.0.0.0 Safari/537.36","WebKit","Chrome","132.0.0.0","Windows","10.0","https://app.prolific.com/","en-US,en;q=0.9","6733ba14d32d1b6b8d4b11d8","67949641171f97c04e14fb34","679c247da3b54befff92aa42","","null","<img  src='G_9.jpg' height='90'> <img   src='G_3.jpg' height='90'> <img id='selected'  src='G_7.jpg' height='90'> <img id='selected' src='G_1.jpg' height='90'> <img src='G_5.jpg' height='90'>","null","Learning example 0",""
"","","","","","html-button-response","63","1090183","0.0-37.0","68","1","2025-01-31 01:35:15","af8d355d56820e421d246a7037deb6e6","74.80.146.15","Mozilla/5.0 (Windows NT 10.0; Win64; x64) AppleWebKit/537.36 (KHTML, like Gecko) Chrome/132.0.0.0 Safari/537.36","WebKit","Chrome","132.0.0.0","Windows","10.0","https://app.prolific.com/","en-US,en;q=0.9","6733ba14d32d1b6b8d4b11d8","67949641171f97c04e14fb34","679c247da3b54befff92aa42","","157","<img  src='G_9.jpg' height='90'> <img   src='G_3.jpg' height='90'> <img id='selected'  src='G_7.jpg' height='90'> <img id='selected' src='G_1.jpg' height='90'> <img src='G_5.jpg' height='90'>","2","Learning example 0",""
"","","","","","html-button-response","64","1090469","0.0-38.0-0.0-0.0","68","1","2025-01-31 01:35:15","af8d355d56820e421d246a7037deb6e6","74.80.146.15","Mozilla/5.0 (Windows NT 10.0; Win64; x64) AppleWebKit/537.36 (KHTML, like Gecko) Chrome/132.0.0.0 Safari/537.36","WebKit","Chrome","132.0.0.0","Windows","10.0","https://app.prolific.com/","en-US,en;q=0.9","6733ba14d32d1b6b8d4b11d8","67949641171f97c04e14fb34","679c247da3b54befff92aa42","","280","<img  src='G_9.jpg' height='90'> <img   src='G_3.jpg' height='90'> <img id='selected'  src='G_7.jpg' height='90'> <img id='selected' src='G_1.jpg' height='90'> <img src='G_5.jpg' height='90'>","1","Learning example 0",""
"","","","","","html-button-response","65","1091164","0.0-38.1-0.1-0.1","68","1","2025-01-31 01:35:15","af8d355d56820e421d246a7037deb6e6","74.80.146.15","Mozilla/5.0 (Windows NT 10.0; Win64; x64) AppleWebKit/537.36 (KHTML, like Gecko) Chrome/132.0.0.0 Safari/537.36","WebKit","Chrome","132.0.0.0","Windows","10.0","https://app.prolific.com/","en-US,en;q=0.9","6733ba14d32d1b6b8d4b11d8","67949641171f97c04e14fb34","679c247da3b54befff92aa42","","689","<img  src='G_9.jpg' height='90'> <img   src='G_3.jpg' height='90'> <img id='selected'  src='G_7.jpg' height='90'> <img id='selected' src='G_1.jpg' height='90'> <img src='G_5.jpg' height='90'>","3","Learning example 0",""
"","","","","","html-button-response","66","1091387","0.0-38.2-0.2-0.2","68","1","2025-01-31 01:35:15","af8d355d56820e421d246a7037deb6e6","74.80.146.15","Mozilla/5.0 (Windows NT 10.0; Win64; x64) AppleWebKit/537.36 (KHTML, like Gecko) Chrome/132.0.0.0 Safari/537.36","WebKit","Chrome","132.0.0.0","Windows","10.0","https://app.prolific.com/","en-US,en;q=0.9","6733ba14d32d1b6b8d4b11d8","67949641171f97c04e14fb34","679c247da3b54befff92aa42","","217","<img  src='G_9.jpg' height='90'> <img   src='G_3.jpg' height='90'> <img id='selected'  src='G_7.jpg' height='90'> <img id='selected' src='G_1.jpg' height='90'> <img src='G_5.jpg' height='90'>","2","Learning example 0",""
"","","","","","html-button-response","67","1091605","0.0-39.0","68","1","2025-01-31 01:35:15","af8d355d56820e421d246a7037deb6e6","74.80.146.15","Mozilla/5.0 (Windows NT 10.0; Win64; x64) AppleWebKit/537.36 (KHTML, like Gecko) Chrome/132.0.0.0 Safari/537.36","WebKit","Chrome","132.0.0.0","Windows","10.0","https://app.prolific.com/","en-US,en;q=0.9","6733ba14d32d1b6b8d4b11d8","67949641171f97c04e14fb34","679c247da3b54befff92aa42","","null","<img  src='G_9.jpg' height='90'> <img   src='G_3.jpg' height='90'> <img   src='G_7.jpg' height='90'> <img  src='G_1.jpg' height='90'> <img src='G_5.jpg' height='90'>","null","Learning example 0",""
"","","","","","html-button-response","68","1091893","0.0-40.0","68","1","2025-01-31 01:35:15","af8d355d56820e421d246a7037deb6e6","74.80.146.15","Mozilla/5.0 (Windows NT 10.0; Win64; x64) AppleWebKit/537.36 (KHTML, like Gecko) Chrome/132.0.0.0 Safari/537.36","WebKit","Chrome","132.0.0.0","Windows","10.0","https://app.prolific.com/","en-US,en;q=0.9","6733ba14d32d1b6b8d4b11d8","67949641171f97c04e14fb34","679c247da3b54befff92aa42","","282","<img  src='G_9.jpg' height='90'> <img   src='G_3.jpg' height='90'> <img   src='G_7.jpg' height='90'> <img id='selected'  src='G_1.jpg' height='90'> <img src='G_5.jpg' height='90'>","4","Learning example 0",""
"","","","","","html-button-response","69","1092207","0.0-41.0","68","1","2025-01-31 01:35:15","af8d355d56820e421d246a7037deb6e6","74.80.146.15","Mozilla/5.0 (Windows NT 10.0; Win64; x64) AppleWebKit/537.36 (KHTML, like Gecko) Chrome/132.0.0.0 Safari/537.36","WebKit","Chrome","132.0.0.0","Windows","10.0","https://app.prolific.com/","en-US,en;q=0.9","6733ba14d32d1b6b8d4b11d8","67949641171f97c04e14fb34","679c247da3b54befff92aa42","","null","<img  src='G_9.jpg' height='90'> <img   src='G_3.jpg' height='90'> <img   src='G_7.jpg' height='90'> <img id='selected'  src='G_1.jpg' height='90'> <img id='selected' src='G_5.jpg' height='90'>","null","Learning example 0",""
"","","","","","html-button-response","70","1092521","0.0-42.0","68","1","2025-01-31 01:35:15","af8d355d56820e421d246a7037deb6e6","74.80.146.15","Mozilla/5.0 (Windows NT 10.0; Win64; x64) AppleWebKit/537.36 (KHTML, like Gecko) Chrome/132.0.0.0 Safari/537.36","WebKit","Chrome","132.0.0.0","Windows","10.0","https://app.prolific.com/","en-US,en;q=0.9","6733ba14d32d1b6b8d4b11d8","67949641171f97c04e14fb34","679c247da3b54befff92aa42","","null","<img  src='G_9.jpg' height='90'> <img   src='G_3.jpg' height='90'> <img   src='G_7.jpg' height='90'> <img id='selected'  src='G_1.jpg' height='90'> <img id='selected' src='G_5.jpg' height='90'>","null","Learning example 0",""
"","","","","","html-button-response","71","1092631","0.0-43.0-0.0-0.0","68","1","2025-01-31 01:35:15","af8d355d56820e421d246a7037deb6e6","74.80.146.15","Mozilla/5.0 (Windows NT 10.0; Win64; x64) AppleWebKit/537.36 (KHTML, like Gecko) Chrome/132.0.0.0 Safari/537.36","WebKit","Chrome","132.0.0.0","Windows","10.0","https://app.prolific.com/","en-US,en;q=0.9","6733ba14d32d1b6b8d4b11d8","67949641171f97c04e14fb34","679c247da3b54befff92aa42","","103","<img  src='G_9.jpg' height='90'> <img   src='G_3.jpg' height='90'> <img   src='G_7.jpg' height='90'> <img id='selected'  src='G_1.jpg' height='90'> <img id='selected' src='G_5.jpg' height='90'>","4","Learning example 0",""
"","","","","","html-button-response","72","1092911","0.0-43.1-0.1-0.1","68","1","2025-01-31 01:35:15","af8d355d56820e421d246a7037deb6e6","74.80.146.15","Mozilla/5.0 (Windows NT 10.0; Win64; x64) AppleWebKit/537.36 (KHTML, like Gecko) Chrome/132.0.0.0 Safari/537.36","WebKit","Chrome","132.0.0.0","Windows","10.0","https://app.prolific.com/","en-US,en;q=0.9","6733ba14d32d1b6b8d4b11d8","67949641171f97c04e14fb34","679c247da3b54befff92aa42","","274","<img  src='G_9.jpg' height='90'> <img   src='G_3.jpg' height='90'> <img   src='G_7.jpg' height='90'> <img id='selected'  src='G_1.jpg' height='90'> <img id='selected' src='G_5.jpg' height='90'>","3","Learning example 0",""
"","","","","","html-button-response","73","1093123","0.0-44.0","68","1","2025-01-31 01:35:15","af8d355d56820e421d246a7037deb6e6","74.80.146.15","Mozilla/5.0 (Windows NT 10.0; Win64; x64) AppleWebKit/537.36 (KHTML, like Gecko) Chrome/132.0.0.0 Safari/537.36","WebKit","Chrome","132.0.0.0","Windows","10.0","https://app.prolific.com/","en-US,en;q=0.9","6733ba14d32d1b6b8d4b11d8","67949641171f97c04e14fb34","679c247da3b54befff92aa42","","null","<img  src='G_9.jpg' height='90'> <img   src='G_3.jpg' height='90'> <img   src='G_7.jpg' height='90'> <img   src='G_1.jpg' height='90'> <img  src='G_5.jpg' height='90'>","null","Learning example 0",""
"","","","","","html-keyboard-response","74","1094694","0.0-45.0","68","1","2025-01-31 01:35:15","af8d355d56820e421d246a7037deb6e6","74.80.146.15","Mozilla/5.0 (Windows NT 10.0; Win64; x64) AppleWebKit/537.36 (KHTML, like Gecko) Chrome/132.0.0.0 Safari/537.36","WebKit","Chrome","132.0.0.0","Windows","10.0","https://app.prolific.com/","en-US,en;q=0.9","6733ba14d32d1b6b8d4b11d8","67949641171f97c04e14fb34","679c247da3b54befff92aa42","","1566","[""Final order was 1,2,3,4,5. The initial order was 2,1,3,4,5.<br>It took 1 swaps to sort it correctly with Omgne Sort. <br><br>Press Enter to continue.""]","enter","",""
"","","","","","html-keyboard-response","75","1096414","0.0-46.0","68","1","2025-01-31 01:35:15","af8d355d56820e421d246a7037deb6e6","74.80.146.15","Mozilla/5.0 (Windows NT 10.0; Win64; x64) AppleWebKit/537.36 (KHTML, like Gecko) Chrome/132.0.0.0 Safari/537.36","WebKit","Chrome","132.0.0.0","Windows","10.0","https://app.prolific.com/","en-US,en;q=0.9","6733ba14d32d1b6b8d4b11d8","67949641171f97c04e14fb34","679c247da3b54befff92aa42","","1715","[""Example 2<br><br>You will watch Omnge Sort in action. Try to identify any patterns in the comparisons made by this method. <br><br>Press Enter to continue.""]","enter","",""
"","","","","","html-keyboard-response","76","1096931","0.0-47.0","68","1","2025-01-31 01:35:15","af8d355d56820e421d246a7037deb6e6","74.80.146.15","Mozilla/5.0 (Windows NT 10.0; Win64; x64) AppleWebKit/537.36 (KHTML, like Gecko) Chrome/132.0.0.0 Safari/537.36","WebKit","Chrome","132.0.0.0","Windows","10.0","https://app.prolific.com/","en-US,en;q=0.9","6733ba14d32d1b6b8d4b11d8","67949641171f97c04e14fb34","679c247da3b54befff92aa42","","null","<img id='selected' src='G_8.jpg' height='90'> <img src='G_3.jpg' height='90'> <img src='G_2.jpg' height='90'> <img src='G_6.jpg' height='90'> <img src='G_1.jpg' height='90'> <img src='G_7.jpg' height='90'> <img src='G_4.jpg' height='90'> <img src='G_5.jpg' height='90'>","null","Animation1",""
"","","","","","html-keyboard-response","77","1097446","0.0-48.0","68","1","2025-01-31 01:35:15","af8d355d56820e421d246a7037deb6e6","74.80.146.15","Mozilla/5.0 (Windows NT 10.0; Win64; x64) AppleWebKit/537.36 (KHTML, like Gecko) Chrome/132.0.0.0 Safari/537.36","WebKit","Chrome","132.0.0.0","Windows","10.0","https://app.prolific.com/","en-US,en;q=0.9","6733ba14d32d1b6b8d4b11d8","67949641171f97c04e14fb34","679c247da3b54befff92aa42","","null","<img id='selected' src='G_8.jpg' height='90'> <img id='selected' src='G_3.jpg' height='90'> <img src='G_2.jpg' height='90'> <img src='G_6.jpg' height='90'> <img src='G_1.jpg' height='90'> <img src='G_7.jpg' height='90'> <img src='G_4.jpg' height='90'> <img src='G_5.jpg' height='90'>","null","Animation1",""
"","","","","","html-keyboard-response","78","1097957","0.0-49.0","68","1","2025-01-31 01:35:15","af8d355d56820e421d246a7037deb6e6","74.80.146.15","Mozilla/5.0 (Windows NT 10.0; Win64; x64) AppleWebKit/537.36 (KHTML, like Gecko) Chrome/132.0.0.0 Safari/537.36","WebKit","Chrome","132.0.0.0","Windows","10.0","https://app.prolific.com/","en-US,en;q=0.9","6733ba14d32d1b6b8d4b11d8","67949641171f97c04e14fb34","679c247da3b54befff92aa42","","null","<img id='selected' src='G_8.jpg' height='90'> <img id='selected' src='G_3.jpg' height='90'> <img src='G_2.jpg' height='90'> <img src='G_6.jpg' height='90'> <img src='G_1.jpg' height='90'> <img src='G_7.jpg' height='90'> <img src='G_4.jpg' height='90'> <img src='G_5.jpg' height='90'>","null","Animation1",""
"","","","","","html-keyboard-response","79","1099047","0.0-50.0","68","1","2025-01-31 01:35:15","af8d355d56820e421d246a7037deb6e6","74.80.146.15","Mozilla/5.0 (Windows NT 10.0; Win64; x64) AppleWebKit/537.36 (KHTML, like Gecko) Chrome/132.0.0.0 Safari/537.36","WebKit","Chrome","132.0.0.0","Windows","10.0","https://app.prolific.com/","en-US,en;q=0.9","6733ba14d32d1b6b8d4b11d8","67949641171f97c04e14fb34","679c247da3b54befff92aa42","","null","<img  src='G_8.jpg' height='90'> <img  src='G_3.jpg' height='90'> <img src='G_2.jpg' height='90'> <img src='G_6.jpg' height='90'> <img src='G_1.jpg' height='90'> <img src='G_7.jpg' height='90'> <img src='G_4.jpg' height='90'> <img src='G_5.jpg' height='90'>","null","Animation1",""
"","","","","","html-keyboard-response","80","1100035","0.0-51.0","68","1","2025-01-31 01:35:15","af8d355d56820e421d246a7037deb6e6","74.80.146.15","Mozilla/5.0 (Windows NT 10.0; Win64; x64) AppleWebKit/537.36 (KHTML, like Gecko) Chrome/132.0.0.0 Safari/537.36","WebKit","Chrome","132.0.0.0","Windows","10.0","https://app.prolific.com/","en-US,en;q=0.9","6733ba14d32d1b6b8d4b11d8","67949641171f97c04e14fb34","679c247da3b54befff92aa42","","null","<img  src='G_8.jpg' height='90'> <img id='selected'  src='G_3.jpg' height='90'> <img src='G_2.jpg' height='90'> <img src='G_6.jpg' height='90'> <img src='G_1.jpg' height='90'> <img src='G_7.jpg' height='90'> <img src='G_4.jpg' height='90'> <img src='G_5.jpg' height='90'>","null","Animation1",""
"","","","","","html-keyboard-response","81","1101043","0.0-52.0","68","1","2025-01-31 01:35:15","af8d355d56820e421d246a7037deb6e6","74.80.146.15","Mozilla/5.0 (Windows NT 10.0; Win64; x64) AppleWebKit/537.36 (KHTML, like Gecko) Chrome/132.0.0.0 Safari/537.36","WebKit","Chrome","132.0.0.0","Windows","10.0","https://app.prolific.com/","en-US,en;q=0.9","6733ba14d32d1b6b8d4b11d8","67949641171f97c04e14fb34","679c247da3b54befff92aa42","","null","<img  src='G_8.jpg' height='90'> <img id='selected'  src='G_3.jpg' height='90'> <img id='selected' src='G_2.jpg' height='90'> <img src='G_6.jpg' height='90'> <img src='G_1.jpg' height='90'> <img src='G_7.jpg' height='90'> <img src='G_4.jpg' height='90'> <img src='G_5.jpg' height='90'>","null","Animation1",""
"","","","","","html-keyboard-response","82","1102046","0.0-53.0","68","1","2025-01-31 01:35:15","af8d355d56820e421d246a7037deb6e6","74.80.146.15","Mozilla/5.0 (Windows NT 10.0; Win64; x64) AppleWebKit/537.36 (KHTML, like Gecko) Chrome/132.0.0.0 Safari/537.36","WebKit","Chrome","132.0.0.0","Windows","10.0","https://app.prolific.com/","en-US,en;q=0.9","6733ba14d32d1b6b8d4b11d8","67949641171f97c04e14fb34","679c247da3b54befff92aa42","","null","<img  src='G_8.jpg' height='90'> <img id='swapped' src='G_2.jpg' height='90'> <img id='swapped'  src='G_3.jpg' height='90'> <img src='G_6.jpg' height='90'> <img src='G_1.jpg' height='90'> <img src='G_7.jpg' height='90'> <img src='G_4.jpg' height='90'> <img src='G_5.jpg' height='90'>","null","Animation1",""
"","","","","","html-keyboard-response","83","1103042","0.0-54.0","68","1","2025-01-31 01:35:15","af8d355d56820e421d246a7037deb6e6","74.80.146.15","Mozilla/5.0 (Windows NT 10.0; Win64; x64) AppleWebKit/537.36 (KHTML, like Gecko) Chrome/132.0.0.0 Safari/537.36","WebKit","Chrome","132.0.0.0","Windows","10.0","https://app.prolific.com/","en-US,en;q=0.9","6733ba14d32d1b6b8d4b11d8","67949641171f97c04e14fb34","679c247da3b54befff92aa42","","null","<img  src='G_8.jpg' height='90'> <img  src='G_2.jpg' height='90'> <img   src='G_3.jpg' height='90'> <img src='G_6.jpg' height='90'> <img src='G_1.jpg' height='90'> <img src='G_7.jpg' height='90'> <img src='G_4.jpg' height='90'> <img src='G_5.jpg' height='90'>","null","Animation1",""
"","","","","","html-keyboard-response","84","1104039","0.0-55.0","68","1","2025-01-31 01:35:15","af8d355d56820e421d246a7037deb6e6","74.80.146.15","Mozilla/5.0 (Windows NT 10.0; Win64; x64) AppleWebKit/537.36 (KHTML, like Gecko) Chrome/132.0.0.0 Safari/537.36","WebKit","Chrome","132.0.0.0","Windows","10.0","https://app.prolific.com/","en-US,en;q=0.9","6733ba14d32d1b6b8d4b11d8","67949641171f97c04e14fb34","679c247da3b54befff92aa42","","null","<img id='selected'  src='G_8.jpg' height='90'> <img  src='G_2.jpg' height='90'> <img   src='G_3.jpg' height='90'> <img src='G_6.jpg' height='90'> <img src='G_1.jpg' height='90'> <img src='G_7.jpg' height='90'> <img src='G_4.jpg' height='90'> <img src='G_5.jpg' height='90'>","null","Animation1",""
"","","","","","html-keyboard-response","85","1105042","0.0-56.0","68","1","2025-01-31 01:35:15","af8d355d56820e421d246a7037deb6e6","74.80.146.15","Mozilla/5.0 (Windows NT 10.0; Win64; x64) AppleWebKit/537.36 (KHTML, like Gecko) Chrome/132.0.0.0 Safari/537.36","WebKit","Chrome","132.0.0.0","Windows","10.0","https://app.prolific.com/","en-US,en;q=0.9","6733ba14d32d1b6b8d4b11d8","67949641171f97c04e14fb34","679c247da3b54befff92aa42","","null","<img id='selected'  src='G_8.jpg' height='90'> <img id='selected'  src='G_2.jpg' height='90'> <img   src='G_3.jpg' height='90'> <img src='G_6.jpg' height='90'> <img src='G_1.jpg' height='90'> <img src='G_7.jpg' height='90'> <img src='G_4.jpg' height='90'> <img src='G_5.jpg' height='90'>","null","Animation1",""
"","","","","","html-keyboard-response","86","1106043","0.0-57.0","68","1","2025-01-31 01:35:15","af8d355d56820e421d246a7037deb6e6","74.80.146.15","Mozilla/5.0 (Windows NT 10.0; Win64; x64) AppleWebKit/537.36 (KHTML, like Gecko) Chrome/132.0.0.0 Safari/537.36","WebKit","Chrome","132.0.0.0","Windows","10.0","https://app.prolific.com/","en-US,en;q=0.9","6733ba14d32d1b6b8d4b11d8","67949641171f97c04e14fb34","679c247da3b54befff92aa42","","null","<img id='swapped'  src='G_2.jpg' height='90'> <img id='swapped'  src='G_8.jpg' height='90'> <img   src='G_3.jpg' height='90'> <img src='G_6.jpg' height='90'> <img src='G_1.jpg' height='90'> <img src='G_7.jpg' height='90'> <img src='G_4.jpg' height='90'> <img src='G_5.jpg' height='90'>","null","Animation1",""
"","","","","","html-keyboard-response","87","1107037","0.0-58.0","68","1","2025-01-31 01:35:15","af8d355d56820e421d246a7037deb6e6","74.80.146.15","Mozilla/5.0 (Windows NT 10.0; Win64; x64) AppleWebKit/537.36 (KHTML, like Gecko) Chrome/132.0.0.0 Safari/537.36","WebKit","Chrome","132.0.0.0","Windows","10.0","https://app.prolific.com/","en-US,en;q=0.9","6733ba14d32d1b6b8d4b11d8","67949641171f97c04e14fb34","679c247da3b54befff92aa42","","null","<img   src='G_2.jpg' height='90'> <img   src='G_8.jpg' height='90'> <img   src='G_3.jpg' height='90'> <img src='G_6.jpg' height='90'> <img src='G_1.jpg' height='90'> <img src='G_7.jpg' height='90'> <img src='G_4.jpg' height='90'> <img src='G_5.jpg' height='90'>","null","Animation1",""
"","","","","","html-keyboard-response","88","1108035","0.0-59.0","68","1","2025-01-31 01:35:15","af8d355d56820e421d246a7037deb6e6","74.80.146.15","Mozilla/5.0 (Windows NT 10.0; Win64; x64) AppleWebKit/537.36 (KHTML, like Gecko) Chrome/132.0.0.0 Safari/537.36","WebKit","Chrome","132.0.0.0","Windows","10.0","https://app.prolific.com/","en-US,en;q=0.9","6733ba14d32d1b6b8d4b11d8","67949641171f97c04e14fb34","679c247da3b54befff92aa42","","null","<img   src='G_2.jpg' height='90'> <img   src='G_8.jpg' height='90'> <img id='selected'   src='G_3.jpg' height='90'> <img src='G_6.jpg' height='90'> <img src='G_1.jpg' height='90'> <img src='G_7.jpg' height='90'> <img src='G_4.jpg' height='90'> <img src='G_5.jpg' height='90'>","null","Animation1",""
"","","","","","html-keyboard-response","89","1109039","0.0-60.0","68","1","2025-01-31 01:35:15","af8d355d56820e421d246a7037deb6e6","74.80.146.15","Mozilla/5.0 (Windows NT 10.0; Win64; x64) AppleWebKit/537.36 (KHTML, like Gecko) Chrome/132.0.0.0 Safari/537.36","WebKit","Chrome","132.0.0.0","Windows","10.0","https://app.prolific.com/","en-US,en;q=0.9","6733ba14d32d1b6b8d4b11d8","67949641171f97c04e14fb34","679c247da3b54befff92aa42","","null","<img   src='G_2.jpg' height='90'> <img   src='G_8.jpg' height='90'> <img id='selected'   src='G_3.jpg' height='90'> <img id='selected' src='G_6.jpg' height='90'> <img src='G_1.jpg' height='90'> <img src='G_7.jpg' height='90'> <img src='G_4.jpg' height='90'> <img src='G_5.jpg' height='90'>","null","Animation1",""
"","","","","","html-keyboard-response","90","1110037","0.0-61.0","68","1","2025-01-31 01:35:15","af8d355d56820e421d246a7037deb6e6","74.80.146.15","Mozilla/5.0 (Windows NT 10.0; Win64; x64) AppleWebKit/537.36 (KHTML, like Gecko) Chrome/132.0.0.0 Safari/537.36","WebKit","Chrome","132.0.0.0","Windows","10.0","https://app.prolific.com/","en-US,en;q=0.9","6733ba14d32d1b6b8d4b11d8","67949641171f97c04e14fb34","679c247da3b54befff92aa42","","null","<img   src='G_2.jpg' height='90'> <img   src='G_8.jpg' height='90'> <img id='swapped' src='G_6.jpg' height='90'> <img id='swapped'   src='G_3.jpg' height='90'> <img src='G_1.jpg' height='90'> <img src='G_7.jpg' height='90'> <img src='G_4.jpg' height='90'> <img src='G_5.jpg' height='90'>","null","Animation1",""
"","","","","","html-keyboard-response","91","1111049","0.0-62.0","68","1","2025-01-31 01:35:15","af8d355d56820e421d246a7037deb6e6","74.80.146.15","Mozilla/5.0 (Windows NT 10.0; Win64; x64) AppleWebKit/537.36 (KHTML, like Gecko) Chrome/132.0.0.0 Safari/537.36","WebKit","Chrome","132.0.0.0","Windows","10.0","https://app.prolific.com/","en-US,en;q=0.9","6733ba14d32d1b6b8d4b11d8","67949641171f97c04e14fb34","679c247da3b54befff92aa42","","null","<img   src='G_2.jpg' height='90'> <img   src='G_8.jpg' height='90'> <img  src='G_6.jpg' height='90'> <img    src='G_3.jpg' height='90'> <img src='G_1.jpg' height='90'> <img src='G_7.jpg' height='90'> <img src='G_4.jpg' height='90'> <img src='G_5.jpg' height='90'>","null","Animation1",""
"","","","","","html-keyboard-response","92","1112032","0.0-63.0","68","1","2025-01-31 01:35:15","af8d355d56820e421d246a7037deb6e6","74.80.146.15","Mozilla/5.0 (Windows NT 10.0; Win64; x64) AppleWebKit/537.36 (KHTML, like Gecko) Chrome/132.0.0.0 Safari/537.36","WebKit","Chrome","132.0.0.0","Windows","10.0","https://app.prolific.com/","en-US,en;q=0.9","6733ba14d32d1b6b8d4b11d8","67949641171f97c04e14fb34","679c247da3b54befff92aa42","","null","<img   src='G_2.jpg' height='90'> <img id='selected'   src='G_8.jpg' height='90'> <img  src='G_6.jpg' height='90'> <img    src='G_3.jpg' height='90'> <img src='G_1.jpg' height='90'> <img src='G_7.jpg' height='90'> <img src='G_4.jpg' height='90'> <img src='G_5.jpg' height='90'>","null","Animation1",""
"","","","","","html-keyboard-response","93","1113047","0.0-64.0","68","1","2025-01-31 01:35:15","af8d355d56820e421d246a7037deb6e6","74.80.146.15","Mozilla/5.0 (Windows NT 10.0; Win64; x64) AppleWebKit/537.36 (KHTML, like Gecko) Chrome/132.0.0.0 Safari/537.36","WebKit","Chrome","132.0.0.0","Windows","10.0","https://app.prolific.com/","en-US,en;q=0.9","6733ba14d32d1b6b8d4b11d8","67949641171f97c04e14fb34","679c247da3b54befff92aa42","","null","<img   src='G_2.jpg' height='90'> <img id='selected'   src='G_8.jpg' height='90'> <img id='selected'  src='G_6.jpg' height='90'> <img    src='G_3.jpg' height='90'> <img src='G_1.jpg' height='90'> <img src='G_7.jpg' height='90'> <img src='G_4.jpg' height='90'> <img src='G_5.jpg' height='90'>","null","Animation1",""
"","","","","","html-keyboard-response","94","1114046","0.0-65.0","68","1","2025-01-31 01:35:15","af8d355d56820e421d246a7037deb6e6","74.80.146.15","Mozilla/5.0 (Windows NT 10.0; Win64; x64) AppleWebKit/537.36 (KHTML, like Gecko) Chrome/132.0.0.0 Safari/537.36","WebKit","Chrome","132.0.0.0","Windows","10.0","https://app.prolific.com/","en-US,en;q=0.9","6733ba14d32d1b6b8d4b11d8","67949641171f97c04e14fb34","679c247da3b54befff92aa42","","null","<img   src='G_2.jpg' height='90'> <img id='swapped'  src='G_6.jpg' height='90'> <img id='swapped'   src='G_8.jpg' height='90'> <img    src='G_3.jpg' height='90'> <img src='G_1.jpg' height='90'> <img src='G_7.jpg' height='90'> <img src='G_4.jpg' height='90'> <img src='G_5.jpg' height='90'>","null","Animation1",""
"","","","","","html-keyboard-response","95","1115038","0.0-66.0","68","1","2025-01-31 01:35:15","af8d355d56820e421d246a7037deb6e6","74.80.146.15","Mozilla/5.0 (Windows NT 10.0; Win64; x64) AppleWebKit/537.36 (KHTML, like Gecko) Chrome/132.0.0.0 Safari/537.36","WebKit","Chrome","132.0.0.0","Windows","10.0","https://app.prolific.com/","en-US,en;q=0.9","6733ba14d32d1b6b8d4b11d8","67949641171f97c04e14fb34","679c247da3b54befff92aa42","","null","<img   src='G_2.jpg' height='90'> <img   src='G_6.jpg' height='90'> <img    src='G_8.jpg' height='90'> <img    src='G_3.jpg' height='90'> <img src='G_1.jpg' height='90'> <img src='G_7.jpg' height='90'> <img src='G_4.jpg' height='90'> <img src='G_5.jpg' height='90'>","null","Animation1",""
"","","","","","html-keyboard-response","96","1116038","0.0-67.0","68","1","2025-01-31 01:35:15","af8d355d56820e421d246a7037deb6e6","74.80.146.15","Mozilla/5.0 (Windows NT 10.0; Win64; x64) AppleWebKit/537.36 (KHTML, like Gecko) Chrome/132.0.0.0 Safari/537.36","WebKit","Chrome","132.0.0.0","Windows","10.0","https://app.prolific.com/","en-US,en;q=0.9","6733ba14d32d1b6b8d4b11d8","67949641171f97c04e14fb34","679c247da3b54befff92aa42","","null","<img id='selected'   src='G_2.jpg' height='90'> <img   src='G_6.jpg' height='90'> <img    src='G_8.jpg' height='90'> <img    src='G_3.jpg' height='90'> <img src='G_1.jpg' height='90'> <img src='G_7.jpg' height='90'> <img src='G_4.jpg' height='90'> <img src='G_5.jpg' height='90'>","null","Animation1",""
"","","","","","html-keyboard-response","97","1117035","0.0-68.0","68","1","2025-01-31 01:35:15","af8d355d56820e421d246a7037deb6e6","74.80.146.15","Mozilla/5.0 (Windows NT 10.0; Win64; x64) AppleWebKit/537.36 (KHTML, like Gecko) Chrome/132.0.0.0 Safari/537.36","WebKit","Chrome","132.0.0.0","Windows","10.0","https://app.prolific.com/","en-US,en;q=0.9","6733ba14d32d1b6b8d4b11d8","67949641171f97c04e14fb34","679c247da3b54befff92aa42","","null","<img id='selected'   src='G_2.jpg' height='90'> <img id='selected'   src='G_6.jpg' height='90'> <img    src='G_8.jpg' height='90'> <img    src='G_3.jpg' height='90'> <img src='G_1.jpg' height='90'> <img src='G_7.jpg' height='90'> <img src='G_4.jpg' height='90'> <img src='G_5.jpg' height='90'>","null","Animation1",""
"","","","","","html-keyboard-response","98","1118031","0.0-69.0","68","1","2025-01-31 01:35:15","af8d355d56820e421d246a7037deb6e6","74.80.146.15","Mozilla/5.0 (Windows NT 10.0; Win64; x64) AppleWebKit/537.36 (KHTML, like Gecko) Chrome/132.0.0.0 Safari/537.36","WebKit","Chrome","132.0.0.0","Windows","10.0","https://app.prolific.com/","en-US,en;q=0.9","6733ba14d32d1b6b8d4b11d8","67949641171f97c04e14fb34","679c247da3b54befff92aa42","","null","<img id='swapped'   src='G_6.jpg' height='90'> <img id='swapped'   src='G_2.jpg' height='90'> <img    src='G_8.jpg' height='90'> <img    src='G_3.jpg' height='90'> <img src='G_1.jpg' height='90'> <img src='G_7.jpg' height='90'> <img src='G_4.jpg' height='90'> <img src='G_5.jpg' height='90'>","null","Animation1",""
"","","","","","html-keyboard-response","99","1119044","0.0-70.0","68","1","2025-01-31 01:35:15","af8d355d56820e421d246a7037deb6e6","74.80.146.15","Mozilla/5.0 (Windows NT 10.0; Win64; x64) AppleWebKit/537.36 (KHTML, like Gecko) Chrome/132.0.0.0 Safari/537.36","WebKit","Chrome","132.0.0.0","Windows","10.0","https://app.prolific.com/","en-US,en;q=0.9","6733ba14d32d1b6b8d4b11d8","67949641171f97c04e14fb34","679c247da3b54befff92aa42","","null","<img    src='G_6.jpg' height='90'> <img    src='G_2.jpg' height='90'> <img    src='G_8.jpg' height='90'> <img    src='G_3.jpg' height='90'> <img src='G_1.jpg' height='90'> <img src='G_7.jpg' height='90'> <img src='G_4.jpg' height='90'> <img src='G_5.jpg' height='90'>","null","Animation1",""
"","","","","","html-keyboard-response","100","1120047","0.0-71.0","68","1","2025-01-31 01:35:15","af8d355d56820e421d246a7037deb6e6","74.80.146.15","Mozilla/5.0 (Windows NT 10.0; Win64; x64) AppleWebKit/537.36 (KHTML, like Gecko) Chrome/132.0.0.0 Safari/537.36","WebKit","Chrome","132.0.0.0","Windows","10.0","https://app.prolific.com/","en-US,en;q=0.9","6733ba14d32d1b6b8d4b11d8","67949641171f97c04e14fb34","679c247da3b54befff92aa42","","null","<img    src='G_6.jpg' height='90'> <img    src='G_2.jpg' height='90'> <img    src='G_8.jpg' height='90'> <img id='selected'    src='G_3.jpg' height='90'> <img src='G_1.jpg' height='90'> <img src='G_7.jpg' height='90'> <img src='G_4.jpg' height='90'> <img src='G_5.jpg' height='90'>","null","Animation1",""
"","","","","","html-keyboard-response","101","1121055","0.0-72.0","68","1","2025-01-31 01:35:15","af8d355d56820e421d246a7037deb6e6","74.80.146.15","Mozilla/5.0 (Windows NT 10.0; Win64; x64) AppleWebKit/537.36 (KHTML, like Gecko) Chrome/132.0.0.0 Safari/537.36","WebKit","Chrome","132.0.0.0","Windows","10.0","https://app.prolific.com/","en-US,en;q=0.9","6733ba14d32d1b6b8d4b11d8","67949641171f97c04e14fb34","679c247da3b54befff92aa42","","null","<img    src='G_6.jpg' height='90'> <img    src='G_2.jpg' height='90'> <img    src='G_8.jpg' height='90'> <img id='selected'    src='G_3.jpg' height='90'> <img id='selected' src='G_1.jpg' height='90'> <img src='G_7.jpg' height='90'> <img src='G_4.jpg' height='90'> <img src='G_5.jpg' height='90'>","null","Animation1",""
"","","","","","html-keyboard-response","102","1122036","0.0-73.0","68","1","2025-01-31 01:35:15","af8d355d56820e421d246a7037deb6e6","74.80.146.15","Mozilla/5.0 (Windows NT 10.0; Win64; x64) AppleWebKit/537.36 (KHTML, like Gecko) Chrome/132.0.0.0 Safari/537.36","WebKit","Chrome","132.0.0.0","Windows","10.0","https://app.prolific.com/","en-US,en;q=0.9","6733ba14d32d1b6b8d4b11d8","67949641171f97c04e14fb34","679c247da3b54befff92aa42","","null","<img    src='G_6.jpg' height='90'> <img    src='G_2.jpg' height='90'> <img    src='G_8.jpg' height='90'> <img id='swapped' src='G_1.jpg' height='90'> <img id='swapped'    src='G_3.jpg' height='90'> <img src='G_7.jpg' height='90'> <img src='G_4.jpg' height='90'> <img src='G_5.jpg' height='90'>","null","Animation1",""
"","","","","","html-keyboard-response","103","1123039","0.0-74.0","68","1","2025-01-31 01:35:15","af8d355d56820e421d246a7037deb6e6","74.80.146.15","Mozilla/5.0 (Windows NT 10.0; Win64; x64) AppleWebKit/537.36 (KHTML, like Gecko) Chrome/132.0.0.0 Safari/537.36","WebKit","Chrome","132.0.0.0","Windows","10.0","https://app.prolific.com/","en-US,en;q=0.9","6733ba14d32d1b6b8d4b11d8","67949641171f97c04e14fb34","679c247da3b54befff92aa42","","null","<img    src='G_6.jpg' height='90'> <img    src='G_2.jpg' height='90'> <img    src='G_8.jpg' height='90'> <img  src='G_1.jpg' height='90'> <img     src='G_3.jpg' height='90'> <img src='G_7.jpg' height='90'> <img src='G_4.jpg' height='90'> <img src='G_5.jpg' height='90'>","null","Animation1",""
"","","","","","html-keyboard-response","104","1124034","0.0-75.0","68","1","2025-01-31 01:35:15","af8d355d56820e421d246a7037deb6e6","74.80.146.15","Mozilla/5.0 (Windows NT 10.0; Win64; x64) AppleWebKit/537.36 (KHTML, like Gecko) Chrome/132.0.0.0 Safari/537.36","WebKit","Chrome","132.0.0.0","Windows","10.0","https://app.prolific.com/","en-US,en;q=0.9","6733ba14d32d1b6b8d4b11d8","67949641171f97c04e14fb34","679c247da3b54befff92aa42","","null","<img    src='G_6.jpg' height='90'> <img    src='G_2.jpg' height='90'> <img id='selected'    src='G_8.jpg' height='90'> <img  src='G_1.jpg' height='90'> <img     src='G_3.jpg' height='90'> <img src='G_7.jpg' height='90'> <img src='G_4.jpg' height='90'> <img src='G_5.jpg' height='90'>","null","Animation1",""
"","","","","","html-keyboard-response","105","1125039","0.0-76.0","68","1","2025-01-31 01:35:15","af8d355d56820e421d246a7037deb6e6","74.80.146.15","Mozilla/5.0 (Windows NT 10.0; Win64; x64) AppleWebKit/537.36 (KHTML, like Gecko) Chrome/132.0.0.0 Safari/537.36","WebKit","Chrome","132.0.0.0","Windows","10.0","https://app.prolific.com/","en-US,en;q=0.9","6733ba14d32d1b6b8d4b11d8","67949641171f97c04e14fb34","679c247da3b54befff92aa42","","null","<img    src='G_6.jpg' height='90'> <img    src='G_2.jpg' height='90'> <img id='selected'    src='G_8.jpg' height='90'> <img id='selected'  src='G_1.jpg' height='90'> <img     src='G_3.jpg' height='90'> <img src='G_7.jpg' height='90'> <img src='G_4.jpg' height='90'> <img src='G_5.jpg' height='90'>","null","Animation1",""
"","","","","","html-keyboard-response","106","1126037","0.0-77.0","68","1","2025-01-31 01:35:15","af8d355d56820e421d246a7037deb6e6","74.80.146.15","Mozilla/5.0 (Windows NT 10.0; Win64; x64) AppleWebKit/537.36 (KHTML, like Gecko) Chrome/132.0.0.0 Safari/537.36","WebKit","Chrome","132.0.0.0","Windows","10.0","https://app.prolific.com/","en-US,en;q=0.9","6733ba14d32d1b6b8d4b11d8","67949641171f97c04e14fb34","679c247da3b54befff92aa42","","null","<img    src='G_6.jpg' height='90'> <img    src='G_2.jpg' height='90'> <img id='swapped'  src='G_1.jpg' height='90'> <img id='swapped'    src='G_8.jpg' height='90'> <img     src='G_3.jpg' height='90'> <img src='G_7.jpg' height='90'> <img src='G_4.jpg' height='90'> <img src='G_5.jpg' height='90'>","null","Animation1",""
"","","","","","html-keyboard-response","107","1127038","0.0-78.0","68","1","2025-01-31 01:35:15","af8d355d56820e421d246a7037deb6e6","74.80.146.15","Mozilla/5.0 (Windows NT 10.0; Win64; x64) AppleWebKit/537.36 (KHTML, like Gecko) Chrome/132.0.0.0 Safari/537.36","WebKit","Chrome","132.0.0.0","Windows","10.0","https://app.prolific.com/","en-US,en;q=0.9","6733ba14d32d1b6b8d4b11d8","67949641171f97c04e14fb34","679c247da3b54befff92aa42","","null","<img    src='G_6.jpg' height='90'> <img    src='G_2.jpg' height='90'> <img   src='G_1.jpg' height='90'> <img     src='G_8.jpg' height='90'> <img     src='G_3.jpg' height='90'> <img src='G_7.jpg' height='90'> <img src='G_4.jpg' height='90'> <img src='G_5.jpg' height='90'>","null","Animation1",""
"","","","","","html-keyboard-response","108","1128044","0.0-79.0","68","1","2025-01-31 01:35:15","af8d355d56820e421d246a7037deb6e6","74.80.146.15","Mozilla/5.0 (Windows NT 10.0; Win64; x64) AppleWebKit/537.36 (KHTML, like Gecko) Chrome/132.0.0.0 Safari/537.36","WebKit","Chrome","132.0.0.0","Windows","10.0","https://app.prolific.com/","en-US,en;q=0.9","6733ba14d32d1b6b8d4b11d8","67949641171f97c04e14fb34","679c247da3b54befff92aa42","","null","<img    src='G_6.jpg' height='90'> <img id='selected'    src='G_2.jpg' height='90'> <img   src='G_1.jpg' height='90'> <img     src='G_8.jpg' height='90'> <img     src='G_3.jpg' height='90'> <img src='G_7.jpg' height='90'> <img src='G_4.jpg' height='90'> <img src='G_5.jpg' height='90'>","null","Animation1",""
"","","","","","html-keyboard-response","109","1129037","0.0-80.0","68","1","2025-01-31 01:35:15","af8d355d56820e421d246a7037deb6e6","74.80.146.15","Mozilla/5.0 (Windows NT 10.0; Win64; x64) AppleWebKit/537.36 (KHTML, like Gecko) Chrome/132.0.0.0 Safari/537.36","WebKit","Chrome","132.0.0.0","Windows","10.0","https://app.prolific.com/","en-US,en;q=0.9","6733ba14d32d1b6b8d4b11d8","67949641171f97c04e14fb34","679c247da3b54befff92aa42","","null","<img    src='G_6.jpg' height='90'> <img id='selected'    src='G_2.jpg' height='90'> <img id='selected'   src='G_1.jpg' height='90'> <img     src='G_8.jpg' height='90'> <img     src='G_3.jpg' height='90'> <img src='G_7.jpg' height='90'> <img src='G_4.jpg' height='90'> <img src='G_5.jpg' height='90'>","null","Animation1",""
"","","","","","html-keyboard-response","110","1130032","0.0-81.0","68","1","2025-01-31 01:35:15","af8d355d56820e421d246a7037deb6e6","74.80.146.15","Mozilla/5.0 (Windows NT 10.0; Win64; x64) AppleWebKit/537.36 (KHTML, like Gecko) Chrome/132.0.0.0 Safari/537.36","WebKit","Chrome","132.0.0.0","Windows","10.0","https://app.prolific.com/","en-US,en;q=0.9","6733ba14d32d1b6b8d4b11d8","67949641171f97c04e14fb34","679c247da3b54befff92aa42","","null","<img    src='G_6.jpg' height='90'> <img id='swapped'   src='G_1.jpg' height='90'> <img id='swapped'    src='G_2.jpg' height='90'> <img     src='G_8.jpg' height='90'> <img     src='G_3.jpg' height='90'> <img src='G_7.jpg' height='90'> <img src='G_4.jpg' height='90'> <img src='G_5.jpg' height='90'>","null","Animation1",""
"","","","","","html-keyboard-response","111","1131042","0.0-82.0","68","1","2025-01-31 01:35:15","af8d355d56820e421d246a7037deb6e6","74.80.146.15","Mozilla/5.0 (Windows NT 10.0; Win64; x64) AppleWebKit/537.36 (KHTML, like Gecko) Chrome/132.0.0.0 Safari/537.36","WebKit","Chrome","132.0.0.0","Windows","10.0","https://app.prolific.com/","en-US,en;q=0.9","6733ba14d32d1b6b8d4b11d8","67949641171f97c04e14fb34","679c247da3b54befff92aa42","","null","<img    src='G_6.jpg' height='90'> <img    src='G_1.jpg' height='90'> <img     src='G_2.jpg' height='90'> <img     src='G_8.jpg' height='90'> <img     src='G_3.jpg' height='90'> <img src='G_7.jpg' height='90'> <img src='G_4.jpg' height='90'> <img src='G_5.jpg' height='90'>","null","Animation1",""
"","","","","","html-keyboard-response","112","1132036","0.0-83.0","68","1","2025-01-31 01:35:15","af8d355d56820e421d246a7037deb6e6","74.80.146.15","Mozilla/5.0 (Windows NT 10.0; Win64; x64) AppleWebKit/537.36 (KHTML, like Gecko) Chrome/132.0.0.0 Safari/537.36","WebKit","Chrome","132.0.0.0","Windows","10.0","https://app.prolific.com/","en-US,en;q=0.9","6733ba14d32d1b6b8d4b11d8","67949641171f97c04e14fb34","679c247da3b54befff92aa42","","null","<img id='selected'    src='G_6.jpg' height='90'> <img    src='G_1.jpg' height='90'> <img     src='G_2.jpg' height='90'> <img     src='G_8.jpg' height='90'> <img     src='G_3.jpg' height='90'> <img src='G_7.jpg' height='90'> <img src='G_4.jpg' height='90'> <img src='G_5.jpg' height='90'>","null","Animation1",""
"","","","","","html-keyboard-response","113","1133036","0.0-84.0","68","1","2025-01-31 01:35:15","af8d355d56820e421d246a7037deb6e6","74.80.146.15","Mozilla/5.0 (Windows NT 10.0; Win64; x64) AppleWebKit/537.36 (KHTML, like Gecko) Chrome/132.0.0.0 Safari/537.36","WebKit","Chrome","132.0.0.0","Windows","10.0","https://app.prolific.com/","en-US,en;q=0.9","6733ba14d32d1b6b8d4b11d8","67949641171f97c04e14fb34","679c247da3b54befff92aa42","","null","<img id='selected'    src='G_6.jpg' height='90'> <img id='selected'    src='G_1.jpg' height='90'> <img     src='G_2.jpg' height='90'> <img     src='G_8.jpg' height='90'> <img     src='G_3.jpg' height='90'> <img src='G_7.jpg' height='90'> <img src='G_4.jpg' height='90'> <img src='G_5.jpg' height='90'>","null","Animation1",""
"","","","","","html-keyboard-response","114","1134041","0.0-85.0","68","1","2025-01-31 01:35:15","af8d355d56820e421d246a7037deb6e6","74.80.146.15","Mozilla/5.0 (Windows NT 10.0; Win64; x64) AppleWebKit/537.36 (KHTML, like Gecko) Chrome/132.0.0.0 Safari/537.36","WebKit","Chrome","132.0.0.0","Windows","10.0","https://app.prolific.com/","en-US,en;q=0.9","6733ba14d32d1b6b8d4b11d8","67949641171f97c04e14fb34","679c247da3b54befff92aa42","","null","<img id='selected'    src='G_6.jpg' height='90'> <img id='selected'    src='G_1.jpg' height='90'> <img     src='G_2.jpg' height='90'> <img     src='G_8.jpg' height='90'> <img     src='G_3.jpg' height='90'> <img src='G_7.jpg' height='90'> <img src='G_4.jpg' height='90'> <img src='G_5.jpg' height='90'>","null","Animation1",""
"","","","","","html-keyboard-response","115","1135043","0.0-86.0","68","1","2025-01-31 01:35:15","af8d355d56820e421d246a7037deb6e6","74.80.146.15","Mozilla/5.0 (Windows NT 10.0; Win64; x64) AppleWebKit/537.36 (KHTML, like Gecko) Chrome/132.0.0.0 Safari/537.36","WebKit","Chrome","132.0.0.0","Windows","10.0","https://app.prolific.com/","en-US,en;q=0.9","6733ba14d32d1b6b8d4b11d8","67949641171f97c04e14fb34","679c247da3b54befff92aa42","","null","<img     src='G_6.jpg' height='90'> <img     src='G_1.jpg' height='90'> <img     src='G_2.jpg' height='90'> <img     src='G_8.jpg' height='90'> <img     src='G_3.jpg' height='90'> <img src='G_7.jpg' height='90'> <img src='G_4.jpg' height='90'> <img src='G_5.jpg' height='90'>","null","Animation1",""
"","","","","","html-keyboard-response","116","1136038","0.0-87.0","68","1","2025-01-31 01:35:15","af8d355d56820e421d246a7037deb6e6","74.80.146.15","Mozilla/5.0 (Windows NT 10.0; Win64; x64) AppleWebKit/537.36 (KHTML, like Gecko) Chrome/132.0.0.0 Safari/537.36","WebKit","Chrome","132.0.0.0","Windows","10.0","https://app.prolific.com/","en-US,en;q=0.9","6733ba14d32d1b6b8d4b11d8","67949641171f97c04e14fb34","679c247da3b54befff92aa42","","null","<img     src='G_6.jpg' height='90'> <img     src='G_1.jpg' height='90'> <img     src='G_2.jpg' height='90'> <img     src='G_8.jpg' height='90'> <img id='selected'     src='G_3.jpg' height='90'> <img src='G_7.jpg' height='90'> <img src='G_4.jpg' height='90'> <img src='G_5.jpg' height='90'>","null","Animation1",""
"","","","","","html-keyboard-response","117","1137040","0.0-88.0","68","1","2025-01-31 01:35:15","af8d355d56820e421d246a7037deb6e6","74.80.146.15","Mozilla/5.0 (Windows NT 10.0; Win64; x64) AppleWebKit/537.36 (KHTML, like Gecko) Chrome/132.0.0.0 Safari/537.36","WebKit","Chrome","132.0.0.0","Windows","10.0","https://app.prolific.com/","en-US,en;q=0.9","6733ba14d32d1b6b8d4b11d8","67949641171f97c04e14fb34","679c247da3b54befff92aa42","","null","<img     src='G_6.jpg' height='90'> <img     src='G_1.jpg' height='90'> <img     src='G_2.jpg' height='90'> <img     src='G_8.jpg' height='90'> <img id='selected'     src='G_3.jpg' height='90'> <img id='selected' src='G_7.jpg' height='90'> <img src='G_4.jpg' height='90'> <img src='G_5.jpg' height='90'>","null","Animation1",""
"","","","","","html-keyboard-response","118","1138034","0.0-89.0","68","1","2025-01-31 01:35:15","af8d355d56820e421d246a7037deb6e6","74.80.146.15","Mozilla/5.0 (Windows NT 10.0; Win64; x64) AppleWebKit/537.36 (KHTML, like Gecko) Chrome/132.0.0.0 Safari/537.36","WebKit","Chrome","132.0.0.0","Windows","10.0","https://app.prolific.com/","en-US,en;q=0.9","6733ba14d32d1b6b8d4b11d8","67949641171f97c04e14fb34","679c247da3b54befff92aa42","","null","<img     src='G_6.jpg' height='90'> <img     src='G_1.jpg' height='90'> <img     src='G_2.jpg' height='90'> <img     src='G_8.jpg' height='90'> <img id='swapped' src='G_7.jpg' height='90'> <img id='swapped'     src='G_3.jpg' height='90'> <img src='G_4.jpg' height='90'> <img src='G_5.jpg' height='90'>","null","Animation1",""
"","","","","","html-keyboard-response","119","1139035","0.0-90.0","68","1","2025-01-31 01:35:15","af8d355d56820e421d246a7037deb6e6","74.80.146.15","Mozilla/5.0 (Windows NT 10.0; Win64; x64) AppleWebKit/537.36 (KHTML, like Gecko) Chrome/132.0.0.0 Safari/537.36","WebKit","Chrome","132.0.0.0","Windows","10.0","https://app.prolific.com/","en-US,en;q=0.9","6733ba14d32d1b6b8d4b11d8","67949641171f97c04e14fb34","679c247da3b54befff92aa42","","null","<img     src='G_6.jpg' height='90'> <img     src='G_1.jpg' height='90'> <img     src='G_2.jpg' height='90'> <img     src='G_8.jpg' height='90'> <img  src='G_7.jpg' height='90'> <img      src='G_3.jpg' height='90'> <img src='G_4.jpg' height='90'> <img src='G_5.jpg' height='90'>","null","Animation1",""
"","","","","","html-keyboard-response","120","1140038","0.0-91.0","68","1","2025-01-31 01:35:15","af8d355d56820e421d246a7037deb6e6","74.80.146.15","Mozilla/5.0 (Windows NT 10.0; Win64; x64) AppleWebKit/537.36 (KHTML, like Gecko) Chrome/132.0.0.0 Safari/537.36","WebKit","Chrome","132.0.0.0","Windows","10.0","https://app.prolific.com/","en-US,en;q=0.9","6733ba14d32d1b6b8d4b11d8","67949641171f97c04e14fb34","679c247da3b54befff92aa42","","null","<img     src='G_6.jpg' height='90'> <img     src='G_1.jpg' height='90'> <img     src='G_2.jpg' height='90'> <img id='selected'     src='G_8.jpg' height='90'> <img  src='G_7.jpg' height='90'> <img      src='G_3.jpg' height='90'> <img src='G_4.jpg' height='90'> <img src='G_5.jpg' height='90'>","null","Animation1",""
"","","","","","html-keyboard-response","121","1141044","0.0-92.0","68","1","2025-01-31 01:35:15","af8d355d56820e421d246a7037deb6e6","74.80.146.15","Mozilla/5.0 (Windows NT 10.0; Win64; x64) AppleWebKit/537.36 (KHTML, like Gecko) Chrome/132.0.0.0 Safari/537.36","WebKit","Chrome","132.0.0.0","Windows","10.0","https://app.prolific.com/","en-US,en;q=0.9","6733ba14d32d1b6b8d4b11d8","67949641171f97c04e14fb34","679c247da3b54befff92aa42","","null","<img     src='G_6.jpg' height='90'> <img     src='G_1.jpg' height='90'> <img     src='G_2.jpg' height='90'> <img id='selected'     src='G_8.jpg' height='90'> <img id='selected'  src='G_7.jpg' height='90'> <img      src='G_3.jpg' height='90'> <img src='G_4.jpg' height='90'> <img src='G_5.jpg' height='90'>","null","Animation1",""
"","","","","","html-keyboard-response","122","1142037","0.0-93.0","68","1","2025-01-31 01:35:15","af8d355d56820e421d246a7037deb6e6","74.80.146.15","Mozilla/5.0 (Windows NT 10.0; Win64; x64) AppleWebKit/537.36 (KHTML, like Gecko) Chrome/132.0.0.0 Safari/537.36","WebKit","Chrome","132.0.0.0","Windows","10.0","https://app.prolific.com/","en-US,en;q=0.9","6733ba14d32d1b6b8d4b11d8","67949641171f97c04e14fb34","679c247da3b54befff92aa42","","null","<img     src='G_6.jpg' height='90'> <img     src='G_1.jpg' height='90'> <img     src='G_2.jpg' height='90'> <img id='selected'     src='G_8.jpg' height='90'> <img id='selected'  src='G_7.jpg' height='90'> <img      src='G_3.jpg' height='90'> <img src='G_4.jpg' height='90'> <img src='G_5.jpg' height='90'>","null","Animation1",""
"","","","","","html-keyboard-response","123","1143042","0.0-94.0","68","1","2025-01-31 01:35:15","af8d355d56820e421d246a7037deb6e6","74.80.146.15","Mozilla/5.0 (Windows NT 10.0; Win64; x64) AppleWebKit/537.36 (KHTML, like Gecko) Chrome/132.0.0.0 Safari/537.36","WebKit","Chrome","132.0.0.0","Windows","10.0","https://app.prolific.com/","en-US,en;q=0.9","6733ba14d32d1b6b8d4b11d8","67949641171f97c04e14fb34","679c247da3b54befff92aa42","","null","<img     src='G_6.jpg' height='90'> <img     src='G_1.jpg' height='90'> <img     src='G_2.jpg' height='90'> <img      src='G_8.jpg' height='90'> <img   src='G_7.jpg' height='90'> <img      src='G_3.jpg' height='90'> <img src='G_4.jpg' height='90'> <img src='G_5.jpg' height='90'>","null","Animation1",""
"","","","","","html-keyboard-response","124","1144033","0.0-95.0","68","1","2025-01-31 01:35:15","af8d355d56820e421d246a7037deb6e6","74.80.146.15","Mozilla/5.0 (Windows NT 10.0; Win64; x64) AppleWebKit/537.36 (KHTML, like Gecko) Chrome/132.0.0.0 Safari/537.36","WebKit","Chrome","132.0.0.0","Windows","10.0","https://app.prolific.com/","en-US,en;q=0.9","6733ba14d32d1b6b8d4b11d8","67949641171f97c04e14fb34","679c247da3b54befff92aa42","","null","<img     src='G_6.jpg' height='90'> <img     src='G_1.jpg' height='90'> <img     src='G_2.jpg' height='90'> <img      src='G_8.jpg' height='90'> <img   src='G_7.jpg' height='90'> <img id='selected'      src='G_3.jpg' height='90'> <img src='G_4.jpg' height='90'> <img src='G_5.jpg' height='90'>","null","Animation1",""
"","","","","","html-keyboard-response","125","1145034","0.0-96.0","68","1","2025-01-31 01:35:15","af8d355d56820e421d246a7037deb6e6","74.80.146.15","Mozilla/5.0 (Windows NT 10.0; Win64; x64) AppleWebKit/537.36 (KHTML, like Gecko) Chrome/132.0.0.0 Safari/537.36","WebKit","Chrome","132.0.0.0","Windows","10.0","https://app.prolific.com/","en-US,en;q=0.9","6733ba14d32d1b6b8d4b11d8","67949641171f97c04e14fb34","679c247da3b54befff92aa42","","null","<img     src='G_6.jpg' height='90'> <img     src='G_1.jpg' height='90'> <img     src='G_2.jpg' height='90'> <img      src='G_8.jpg' height='90'> <img   src='G_7.jpg' height='90'> <img id='selected'      src='G_3.jpg' height='90'> <img id='selected' src='G_4.jpg' height='90'> <img src='G_5.jpg' height='90'>","null","Animation1",""
"","","","","","html-keyboard-response","126","1146034","0.0-97.0","68","1","2025-01-31 01:35:15","af8d355d56820e421d246a7037deb6e6","74.80.146.15","Mozilla/5.0 (Windows NT 10.0; Win64; x64) AppleWebKit/537.36 (KHTML, like Gecko) Chrome/132.0.0.0 Safari/537.36","WebKit","Chrome","132.0.0.0","Windows","10.0","https://app.prolific.com/","en-US,en;q=0.9","6733ba14d32d1b6b8d4b11d8","67949641171f97c04e14fb34","679c247da3b54befff92aa42","","null","<img     src='G_6.jpg' height='90'> <img     src='G_1.jpg' height='90'> <img     src='G_2.jpg' height='90'> <img      src='G_8.jpg' height='90'> <img   src='G_7.jpg' height='90'> <img id='selected'      src='G_3.jpg' height='90'> <img id='selected' src='G_4.jpg' height='90'> <img src='G_5.jpg' height='90'>","null","Animation1",""
"","","","","","html-keyboard-response","127","1147032","0.0-98.0","68","1","2025-01-31 01:35:15","af8d355d56820e421d246a7037deb6e6","74.80.146.15","Mozilla/5.0 (Windows NT 10.0; Win64; x64) AppleWebKit/537.36 (KHTML, like Gecko) Chrome/132.0.0.0 Safari/537.36","WebKit","Chrome","132.0.0.0","Windows","10.0","https://app.prolific.com/","en-US,en;q=0.9","6733ba14d32d1b6b8d4b11d8","67949641171f97c04e14fb34","679c247da3b54befff92aa42","","null","<img     src='G_6.jpg' height='90'> <img     src='G_1.jpg' height='90'> <img     src='G_2.jpg' height='90'> <img      src='G_8.jpg' height='90'> <img   src='G_7.jpg' height='90'> <img       src='G_3.jpg' height='90'> <img  src='G_4.jpg' height='90'> <img src='G_5.jpg' height='90'>","null","Animation1",""
"","","","","","html-keyboard-response","128","1148032","0.0-99.0","68","1","2025-01-31 01:35:15","af8d355d56820e421d246a7037deb6e6","74.80.146.15","Mozilla/5.0 (Windows NT 10.0; Win64; x64) AppleWebKit/537.36 (KHTML, like Gecko) Chrome/132.0.0.0 Safari/537.36","WebKit","Chrome","132.0.0.0","Windows","10.0","https://app.prolific.com/","en-US,en;q=0.9","6733ba14d32d1b6b8d4b11d8","67949641171f97c04e14fb34","679c247da3b54befff92aa42","","null","<img     src='G_6.jpg' height='90'> <img     src='G_1.jpg' height='90'> <img     src='G_2.jpg' height='90'> <img      src='G_8.jpg' height='90'> <img   src='G_7.jpg' height='90'> <img       src='G_3.jpg' height='90'> <img id='selected'  src='G_4.jpg' height='90'> <img src='G_5.jpg' height='90'>","null","Animation1",""
"","","","","","html-keyboard-response","129","1149031","0.0-100.0","68","1","2025-01-31 01:35:15","af8d355d56820e421d246a7037deb6e6","74.80.146.15","Mozilla/5.0 (Windows NT 10.0; Win64; x64) AppleWebKit/537.36 (KHTML, like Gecko) Chrome/132.0.0.0 Safari/537.36","WebKit","Chrome","132.0.0.0","Windows","10.0","https://app.prolific.com/","en-US,en;q=0.9","6733ba14d32d1b6b8d4b11d8","67949641171f97c04e14fb34","679c247da3b54befff92aa42","","null","<img     src='G_6.jpg' height='90'> <img     src='G_1.jpg' height='90'> <img     src='G_2.jpg' height='90'> <img      src='G_8.jpg' height='90'> <img   src='G_7.jpg' height='90'> <img       src='G_3.jpg' height='90'> <img id='selected'  src='G_4.jpg' height='90'> <img id='selected' src='G_5.jpg' height='90'>","null","Animation1",""
"","","","","","html-keyboard-response","130","1150045","0.0-101.0","68","1","2025-01-31 01:35:15","af8d355d56820e421d246a7037deb6e6","74.80.146.15","Mozilla/5.0 (Windows NT 10.0; Win64; x64) AppleWebKit/537.36 (KHTML, like Gecko) Chrome/132.0.0.0 Safari/537.36","WebKit","Chrome","132.0.0.0","Windows","10.0","https://app.prolific.com/","en-US,en;q=0.9","6733ba14d32d1b6b8d4b11d8","67949641171f97c04e14fb34","679c247da3b54befff92aa42","","null","<img     src='G_6.jpg' height='90'> <img     src='G_1.jpg' height='90'> <img     src='G_2.jpg' height='90'> <img      src='G_8.jpg' height='90'> <img   src='G_7.jpg' height='90'> <img       src='G_3.jpg' height='90'> <img id='swapped' src='G_5.jpg' height='90'> <img id='swapped'  src='G_4.jpg' height='90'>","null","Animation1",""
"","","","","","html-keyboard-response","131","1151044","0.0-102.0","68","1","2025-01-31 01:35:15","af8d355d56820e421d246a7037deb6e6","74.80.146.15","Mozilla/5.0 (Windows NT 10.0; Win64; x64) AppleWebKit/537.36 (KHTML, like Gecko) Chrome/132.0.0.0 Safari/537.36","WebKit","Chrome","132.0.0.0","Windows","10.0","https://app.prolific.com/","en-US,en;q=0.9","6733ba14d32d1b6b8d4b11d8","67949641171f97c04e14fb34","679c247da3b54befff92aa42","","null","<img     src='G_6.jpg' height='90'> <img     src='G_1.jpg' height='90'> <img     src='G_2.jpg' height='90'> <img      src='G_8.jpg' height='90'> <img   src='G_7.jpg' height='90'> <img       src='G_3.jpg' height='90'> <img  src='G_5.jpg' height='90'> <img   src='G_4.jpg' height='90'>","null","Animation1",""
"","","","","","html-keyboard-response","132","1152034","0.0-103.0","68","1","2025-01-31 01:35:15","af8d355d56820e421d246a7037deb6e6","74.80.146.15","Mozilla/5.0 (Windows NT 10.0; Win64; x64) AppleWebKit/537.36 (KHTML, like Gecko) Chrome/132.0.0.0 Safari/537.36","WebKit","Chrome","132.0.0.0","Windows","10.0","https://app.prolific.com/","en-US,en;q=0.9","6733ba14d32d1b6b8d4b11d8","67949641171f97c04e14fb34","679c247da3b54befff92aa42","","null","<img     src='G_6.jpg' height='90'> <img     src='G_1.jpg' height='90'> <img     src='G_2.jpg' height='90'> <img      src='G_8.jpg' height='90'> <img   src='G_7.jpg' height='90'> <img id='selected'       src='G_3.jpg' height='90'> <img  src='G_5.jpg' height='90'> <img   src='G_4.jpg' height='90'>","null","Animation1",""
"","","","","","html-keyboard-response","133","1153031","0.0-104.0","68","1","2025-01-31 01:35:15","af8d355d56820e421d246a7037deb6e6","74.80.146.15","Mozilla/5.0 (Windows NT 10.0; Win64; x64) AppleWebKit/537.36 (KHTML, like Gecko) Chrome/132.0.0.0 Safari/537.36","WebKit","Chrome","132.0.0.0","Windows","10.0","https://app.prolific.com/","en-US,en;q=0.9","6733ba14d32d1b6b8d4b11d8","67949641171f97c04e14fb34","679c247da3b54befff92aa42","","null","<img     src='G_6.jpg' height='90'> <img     src='G_1.jpg' height='90'> <img     src='G_2.jpg' height='90'> <img      src='G_8.jpg' height='90'> <img   src='G_7.jpg' height='90'> <img id='selected'       src='G_3.jpg' height='90'> <img id='selected'  src='G_5.jpg' height='90'> <img   src='G_4.jpg' height='90'>","null","Animation1",""
"","","","","","html-keyboard-response","134","1154034","0.0-105.0","68","1","2025-01-31 01:35:15","af8d355d56820e421d246a7037deb6e6","74.80.146.15","Mozilla/5.0 (Windows NT 10.0; Win64; x64) AppleWebKit/537.36 (KHTML, like Gecko) Chrome/132.0.0.0 Safari/537.36","WebKit","Chrome","132.0.0.0","Windows","10.0","https://app.prolific.com/","en-US,en;q=0.9","6733ba14d32d1b6b8d4b11d8","67949641171f97c04e14fb34","679c247da3b54befff92aa42","","null","<img     src='G_6.jpg' height='90'> <img     src='G_1.jpg' height='90'> <img     src='G_2.jpg' height='90'> <img      src='G_8.jpg' height='90'> <img   src='G_7.jpg' height='90'> <img id='selected'       src='G_3.jpg' height='90'> <img id='selected'  src='G_5.jpg' height='90'> <img   src='G_4.jpg' height='90'>","null","Animation1",""
"","","","","","html-keyboard-response","135","1155033","0.0-106.0","68","1","2025-01-31 01:35:15","af8d355d56820e421d246a7037deb6e6","74.80.146.15","Mozilla/5.0 (Windows NT 10.0; Win64; x64) AppleWebKit/537.36 (KHTML, like Gecko) Chrome/132.0.0.0 Safari/537.36","WebKit","Chrome","132.0.0.0","Windows","10.0","https://app.prolific.com/","en-US,en;q=0.9","6733ba14d32d1b6b8d4b11d8","67949641171f97c04e14fb34","679c247da3b54befff92aa42","","null","<img     src='G_6.jpg' height='90'> <img     src='G_1.jpg' height='90'> <img     src='G_2.jpg' height='90'> <img      src='G_8.jpg' height='90'> <img   src='G_7.jpg' height='90'> <img        src='G_3.jpg' height='90'> <img   src='G_5.jpg' height='90'> <img   src='G_4.jpg' height='90'>","null","Animation1",""
"","","","","","html-keyboard-response","136","1173403","0.0-107.0","68","1","2025-01-31 01:35:15","af8d355d56820e421d246a7037deb6e6","74.80.146.15","Mozilla/5.0 (Windows NT 10.0; Win64; x64) AppleWebKit/537.36 (KHTML, like Gecko) Chrome/132.0.0.0 Safari/537.36","WebKit","Chrome","132.0.0.0","Windows","10.0","https://app.prolific.com/","en-US,en;q=0.9","6733ba14d32d1b6b8d4b11d8","67949641171f97c04e14fb34","679c247da3b54befff92aa42","","18359","[""Did you notice any patterns? <br><br>Press Enter to watch that example again and follow the steps of Omgne Sort.""]","enter","",""
"","","","","","html-button-response","137","1173814","0.0-108.0","68","1","2025-01-31 01:35:15","af8d355d56820e421d246a7037deb6e6","74.80.146.15","Mozilla/5.0 (Windows NT 10.0; Win64; x64) AppleWebKit/537.36 (KHTML, like Gecko) Chrome/132.0.0.0 Safari/537.36","WebKit","Chrome","132.0.0.0","Windows","10.0","https://app.prolific.com/","en-US,en;q=0.9","6733ba14d32d1b6b8d4b11d8","67949641171f97c04e14fb34","679c247da3b54befff92aa42","","null","<img id='selected' src='G_8.jpg' height='90'> <img src='G_3.jpg' height='90'> <img src='G_2.jpg' height='90'> <img src='G_6.jpg' height='90'> <img src='G_1.jpg' height='90'> <img src='G_7.jpg' height='90'> <img src='G_4.jpg' height='90'> <img src='G_5.jpg' height='90'>","null","Learning example 1",""
"","","","","","html-button-response","138","1174128","0.0-109.0","68","1","2025-01-31 01:35:15","af8d355d56820e421d246a7037deb6e6","74.80.146.15","Mozilla/5.0 (Windows NT 10.0; Win64; x64) AppleWebKit/537.36 (KHTML, like Gecko) Chrome/132.0.0.0 Safari/537.36","WebKit","Chrome","132.0.0.0","Windows","10.0","https://app.prolific.com/","en-US,en;q=0.9","6733ba14d32d1b6b8d4b11d8","67949641171f97c04e14fb34","679c247da3b54befff92aa42","","null","<img id='selected' src='G_8.jpg' height='90'> <img id='selected' src='G_3.jpg' height='90'> <img src='G_2.jpg' height='90'> <img src='G_6.jpg' height='90'> <img src='G_1.jpg' height='90'> <img src='G_7.jpg' height='90'> <img src='G_4.jpg' height='90'> <img src='G_5.jpg' height='90'>","null","Learning example 1",""
"","","","","","html-button-response","139","1174441","0.0-110.0","68","1","2025-01-31 01:35:15","af8d355d56820e421d246a7037deb6e6","74.80.146.15","Mozilla/5.0 (Windows NT 10.0; Win64; x64) AppleWebKit/537.36 (KHTML, like Gecko) Chrome/132.0.0.0 Safari/537.36","WebKit","Chrome","132.0.0.0","Windows","10.0","https://app.prolific.com/","en-US,en;q=0.9","6733ba14d32d1b6b8d4b11d8","67949641171f97c04e14fb34","679c247da3b54befff92aa42","","null","<img id='selected' src='G_8.jpg' height='90'> <img id='selected' src='G_3.jpg' height='90'> <img src='G_2.jpg' height='90'> <img src='G_6.jpg' height='90'> <img src='G_1.jpg' height='90'> <img src='G_7.jpg' height='90'> <img src='G_4.jpg' height='90'> <img src='G_5.jpg' height='90'>","null","Learning example 1",""
"","","","","","html-button-response","140","1178089","0.0-111.0-0.0-0.0","68","1","2025-01-31 01:35:15","af8d355d56820e421d246a7037deb6e6","74.80.146.15","Mozilla/5.0 (Windows NT 10.0; Win64; x64) AppleWebKit/537.36 (KHTML, like Gecko) Chrome/132.0.0.0 Safari/537.36","WebKit","Chrome","132.0.0.0","Windows","10.0","https://app.prolific.com/","en-US,en;q=0.9","6733ba14d32d1b6b8d4b11d8","67949641171f97c04e14fb34","679c247da3b54befff92aa42","","3636","<img id='selected' src='G_8.jpg' height='90'> <img id='selected' src='G_3.jpg' height='90'> <img src='G_2.jpg' height='90'> <img src='G_6.jpg' height='90'> <img src='G_1.jpg' height='90'> <img src='G_7.jpg' height='90'> <img src='G_4.jpg' height='90'> <img src='G_5.jpg' height='90'>","1","Learning example 1",""
"","","","","","html-button-response","141","1178381","0.0-111.1-0.1-0.1","68","1","2025-01-31 01:35:15","af8d355d56820e421d246a7037deb6e6","74.80.146.15","Mozilla/5.0 (Windows NT 10.0; Win64; x64) AppleWebKit/537.36 (KHTML, like Gecko) Chrome/132.0.0.0 Safari/537.36","WebKit","Chrome","132.0.0.0","Windows","10.0","https://app.prolific.com/","en-US,en;q=0.9","6733ba14d32d1b6b8d4b11d8","67949641171f97c04e14fb34","679c247da3b54befff92aa42","","286","<img id='selected' src='G_8.jpg' height='90'> <img id='selected' src='G_3.jpg' height='90'> <img src='G_2.jpg' height='90'> <img src='G_6.jpg' height='90'> <img src='G_1.jpg' height='90'> <img src='G_7.jpg' height='90'> <img src='G_4.jpg' height='90'> <img src='G_5.jpg' height='90'>","0","Learning example 1",""
"","","","","","html-button-response","142","1178593","0.0-112.0","68","1","2025-01-31 01:35:15","af8d355d56820e421d246a7037deb6e6","74.80.146.15","Mozilla/5.0 (Windows NT 10.0; Win64; x64) AppleWebKit/537.36 (KHTML, like Gecko) Chrome/132.0.0.0 Safari/537.36","WebKit","Chrome","132.0.0.0","Windows","10.0","https://app.prolific.com/","en-US,en;q=0.9","6733ba14d32d1b6b8d4b11d8","67949641171f97c04e14fb34","679c247da3b54befff92aa42","","null","<img  src='G_8.jpg' height='90'> <img  src='G_3.jpg' height='90'> <img src='G_2.jpg' height='90'> <img src='G_6.jpg' height='90'> <img src='G_1.jpg' height='90'> <img src='G_7.jpg' height='90'> <img src='G_4.jpg' height='90'> <img src='G_5.jpg' height='90'>","null","Learning example 1",""
"","","","","","html-button-response","143","1179013","0.0-113.0","68","1","2025-01-31 01:35:15","af8d355d56820e421d246a7037deb6e6","74.80.146.15","Mozilla/5.0 (Windows NT 10.0; Win64; x64) AppleWebKit/537.36 (KHTML, like Gecko) Chrome/132.0.0.0 Safari/537.36","WebKit","Chrome","132.0.0.0","Windows","10.0","https://app.prolific.com/","en-US,en;q=0.9","6733ba14d32d1b6b8d4b11d8","67949641171f97c04e14fb34","679c247da3b54befff92aa42","","null","<img  src='G_8.jpg' height='90'> <img id='selected'  src='G_3.jpg' height='90'> <img src='G_2.jpg' height='90'> <img src='G_6.jpg' height='90'> <img src='G_1.jpg' height='90'> <img src='G_7.jpg' height='90'> <img src='G_4.jpg' height='90'> <img src='G_5.jpg' height='90'>","null","Learning example 1",""
"","","","","","html-button-response","144","1179327","0.0-114.0","68","1","2025-01-31 01:35:15","af8d355d56820e421d246a7037deb6e6","74.80.146.15","Mozilla/5.0 (Windows NT 10.0; Win64; x64) AppleWebKit/537.36 (KHTML, like Gecko) Chrome/132.0.0.0 Safari/537.36","WebKit","Chrome","132.0.0.0","Windows","10.0","https://app.prolific.com/","en-US,en;q=0.9","6733ba14d32d1b6b8d4b11d8","67949641171f97c04e14fb34","679c247da3b54befff92aa42","","null","<img  src='G_8.jpg' height='90'> <img id='selected'  src='G_3.jpg' height='90'> <img id='selected' src='G_2.jpg' height='90'> <img src='G_6.jpg' height='90'> <img src='G_1.jpg' height='90'> <img src='G_7.jpg' height='90'> <img src='G_4.jpg' height='90'> <img src='G_5.jpg' height='90'>","null","Learning example 1",""
"","","","","","html-button-response","145","1179645","0.0-115.0","68","1","2025-01-31 01:35:15","af8d355d56820e421d246a7037deb6e6","74.80.146.15","Mozilla/5.0 (Windows NT 10.0; Win64; x64) AppleWebKit/537.36 (KHTML, like Gecko) Chrome/132.0.0.0 Safari/537.36","WebKit","Chrome","132.0.0.0","Windows","10.0","https://app.prolific.com/","en-US,en;q=0.9","6733ba14d32d1b6b8d4b11d8","67949641171f97c04e14fb34","679c247da3b54befff92aa42","","null","<img  src='G_8.jpg' height='90'> <img id='swapped' src='G_2.jpg' height='90'> <img id='swapped'  src='G_3.jpg' height='90'> <img src='G_6.jpg' height='90'> <img src='G_1.jpg' height='90'> <img src='G_7.jpg' height='90'> <img src='G_4.jpg' height='90'> <img src='G_5.jpg' height='90'>","null","Learning example 1",""
