"success","timeout","failed_images","failed_audio","failed_video","trial_type","trial_index","time_elapsed","internal_node_id","run_id","condition","recorded_at","source_code_version","ip","user_agent","device","browser","browser_version","platform","platform_version","referer","accept_language","PROLIFIC_PID","STUDY_ID","SESSION_ID","view_history","rt","stimulus","response","phase","question_order"
"true","false","[]","[]","[]","preload","0","6048","0.0-0.0","69","1","2025-01-31 01:35:18","af8d355d56820e421d246a7037deb6e6","207.230.114.129","Mozilla/5.0 (Windows NT 10.0; Win64; x64) AppleWebKit/537.36 (KHTML, like Gecko) Chrome/132.0.0.0 Safari/537.36","WebKit","Chrome","132.0.0.0","Windows","10.0","https://app.prolific.com/","en-US,en;q=0.9","671440da17d283b1ef1035be","67949641171f97c04e14fb34","679c24880956711d72158c25","","","","","",""
"","","","","","instructions","1","388809","0.0-1.0","69","1","2025-01-31 01:35:18","af8d355d56820e421d246a7037deb6e6","207.230.114.129","Mozilla/5.0 (Windows NT 10.0; Win64; x64) AppleWebKit/537.36 (KHTML, like Gecko) Chrome/132.0.0.0 Safari/537.36","WebKit","Chrome","132.0.0.0","Windows","10.0","https://app.prolific.com/","en-US,en;q=0.9","671440da17d283b1ef1035be","67949641171f97c04e14fb34","679c24880956711d72158c25","[{""page_index"":0,""viewing_time"":382752}]","382753","","","",""
"","","","","","html-keyboard-response","2","389329","0.0-2.0","69","1","2025-01-31 01:35:18","af8d355d56820e421d246a7037deb6e6","207.230.114.129","Mozilla/5.0 (Windows NT 10.0; Win64; x64) AppleWebKit/537.36 (KHTML, like Gecko) Chrome/132.0.0.0 Safari/537.36","WebKit","Chrome","132.0.0.0","Windows","10.0","https://app.prolific.com/","en-US,en;q=0.9","671440da17d283b1ef1035be","67949641171f97c04e14fb34","679c24880956711d72158c25","","null","<p> + <p/>","null","",""
"","","","","","instructions","3","467961","0.0-3.0","69","1","2025-01-31 01:35:18","af8d355d56820e421d246a7037deb6e6","207.230.114.129","Mozilla/5.0 (Windows NT 10.0; Win64; x64) AppleWebKit/537.36 (KHTML, like Gecko) Chrome/132.0.0.0 Safari/537.36","WebKit","Chrome","132.0.0.0","Windows","10.0","https://app.prolific.com/","en-US,en;q=0.9","671440da17d283b1ef1035be","67949641171f97c04e14fb34","679c24880956711d72158c25","[{""page_index"":0,""viewing_time"":30449},{""page_index"":1,""viewing_time"":43049},{""page_index"":2,""viewing_time"":1122},{""page_index"":3,""viewing_time"":1830},{""page_index"":4,""viewing_time"":2180}]","78630","","","",""
"","","","","","html-button-response","4","469727","0.0-4.0-0.0-0.0","69","1","2025-01-31 01:35:18","af8d355d56820e421d246a7037deb6e6","207.230.114.129","Mozilla/5.0 (Windows NT 10.0; Win64; x64) AppleWebKit/537.36 (KHTML, like Gecko) Chrome/132.0.0.0 Safari/537.36","WebKit","Chrome","132.0.0.0","Windows","10.0","https://app.prolific.com/","en-US,en;q=0.9","671440da17d283b1ef1035be","67949641171f97c04e14fb34","679c24880956711d72158c25","","1757","","4","Intro Trial",""
"","","","","","html-button-response","5","470079","0.0-4.1-0.1-0.1","69","1","2025-01-31 01:35:18","af8d355d56820e421d246a7037deb6e6","207.230.114.129","Mozilla/5.0 (Windows NT 10.0; Win64; x64) AppleWebKit/537.36 (KHTML, like Gecko) Chrome/132.0.0.0 Safari/537.36","WebKit","Chrome","132.0.0.0","Windows","10.0","https://app.prolific.com/","en-US,en;q=0.9","671440da17d283b1ef1035be","67949641171f97c04e14fb34","679c24880956711d72158c25","","348","","3","Intro Trial",""
"","","","","","html-button-response","6","471202","0.0-4.2-0.2-0.2","69","1","2025-01-31 01:35:18","af8d355d56820e421d246a7037deb6e6","207.230.114.129","Mozilla/5.0 (Windows NT 10.0; Win64; x64) AppleWebKit/537.36 (KHTML, like Gecko) Chrome/132.0.0.0 Safari/537.36","WebKit","Chrome","132.0.0.0","Windows","10.0","https://app.prolific.com/","en-US,en;q=0.9","671440da17d283b1ef1035be","67949641171f97c04e14fb34","679c24880956711d72158c25","","1119","","2","Intro Trial",""
"","","","","","html-button-response","7","471463","0.0-4.3-0.3-0.3","69","1","2025-01-31 01:35:18","af8d355d56820e421d246a7037deb6e6","207.230.114.129","Mozilla/5.0 (Windows NT 10.0; Win64; x64) AppleWebKit/537.36 (KHTML, like Gecko) Chrome/132.0.0.0 Safari/537.36","WebKit","Chrome","132.0.0.0","Windows","10.0","https://app.prolific.com/","en-US,en;q=0.9","671440da17d283b1ef1035be","67949641171f97c04e14fb34","679c24880956711d72158c25","","257","","1","Intro Trial",""
"","","","","","html-button-response","8","472256","0.0-4.4-0.4-0.4","69","1","2025-01-31 01:35:18","af8d355d56820e421d246a7037deb6e6","207.230.114.129","Mozilla/5.0 (Windows NT 10.0; Win64; x64) AppleWebKit/537.36 (KHTML, like Gecko) Chrome/132.0.0.0 Safari/537.36","WebKit","Chrome","132.0.0.0","Windows","10.0","https://app.prolific.com/","en-US,en;q=0.9","671440da17d283b1ef1035be","67949641171f97c04e14fb34","679c24880956711d72158c25","","790","","3","Intro Trial",""
"","","","","","html-button-response","9","472502","0.0-4.5-0.5-0.5","69","1","2025-01-31 01:35:18","af8d355d56820e421d246a7037deb6e6","207.230.114.129","Mozilla/5.0 (Windows NT 10.0; Win64; x64) AppleWebKit/537.36 (KHTML, like Gecko) Chrome/132.0.0.0 Safari/537.36","WebKit","Chrome","132.0.0.0","Windows","10.0","https://app.prolific.com/","en-US,en;q=0.9","671440da17d283b1ef1035be","67949641171f97c04e14fb34","679c24880956711d72158c25","","241","","2","Intro Trial",""
"","","","","","html-button-response","10","473665","0.0-4.6-0.6-0.6","69","1","2025-01-31 01:35:18","af8d355d56820e421d246a7037deb6e6","207.230.114.129","Mozilla/5.0 (Windows NT 10.0; Win64; x64) AppleWebKit/537.36 (KHTML, like Gecko) Chrome/132.0.0.0 Safari/537.36","WebKit","Chrome","132.0.0.0","Windows","10.0","https://app.prolific.com/","en-US,en;q=0.9","671440da17d283b1ef1035be","67949641171f97c04e14fb34","679c24880956711d72158c25","","1160","","2","Intro Trial",""
"","","","","","html-button-response","11","473984","0.0-4.7-0.7-0.7","69","1","2025-01-31 01:35:18","af8d355d56820e421d246a7037deb6e6","207.230.114.129","Mozilla/5.0 (Windows NT 10.0; Win64; x64) AppleWebKit/537.36 (KHTML, like Gecko) Chrome/132.0.0.0 Safari/537.36","WebKit","Chrome","132.0.0.0","Windows","10.0","https://app.prolific.com/","en-US,en;q=0.9","671440da17d283b1ef1035be","67949641171f97c04e14fb34","679c24880956711d72158c25","","318","","1","Intro Trial",""
"","","","","","html-button-response","12","475362","0.0-4.8-0.8-0.8","69","1","2025-01-31 01:35:18","af8d355d56820e421d246a7037deb6e6","207.230.114.129","Mozilla/5.0 (Windows NT 10.0; Win64; x64) AppleWebKit/537.36 (KHTML, like Gecko) Chrome/132.0.0.0 Safari/537.36","WebKit","Chrome","132.0.0.0","Windows","10.0","https://app.prolific.com/","en-US,en;q=0.9","671440da17d283b1ef1035be","67949641171f97c04e14fb34","679c24880956711d72158c25","","1373","","1","Intro Trial",""
"","","","","","html-button-response","13","475635","0.0-4.9-0.9-0.9","69","1","2025-01-31 01:35:18","af8d355d56820e421d246a7037deb6e6","207.230.114.129","Mozilla/5.0 (Windows NT 10.0; Win64; x64) AppleWebKit/537.36 (KHTML, like Gecko) Chrome/132.0.0.0 Safari/537.36","WebKit","Chrome","132.0.0.0","Windows","10.0","https://app.prolific.com/","en-US,en;q=0.9","671440da17d283b1ef1035be","67949641171f97c04e14fb34","679c24880956711d72158c25","","266","","0","Intro Trial",""
"","","","","","html-button-response","14","476416","0.0-4.10-0.10-0.10","69","1","2025-01-31 01:35:18","af8d355d56820e421d246a7037deb6e6","207.230.114.129","Mozilla/5.0 (Windows NT 10.0; Win64; x64) AppleWebKit/537.36 (KHTML, like Gecko) Chrome/132.0.0.0 Safari/537.36","WebKit","Chrome","132.0.0.0","Windows","10.0","https://app.prolific.com/","en-US,en;q=0.9","671440da17d283b1ef1035be","67949641171f97c04e14fb34","679c24880956711d72158c25","","779","","0","Intro Trial",""
"","","","","","html-button-response","15","476699","0.0-4.11-0.11-0.11","69","1","2025-01-31 01:35:18","af8d355d56820e421d246a7037deb6e6","207.230.114.129","Mozilla/5.0 (Windows NT 10.0; Win64; x64) AppleWebKit/537.36 (KHTML, like Gecko) Chrome/132.0.0.0 Safari/537.36","WebKit","Chrome","132.0.0.0","Windows","10.0","https://app.prolific.com/","en-US,en;q=0.9","671440da17d283b1ef1035be","67949641171f97c04e14fb34","679c24880956711d72158c25","","281","","1","Intro Trial",""
"","","","","","html-button-response","16","477506","0.0-4.12-0.12-0.12","69","1","2025-01-31 01:35:18","af8d355d56820e421d246a7037deb6e6","207.230.114.129","Mozilla/5.0 (Windows NT 10.0; Win64; x64) AppleWebKit/537.36 (KHTML, like Gecko) Chrome/132.0.0.0 Safari/537.36","WebKit","Chrome","132.0.0.0","Windows","10.0","https://app.prolific.com/","en-US,en;q=0.9","671440da17d283b1ef1035be","67949641171f97c04e14fb34","679c24880956711d72158c25","","803","","1","Intro Trial",""
"","","","","","html-button-response","17","477823","0.0-4.13-0.13-0.13","69","1","2025-01-31 01:35:18","af8d355d56820e421d246a7037deb6e6","207.230.114.129","Mozilla/5.0 (Windows NT 10.0; Win64; x64) AppleWebKit/537.36 (KHTML, like Gecko) Chrome/132.0.0.0 Safari/537.36","WebKit","Chrome","132.0.0.0","Windows","10.0","https://app.prolific.com/","en-US,en;q=0.9","671440da17d283b1ef1035be","67949641171f97c04e14fb34","679c24880956711d72158c25","","314","","2","Intro Trial",""
"","","","","","html-button-response","18","479105","0.0-4.14-0.14-0.14","69","1","2025-01-31 01:35:18","af8d355d56820e421d246a7037deb6e6","207.230.114.129","Mozilla/5.0 (Windows NT 10.0; Win64; x64) AppleWebKit/537.36 (KHTML, like Gecko) Chrome/132.0.0.0 Safari/537.36","WebKit","Chrome","132.0.0.0","Windows","10.0","https://app.prolific.com/","en-US,en;q=0.9","671440da17d283b1ef1035be","67949641171f97c04e14fb34","679c24880956711d72158c25","","1278","","2","Intro Trial",""
"","","","","","html-button-response","19","479351","0.0-4.15-0.15-0.15","69","1","2025-01-31 01:35:18","af8d355d56820e421d246a7037deb6e6","207.230.114.129","Mozilla/5.0 (Windows NT 10.0; Win64; x64) AppleWebKit/537.36 (KHTML, like Gecko) Chrome/132.0.0.0 Safari/537.36","WebKit","Chrome","132.0.0.0","Windows","10.0","https://app.prolific.com/","en-US,en;q=0.9","671440da17d283b1ef1035be","67949641171f97c04e14fb34","679c24880956711d72158c25","","242","","1","Intro Trial",""
"","","","","","html-button-response","20","480298","0.0-4.16-0.16-0.16","69","1","2025-01-31 01:35:18","af8d355d56820e421d246a7037deb6e6","207.230.114.129","Mozilla/5.0 (Windows NT 10.0; Win64; x64) AppleWebKit/537.36 (KHTML, like Gecko) Chrome/132.0.0.0 Safari/537.36","WebKit","Chrome","132.0.0.0","Windows","10.0","https://app.prolific.com/","en-US,en;q=0.9","671440da17d283b1ef1035be","67949641171f97c04e14fb34","679c24880956711d72158c25","","943","","3","Intro Trial",""
"","","","","","html-button-response","21","480536","0.0-4.17-0.17-0.17","69","1","2025-01-31 01:35:18","af8d355d56820e421d246a7037deb6e6","207.230.114.129","Mozilla/5.0 (Windows NT 10.0; Win64; x64) AppleWebKit/537.36 (KHTML, like Gecko) Chrome/132.0.0.0 Safari/537.36","WebKit","Chrome","132.0.0.0","Windows","10.0","https://app.prolific.com/","en-US,en;q=0.9","671440da17d283b1ef1035be","67949641171f97c04e14fb34","679c24880956711d72158c25","","234","","2","Intro Trial",""
"","","","","","html-button-response","22","481397","0.0-4.18-0.18-0.18","69","1","2025-01-31 01:35:18","af8d355d56820e421d246a7037deb6e6","207.230.114.129","Mozilla/5.0 (Windows NT 10.0; Win64; x64) AppleWebKit/537.36 (KHTML, like Gecko) Chrome/132.0.0.0 Safari/537.36","WebKit","Chrome","132.0.0.0","Windows","10.0","https://app.prolific.com/","en-US,en;q=0.9","671440da17d283b1ef1035be","67949641171f97c04e14fb34","679c24880956711d72158c25","","856","","4","Intro Trial",""
"","","","","","html-button-response","23","481662","0.0-4.19-0.19-0.19","69","1","2025-01-31 01:35:18","af8d355d56820e421d246a7037deb6e6","207.230.114.129","Mozilla/5.0 (Windows NT 10.0; Win64; x64) AppleWebKit/537.36 (KHTML, like Gecko) Chrome/132.0.0.0 Safari/537.36","WebKit","Chrome","132.0.0.0","Windows","10.0","https://app.prolific.com/","en-US,en;q=0.9","671440da17d283b1ef1035be","67949641171f97c04e14fb34","679c24880956711d72158c25","","261","","3","Intro Trial",""
"","","","","","html-button-response","24","482327","0.0-4.20-0.20-0.20","69","1","2025-01-31 01:35:18","af8d355d56820e421d246a7037deb6e6","207.230.114.129","Mozilla/5.0 (Windows NT 10.0; Win64; x64) AppleWebKit/537.36 (KHTML, like Gecko) Chrome/132.0.0.0 Safari/537.36","WebKit","Chrome","132.0.0.0","Windows","10.0","https://app.prolific.com/","en-US,en;q=0.9","671440da17d283b1ef1035be","67949641171f97c04e14fb34","679c24880956711d72158c25","","660","","3","Intro Trial",""
"","","","","","html-button-response","25","482608","0.0-4.21-0.21-0.21","69","1","2025-01-31 01:35:18","af8d355d56820e421d246a7037deb6e6","207.230.114.129","Mozilla/5.0 (Windows NT 10.0; Win64; x64) AppleWebKit/537.36 (KHTML, like Gecko) Chrome/132.0.0.0 Safari/537.36","WebKit","Chrome","132.0.0.0","Windows","10.0","https://app.prolific.com/","en-US,en;q=0.9","671440da17d283b1ef1035be","67949641171f97c04e14fb34","679c24880956711d72158c25","","277","","4","Intro Trial",""
"","","","","","html-button-response","26","483191","0.0-4.22-0.22-0.22","69","1","2025-01-31 01:35:18","af8d355d56820e421d246a7037deb6e6","207.230.114.129","Mozilla/5.0 (Windows NT 10.0; Win64; x64) AppleWebKit/537.36 (KHTML, like Gecko) Chrome/132.0.0.0 Safari/537.36","WebKit","Chrome","132.0.0.0","Windows","10.0","https://app.prolific.com/","en-US,en;q=0.9","671440da17d283b1ef1035be","67949641171f97c04e14fb34","679c24880956711d72158c25","","578","","4","Intro Trial",""
"","","","","","html-button-response","27","483912","0.0-4.23-0.23-0.23","69","1","2025-01-31 01:35:18","af8d355d56820e421d246a7037deb6e6","207.230.114.129","Mozilla/5.0 (Windows NT 10.0; Win64; x64) AppleWebKit/537.36 (KHTML, like Gecko) Chrome/132.0.0.0 Safari/537.36","WebKit","Chrome","132.0.0.0","Windows","10.0","https://app.prolific.com/","en-US,en;q=0.9","671440da17d283b1ef1035be","67949641171f97c04e14fb34","679c24880956711d72158c25","","717","","2","Intro Trial",""
"","","","","","html-button-response","28","484390","0.0-4.24-0.24-0.24","69","1","2025-01-31 01:35:18","af8d355d56820e421d246a7037deb6e6","207.230.114.129","Mozilla/5.0 (Windows NT 10.0; Win64; x64) AppleWebKit/537.36 (KHTML, like Gecko) Chrome/132.0.0.0 Safari/537.36","WebKit","Chrome","132.0.0.0","Windows","10.0","https://app.prolific.com/","en-US,en;q=0.9","671440da17d283b1ef1035be","67949641171f97c04e14fb34","679c24880956711d72158c25","","473","","3","Intro Trial",""
"","","","","","html-button-response","29","485103","0.0-4.25-0.25-0.25","69","1","2025-01-31 01:35:18","af8d355d56820e421d246a7037deb6e6","207.230.114.129","Mozilla/5.0 (Windows NT 10.0; Win64; x64) AppleWebKit/537.36 (KHTML, like Gecko) Chrome/132.0.0.0 Safari/537.36","WebKit","Chrome","132.0.0.0","Windows","10.0","https://app.prolific.com/","en-US,en;q=0.9","671440da17d283b1ef1035be","67949641171f97c04e14fb34","679c24880956711d72158c25","","708","","2","Intro Trial",""
"","","","","","html-button-response","30","486302","0.0-4.26-0.26-0.26","69","1","2025-01-31 01:35:18","af8d355d56820e421d246a7037deb6e6","207.230.114.129","Mozilla/5.0 (Windows NT 10.0; Win64; x64) AppleWebKit/537.36 (KHTML, like Gecko) Chrome/132.0.0.0 Safari/537.36","WebKit","Chrome","132.0.0.0","Windows","10.0","https://app.prolific.com/","en-US,en;q=0.9","671440da17d283b1ef1035be","67949641171f97c04e14fb34","679c24880956711d72158c25","","1196","","5","Intro Trial",""
"","","","","","html-keyboard-response","31","493357","0.0-5.0","69","1","2025-01-31 01:35:18","af8d355d56820e421d246a7037deb6e6","207.230.114.129","Mozilla/5.0 (Windows NT 10.0; Win64; x64) AppleWebKit/537.36 (KHTML, like Gecko) Chrome/132.0.0.0 Safari/537.36","WebKit","Chrome","132.0.0.0","Windows","10.0","https://app.prolific.com/","en-US,en;q=0.9","671440da17d283b1ef1035be","67949641171f97c04e14fb34","679c24880956711d72158c25","","7052","[""You sorted correctly by using the balance 13 times. <br><br> <img src='G_5.jpg' height='90'><img src='G_2.jpg' height='90'><img src='G_3.jpg' height='90'><img src='G_1.jpg' height='90'><img src='G_4.jpg' height='90'><br><br> Your final order is 1,2,3,4,5<br><br><br>Omgne Sort in this game will allow you to sort correctly by using the balance 8 times. Press Enter to learn it!""]","enter","",""
"","","","","","html-keyboard-response","32","494309","0.0-6.0","69","1","2025-01-31 01:35:18","af8d355d56820e421d246a7037deb6e6","207.230.114.129","Mozilla/5.0 (Windows NT 10.0; Win64; x64) AppleWebKit/537.36 (KHTML, like Gecko) Chrome/132.0.0.0 Safari/537.36","WebKit","Chrome","132.0.0.0","Windows","10.0","https://app.prolific.com/","en-US,en;q=0.9","671440da17d283b1ef1035be","67949641171f97c04e14fb34","679c24880956711d72158c25","","948","<p>Welcome to the learning phase! <br><br> You will learn by six examples. The following learning trials will not be used to calculate your performance. <br><br> Press Enter to continue.<p/>","enter","",""
"","","","","","html-keyboard-response","33","1295228","0.0-7.0","69","1","2025-01-31 01:35:18","af8d355d56820e421d246a7037deb6e6","207.230.114.129","Mozilla/5.0 (Windows NT 10.0; Win64; x64) AppleWebKit/537.36 (KHTML, like Gecko) Chrome/132.0.0.0 Safari/537.36","WebKit","Chrome","132.0.0.0","Windows","10.0","https://app.prolific.com/","en-US,en;q=0.9","671440da17d283b1ef1035be","67949641171f97c04e14fb34","679c24880956711d72158c25","","800916","[""Example 1<br><br>You will watch Omnge Sort in action. Try to identify any patterns in the comparisons made by this method. <br><br>Press Enter to continue.""]","enter","",""
"","","","","","html-keyboard-response","34","1295737","0.0-8.0","69","1","2025-01-31 01:35:18","af8d355d56820e421d246a7037deb6e6","207.230.114.129","Mozilla/5.0 (Windows NT 10.0; Win64; x64) AppleWebKit/537.36 (KHTML, like Gecko) Chrome/132.0.0.0 Safari/537.36","WebKit","Chrome","132.0.0.0","Windows","10.0","https://app.prolific.com/","en-US,en;q=0.9","671440da17d283b1ef1035be","67949641171f97c04e14fb34","679c24880956711d72158c25","","null","<img id='selected' src='G_1.jpg' height='90'> <img src='G_5.jpg' height='90'> <img src='G_3.jpg' height='90'> <img src='G_7.jpg' height='90'> <img src='G_9.jpg' height='90'>","null","Animation0",""
"","","","","","html-keyboard-response","35","1296254","0.0-9.0","69","1","2025-01-31 01:35:18","af8d355d56820e421d246a7037deb6e6","207.230.114.129","Mozilla/5.0 (Windows NT 10.0; Win64; x64) AppleWebKit/537.36 (KHTML, like Gecko) Chrome/132.0.0.0 Safari/537.36","WebKit","Chrome","132.0.0.0","Windows","10.0","https://app.prolific.com/","en-US,en;q=0.9","671440da17d283b1ef1035be","67949641171f97c04e14fb34","679c24880956711d72158c25","","null","<img id='selected' src='G_1.jpg' height='90'> <img id='selected' src='G_5.jpg' height='90'> <img src='G_3.jpg' height='90'> <img src='G_7.jpg' height='90'> <img src='G_9.jpg' height='90'>","null","Animation0",""
"","","","","","html-keyboard-response","36","1296768","0.0-10.0","69","1","2025-01-31 01:35:18","af8d355d56820e421d246a7037deb6e6","207.230.114.129","Mozilla/5.0 (Windows NT 10.0; Win64; x64) AppleWebKit/537.36 (KHTML, like Gecko) Chrome/132.0.0.0 Safari/537.36","WebKit","Chrome","132.0.0.0","Windows","10.0","https://app.prolific.com/","en-US,en;q=0.9","671440da17d283b1ef1035be","67949641171f97c04e14fb34","679c24880956711d72158c25","","null","<img id='swapped' src='G_5.jpg' height='90'> <img id='swapped' src='G_1.jpg' height='90'> <img src='G_3.jpg' height='90'> <img src='G_7.jpg' height='90'> <img src='G_9.jpg' height='90'>","null","Animation0",""
"","","","","","html-keyboard-response","37","1297089","0.0-11.0","69","1","2025-01-31 01:35:18","af8d355d56820e421d246a7037deb6e6","207.230.114.129","Mozilla/5.0 (Windows NT 10.0; Win64; x64) AppleWebKit/537.36 (KHTML, like Gecko) Chrome/132.0.0.0 Safari/537.36","WebKit","Chrome","132.0.0.0","Windows","10.0","https://app.prolific.com/","en-US,en;q=0.9","671440da17d283b1ef1035be","67949641171f97c04e14fb34","679c24880956711d72158c25","","null","<img  src='G_5.jpg' height='90'> <img  src='G_1.jpg' height='90'> <img src='G_3.jpg' height='90'> <img src='G_7.jpg' height='90'> <img src='G_9.jpg' height='90'>","null","Animation0",""
"","","","","","html-keyboard-response","38","1297605","0.0-12.0","69","1","2025-01-31 01:35:18","af8d355d56820e421d246a7037deb6e6","207.230.114.129","Mozilla/5.0 (Windows NT 10.0; Win64; x64) AppleWebKit/537.36 (KHTML, like Gecko) Chrome/132.0.0.0 Safari/537.36","WebKit","Chrome","132.0.0.0","Windows","10.0","https://app.prolific.com/","en-US,en;q=0.9","671440da17d283b1ef1035be","67949641171f97c04e14fb34","679c24880956711d72158c25","","null","<img  src='G_5.jpg' height='90'> <img id='selected'  src='G_1.jpg' height='90'> <img src='G_3.jpg' height='90'> <img src='G_7.jpg' height='90'> <img src='G_9.jpg' height='90'>","null","Animation0",""
"","","","","","html-keyboard-response","39","1298124","0.0-13.0","69","1","2025-01-31 01:35:18","af8d355d56820e421d246a7037deb6e6","207.230.114.129","Mozilla/5.0 (Windows NT 10.0; Win64; x64) AppleWebKit/537.36 (KHTML, like Gecko) Chrome/132.0.0.0 Safari/537.36","WebKit","Chrome","132.0.0.0","Windows","10.0","https://app.prolific.com/","en-US,en;q=0.9","671440da17d283b1ef1035be","67949641171f97c04e14fb34","679c24880956711d72158c25","","null","<img  src='G_5.jpg' height='90'> <img id='selected'  src='G_1.jpg' height='90'> <img id='selected' src='G_3.jpg' height='90'> <img src='G_7.jpg' height='90'> <img src='G_9.jpg' height='90'>","null","Animation0",""
"","","","","","html-keyboard-response","40","1298639","0.0-14.0","69","1","2025-01-31 01:35:18","af8d355d56820e421d246a7037deb6e6","207.230.114.129","Mozilla/5.0 (Windows NT 10.0; Win64; x64) AppleWebKit/537.36 (KHTML, like Gecko) Chrome/132.0.0.0 Safari/537.36","WebKit","Chrome","132.0.0.0","Windows","10.0","https://app.prolific.com/","en-US,en;q=0.9","671440da17d283b1ef1035be","67949641171f97c04e14fb34","679c24880956711d72158c25","","null","<img  src='G_5.jpg' height='90'> <img id='selected'  src='G_1.jpg' height='90'> <img id='selected' src='G_3.jpg' height='90'> <img src='G_7.jpg' height='90'> <img src='G_9.jpg' height='90'>","null","Animation0",""
"","","","","","html-keyboard-response","41","1298959","0.0-15.0","69","1","2025-01-31 01:35:18","af8d355d56820e421d246a7037deb6e6","207.230.114.129","Mozilla/5.0 (Windows NT 10.0; Win64; x64) AppleWebKit/537.36 (KHTML, like Gecko) Chrome/132.0.0.0 Safari/537.36","WebKit","Chrome","132.0.0.0","Windows","10.0","https://app.prolific.com/","en-US,en;q=0.9","671440da17d283b1ef1035be","67949641171f97c04e14fb34","679c24880956711d72158c25","","null","<img  src='G_5.jpg' height='90'> <img   src='G_1.jpg' height='90'> <img  src='G_3.jpg' height='90'> <img src='G_7.jpg' height='90'> <img src='G_9.jpg' height='90'>","null","Animation0",""
"","","","","","html-keyboard-response","42","1299473","0.0-16.0","69","1","2025-01-31 01:35:18","af8d355d56820e421d246a7037deb6e6","207.230.114.129","Mozilla/5.0 (Windows NT 10.0; Win64; x64) AppleWebKit/537.36 (KHTML, like Gecko) Chrome/132.0.0.0 Safari/537.36","WebKit","Chrome","132.0.0.0","Windows","10.0","https://app.prolific.com/","en-US,en;q=0.9","671440da17d283b1ef1035be","67949641171f97c04e14fb34","679c24880956711d72158c25","","null","<img  src='G_5.jpg' height='90'> <img   src='G_1.jpg' height='90'> <img id='selected'  src='G_3.jpg' height='90'> <img src='G_7.jpg' height='90'> <img src='G_9.jpg' height='90'>","null","Animation0",""
"","","","","","html-keyboard-response","43","1300628","0.0-17.0","69","1","2025-01-31 01:35:18","af8d355d56820e421d246a7037deb6e6","207.230.114.129","Mozilla/5.0 (Windows NT 10.0; Win64; x64) AppleWebKit/537.36 (KHTML, like Gecko) Chrome/132.0.0.0 Safari/537.36","WebKit","Chrome","132.0.0.0","Windows","10.0","https://app.prolific.com/","en-US,en;q=0.9","671440da17d283b1ef1035be","67949641171f97c04e14fb34","679c24880956711d72158c25","","null","<img  src='G_5.jpg' height='90'> <img   src='G_1.jpg' height='90'> <img id='selected'  src='G_3.jpg' height='90'> <img id='selected' src='G_7.jpg' height='90'> <img src='G_9.jpg' height='90'>","null","Animation0",""
"","","","","","html-keyboard-response","44","1301621","0.0-18.0","69","1","2025-01-31 01:35:18","af8d355d56820e421d246a7037deb6e6","207.230.114.129","Mozilla/5.0 (Windows NT 10.0; Win64; x64) AppleWebKit/537.36 (KHTML, like Gecko) Chrome/132.0.0.0 Safari/537.36","WebKit","Chrome","132.0.0.0","Windows","10.0","https://app.prolific.com/","en-US,en;q=0.9","671440da17d283b1ef1035be","67949641171f97c04e14fb34","679c24880956711d72158c25","","null","<img  src='G_5.jpg' height='90'> <img   src='G_1.jpg' height='90'> <img id='selected'  src='G_3.jpg' height='90'> <img id='selected' src='G_7.jpg' height='90'> <img src='G_9.jpg' height='90'>","null","Animation0",""
"","","","","","html-keyboard-response","45","1302626","0.0-19.0","69","1","2025-01-31 01:35:18","af8d355d56820e421d246a7037deb6e6","207.230.114.129","Mozilla/5.0 (Windows NT 10.0; Win64; x64) AppleWebKit/537.36 (KHTML, like Gecko) Chrome/132.0.0.0 Safari/537.36","WebKit","Chrome","132.0.0.0","Windows","10.0","https://app.prolific.com/","en-US,en;q=0.9","671440da17d283b1ef1035be","67949641171f97c04e14fb34","679c24880956711d72158c25","","null","<img  src='G_5.jpg' height='90'> <img   src='G_1.jpg' height='90'> <img   src='G_3.jpg' height='90'> <img  src='G_7.jpg' height='90'> <img src='G_9.jpg' height='90'>","null","Animation0",""
"","","","","","html-keyboard-response","46","1303623","0.0-20.0","69","1","2025-01-31 01:35:18","af8d355d56820e421d246a7037deb6e6","207.230.114.129","Mozilla/5.0 (Windows NT 10.0; Win64; x64) AppleWebKit/537.36 (KHTML, like Gecko) Chrome/132.0.0.0 Safari/537.36","WebKit","Chrome","132.0.0.0","Windows","10.0","https://app.prolific.com/","en-US,en;q=0.9","671440da17d283b1ef1035be","67949641171f97c04e14fb34","679c24880956711d72158c25","","null","<img  src='G_5.jpg' height='90'> <img   src='G_1.jpg' height='90'> <img   src='G_3.jpg' height='90'> <img id='selected'  src='G_7.jpg' height='90'> <img src='G_9.jpg' height='90'>","null","Animation0",""
"","","","","","html-keyboard-response","47","1304625","0.0-21.0","69","1","2025-01-31 01:35:18","af8d355d56820e421d246a7037deb6e6","207.230.114.129","Mozilla/5.0 (Windows NT 10.0; Win64; x64) AppleWebKit/537.36 (KHTML, like Gecko) Chrome/132.0.0.0 Safari/537.36","WebKit","Chrome","132.0.0.0","Windows","10.0","https://app.prolific.com/","en-US,en;q=0.9","671440da17d283b1ef1035be","67949641171f97c04e14fb34","679c24880956711d72158c25","","null","<img  src='G_5.jpg' height='90'> <img   src='G_1.jpg' height='90'> <img   src='G_3.jpg' height='90'> <img id='selected'  src='G_7.jpg' height='90'> <img id='selected' src='G_9.jpg' height='90'>","null","Animation0",""
"","","","","","html-keyboard-response","48","1305633","0.0-22.0","69","1","2025-01-31 01:35:18","af8d355d56820e421d246a7037deb6e6","207.230.114.129","Mozilla/5.0 (Windows NT 10.0; Win64; x64) AppleWebKit/537.36 (KHTML, like Gecko) Chrome/132.0.0.0 Safari/537.36","WebKit","Chrome","132.0.0.0","Windows","10.0","https://app.prolific.com/","en-US,en;q=0.9","671440da17d283b1ef1035be","67949641171f97c04e14fb34","679c24880956711d72158c25","","null","<img  src='G_5.jpg' height='90'> <img   src='G_1.jpg' height='90'> <img   src='G_3.jpg' height='90'> <img id='selected'  src='G_7.jpg' height='90'> <img id='selected' src='G_9.jpg' height='90'>","null","Animation0",""
"","","","","","html-keyboard-response","49","1306479","0.0-23.0","69","1","2025-01-31 01:35:18","af8d355d56820e421d246a7037deb6e6","207.230.114.129","Mozilla/5.0 (Windows NT 10.0; Win64; x64) AppleWebKit/537.36 (KHTML, like Gecko) Chrome/132.0.0.0 Safari/537.36","WebKit","Chrome","132.0.0.0","Windows","10.0","https://app.prolific.com/","en-US,en;q=0.9","671440da17d283b1ef1035be","67949641171f97c04e14fb34","679c24880956711d72158c25","","null","<img  src='G_5.jpg' height='90'> <img   src='G_1.jpg' height='90'> <img   src='G_3.jpg' height='90'> <img   src='G_7.jpg' height='90'> <img  src='G_9.jpg' height='90'>","null","Animation0",""
"","","","","","html-keyboard-response","50","1308020","0.0-24.0","69","1","2025-01-31 01:35:18","af8d355d56820e421d246a7037deb6e6","207.230.114.129","Mozilla/5.0 (Windows NT 10.0; Win64; x64) AppleWebKit/537.36 (KHTML, like Gecko) Chrome/132.0.0.0 Safari/537.36","WebKit","Chrome","132.0.0.0","Windows","10.0","https://app.prolific.com/","en-US,en;q=0.9","671440da17d283b1ef1035be","67949641171f97c04e14fb34","679c24880956711d72158c25","","1538","[""Did you notice any patterns? <br><br>Press Enter to watch that example again and follow the steps of Omgne Sort.""]","enter","",""
"","","","","","html-button-response","51","1308435","0.0-25.0","69","1","2025-01-31 01:35:18","af8d355d56820e421d246a7037deb6e6","207.230.114.129","Mozilla/5.0 (Windows NT 10.0; Win64; x64) AppleWebKit/537.36 (KHTML, like Gecko) Chrome/132.0.0.0 Safari/537.36","WebKit","Chrome","132.0.0.0","Windows","10.0","https://app.prolific.com/","en-US,en;q=0.9","671440da17d283b1ef1035be","67949641171f97c04e14fb34","679c24880956711d72158c25","","null","<img id='selected' src='G_1.jpg' height='90'> <img src='G_5.jpg' height='90'> <img src='G_3.jpg' height='90'> <img src='G_7.jpg' height='90'> <img src='G_9.jpg' height='90'>","null","Learning example 0",""
"","","","","","html-button-response","52","1308750","0.0-26.0","69","1","2025-01-31 01:35:18","af8d355d56820e421d246a7037deb6e6","207.230.114.129","Mozilla/5.0 (Windows NT 10.0; Win64; x64) AppleWebKit/537.36 (KHTML, like Gecko) Chrome/132.0.0.0 Safari/537.36","WebKit","Chrome","132.0.0.0","Windows","10.0","https://app.prolific.com/","en-US,en;q=0.9","671440da17d283b1ef1035be","67949641171f97c04e14fb34","679c24880956711d72158c25","","null","<img id='selected' src='G_1.jpg' height='90'> <img id='selected' src='G_5.jpg' height='90'> <img src='G_3.jpg' height='90'> <img src='G_7.jpg' height='90'> <img src='G_9.jpg' height='90'>","null","Learning example 0",""
"","","","","","html-button-response","53","1309071","0.0-27.0","69","1","2025-01-31 01:35:18","af8d355d56820e421d246a7037deb6e6","207.230.114.129","Mozilla/5.0 (Windows NT 10.0; Win64; x64) AppleWebKit/537.36 (KHTML, like Gecko) Chrome/132.0.0.0 Safari/537.36","WebKit","Chrome","132.0.0.0","Windows","10.0","https://app.prolific.com/","en-US,en;q=0.9","671440da17d283b1ef1035be","67949641171f97c04e14fb34","679c24880956711d72158c25","","null","<img id='swapped' src='G_5.jpg' height='90'> <img id='swapped' src='G_1.jpg' height='90'> <img src='G_3.jpg' height='90'> <img src='G_7.jpg' height='90'> <img src='G_9.jpg' height='90'>","null","Learning example 0",""
"","","","","","html-button-response","54","1768182","0.0-28.0-0.0-0.0","69","1","2025-01-31 01:35:18","af8d355d56820e421d246a7037deb6e6","207.230.114.129","Mozilla/5.0 (Windows NT 10.0; Win64; x64) AppleWebKit/537.36 (KHTML, like Gecko) Chrome/132.0.0.0 Safari/537.36","WebKit","Chrome","132.0.0.0","Windows","10.0","https://app.prolific.com/","en-US,en;q=0.9","671440da17d283b1ef1035be","67949641171f97c04e14fb34","679c24880956711d72158c25","","459106","<img id='swapped' src='G_5.jpg' height='90'> <img id='swapped' src='G_1.jpg' height='90'> <img src='G_3.jpg' height='90'> <img src='G_7.jpg' height='90'> <img src='G_9.jpg' height='90'>","1","Learning example 0",""
"","","","","","html-button-response","55","1768428","0.0-28.1-0.1-0.1","69","1","2025-01-31 01:35:18","af8d355d56820e421d246a7037deb6e6","207.230.114.129","Mozilla/5.0 (Windows NT 10.0; Win64; x64) AppleWebKit/537.36 (KHTML, like Gecko) Chrome/132.0.0.0 Safari/537.36","WebKit","Chrome","132.0.0.0","Windows","10.0","https://app.prolific.com/","en-US,en;q=0.9","671440da17d283b1ef1035be","67949641171f97c04e14fb34","679c24880956711d72158c25","","236","<img id='swapped' src='G_5.jpg' height='90'> <img id='swapped' src='G_1.jpg' height='90'> <img src='G_3.jpg' height='90'> <img src='G_7.jpg' height='90'> <img src='G_9.jpg' height='90'>","0","Learning example 0",""
"","","","","","html-button-response","56","1768649","0.0-29.0","69","1","2025-01-31 01:35:18","af8d355d56820e421d246a7037deb6e6","207.230.114.129","Mozilla/5.0 (Windows NT 10.0; Win64; x64) AppleWebKit/537.36 (KHTML, like Gecko) Chrome/132.0.0.0 Safari/537.36","WebKit","Chrome","132.0.0.0","Windows","10.0","https://app.prolific.com/","en-US,en;q=0.9","671440da17d283b1ef1035be","67949641171f97c04e14fb34","679c24880956711d72158c25","","null","<img  src='G_5.jpg' height='90'> <img  src='G_1.jpg' height='90'> <img src='G_3.jpg' height='90'> <img src='G_7.jpg' height='90'> <img src='G_9.jpg' height='90'>","null","Learning example 0",""
"","","","","","html-button-response","57","1768929","0.0-30.0","69","1","2025-01-31 01:35:18","af8d355d56820e421d246a7037deb6e6","207.230.114.129","Mozilla/5.0 (Windows NT 10.0; Win64; x64) AppleWebKit/537.36 (KHTML, like Gecko) Chrome/132.0.0.0 Safari/537.36","WebKit","Chrome","132.0.0.0","Windows","10.0","https://app.prolific.com/","en-US,en;q=0.9","671440da17d283b1ef1035be","67949641171f97c04e14fb34","679c24880956711d72158c25","","275","<img  src='G_5.jpg' height='90'> <img id='selected'  src='G_1.jpg' height='90'> <img src='G_3.jpg' height='90'> <img src='G_7.jpg' height='90'> <img src='G_9.jpg' height='90'>","2","Learning example 0",""
"","","","","","html-button-response","58","1769217","0.0-31.0","69","1","2025-01-31 01:35:18","af8d355d56820e421d246a7037deb6e6","207.230.114.129","Mozilla/5.0 (Windows NT 10.0; Win64; x64) AppleWebKit/537.36 (KHTML, like Gecko) Chrome/132.0.0.0 Safari/537.36","WebKit","Chrome","132.0.0.0","Windows","10.0","https://app.prolific.com/","en-US,en;q=0.9","671440da17d283b1ef1035be","67949641171f97c04e14fb34","679c24880956711d72158c25","","281","<img  src='G_5.jpg' height='90'> <img id='selected'  src='G_1.jpg' height='90'> <img id='selected' src='G_3.jpg' height='90'> <img src='G_7.jpg' height='90'> <img src='G_9.jpg' height='90'>","3","Learning example 0",""
"","","","","","html-button-response","59","1769525","0.0-32.0","69","1","2025-01-31 01:35:18","af8d355d56820e421d246a7037deb6e6","207.230.114.129","Mozilla/5.0 (Windows NT 10.0; Win64; x64) AppleWebKit/537.36 (KHTML, like Gecko) Chrome/132.0.0.0 Safari/537.36","WebKit","Chrome","132.0.0.0","Windows","10.0","https://app.prolific.com/","en-US,en;q=0.9","671440da17d283b1ef1035be","67949641171f97c04e14fb34","679c24880956711d72158c25","","null","<img  src='G_5.jpg' height='90'> <img id='selected'  src='G_1.jpg' height='90'> <img id='selected' src='G_3.jpg' height='90'> <img src='G_7.jpg' height='90'> <img src='G_9.jpg' height='90'>","null","Learning example 0",""
"","","","","","html-button-response","60","1769787","0.0-33.0-0.0-0.0","69","1","2025-01-31 01:35:18","af8d355d56820e421d246a7037deb6e6","207.230.114.129","Mozilla/5.0 (Windows NT 10.0; Win64; x64) AppleWebKit/537.36 (KHTML, like Gecko) Chrome/132.0.0.0 Safari/537.36","WebKit","Chrome","132.0.0.0","Windows","10.0","https://app.prolific.com/","en-US,en;q=0.9","671440da17d283b1ef1035be","67949641171f97c04e14fb34","679c24880956711d72158c25","","256","<img  src='G_5.jpg' height='90'> <img id='selected'  src='G_1.jpg' height='90'> <img id='selected' src='G_3.jpg' height='90'> <img src='G_7.jpg' height='90'> <img src='G_9.jpg' height='90'>","2","Learning example 0",""
"","","","","","html-button-response","61","1770033","0.0-33.1-0.1-0.1","69","1","2025-01-31 01:35:18","af8d355d56820e421d246a7037deb6e6","207.230.114.129","Mozilla/5.0 (Windows NT 10.0; Win64; x64) AppleWebKit/537.36 (KHTML, like Gecko) Chrome/132.0.0.0 Safari/537.36","WebKit","Chrome","132.0.0.0","Windows","10.0","https://app.prolific.com/","en-US,en;q=0.9","671440da17d283b1ef1035be","67949641171f97c04e14fb34","679c24880956711d72158c25","","239","<img  src='G_5.jpg' height='90'> <img id='selected'  src='G_1.jpg' height='90'> <img id='selected' src='G_3.jpg' height='90'> <img src='G_7.jpg' height='90'> <img src='G_9.jpg' height='90'>","1","Learning example 0",""
"","","","","","html-button-response","62","1770243","0.0-34.0","69","1","2025-01-31 01:35:18","af8d355d56820e421d246a7037deb6e6","207.230.114.129","Mozilla/5.0 (Windows NT 10.0; Win64; x64) AppleWebKit/537.36 (KHTML, like Gecko) Chrome/132.0.0.0 Safari/537.36","WebKit","Chrome","132.0.0.0","Windows","10.0","https://app.prolific.com/","en-US,en;q=0.9","671440da17d283b1ef1035be","67949641171f97c04e14fb34","679c24880956711d72158c25","","null","<img  src='G_5.jpg' height='90'> <img   src='G_1.jpg' height='90'> <img  src='G_3.jpg' height='90'> <img src='G_7.jpg' height='90'> <img src='G_9.jpg' height='90'>","null","Learning example 0",""
"","","","","","html-button-response","63","1770604","0.0-35.0","69","1","2025-01-31 01:35:18","af8d355d56820e421d246a7037deb6e6","207.230.114.129","Mozilla/5.0 (Windows NT 10.0; Win64; x64) AppleWebKit/537.36 (KHTML, like Gecko) Chrome/132.0.0.0 Safari/537.36","WebKit","Chrome","132.0.0.0","Windows","10.0","https://app.prolific.com/","en-US,en;q=0.9","671440da17d283b1ef1035be","67949641171f97c04e14fb34","679c24880956711d72158c25","","355","<img  src='G_5.jpg' height='90'> <img   src='G_1.jpg' height='90'> <img id='selected'  src='G_3.jpg' height='90'> <img src='G_7.jpg' height='90'> <img src='G_9.jpg' height='90'>","3","Learning example 0",""
"","","","","","html-button-response","64","1770884","0.0-36.0","69","1","2025-01-31 01:35:18","af8d355d56820e421d246a7037deb6e6","207.230.114.129","Mozilla/5.0 (Windows NT 10.0; Win64; x64) AppleWebKit/537.36 (KHTML, like Gecko) Chrome/132.0.0.0 Safari/537.36","WebKit","Chrome","132.0.0.0","Windows","10.0","https://app.prolific.com/","en-US,en;q=0.9","671440da17d283b1ef1035be","67949641171f97c04e14fb34","679c24880956711d72158c25","","273","<img  src='G_5.jpg' height='90'> <img   src='G_1.jpg' height='90'> <img id='selected'  src='G_3.jpg' height='90'> <img id='selected' src='G_7.jpg' height='90'> <img src='G_9.jpg' height='90'>","4","Learning example 0",""
"","","","","","html-button-response","65","1771193","0.0-37.0","69","1","2025-01-31 01:35:18","af8d355d56820e421d246a7037deb6e6","207.230.114.129","Mozilla/5.0 (Windows NT 10.0; Win64; x64) AppleWebKit/537.36 (KHTML, like Gecko) Chrome/132.0.0.0 Safari/537.36","WebKit","Chrome","132.0.0.0","Windows","10.0","https://app.prolific.com/","en-US,en;q=0.9","671440da17d283b1ef1035be","67949641171f97c04e14fb34","679c24880956711d72158c25","","null","<img  src='G_5.jpg' height='90'> <img   src='G_1.jpg' height='90'> <img id='selected'  src='G_3.jpg' height='90'> <img id='selected' src='G_7.jpg' height='90'> <img src='G_9.jpg' height='90'>","null","Learning example 0",""
"","","","","","html-button-response","66","1771897","0.0-38.0-0.0-0.0","69","1","2025-01-31 01:35:18","af8d355d56820e421d246a7037deb6e6","207.230.114.129","Mozilla/5.0 (Windows NT 10.0; Win64; x64) AppleWebKit/537.36 (KHTML, like Gecko) Chrome/132.0.0.0 Safari/537.36","WebKit","Chrome","132.0.0.0","Windows","10.0","https://app.prolific.com/","en-US,en;q=0.9","671440da17d283b1ef1035be","67949641171f97c04e14fb34","679c24880956711d72158c25","","697","<img  src='G_5.jpg' height='90'> <img   src='G_1.jpg' height='90'> <img id='selected'  src='G_3.jpg' height='90'> <img id='selected' src='G_7.jpg' height='90'> <img src='G_9.jpg' height='90'>","4","Learning example 0",""
"","","","","","html-button-response","67","1772368","0.0-38.1-0.1-0.1","69","1","2025-01-31 01:35:18","af8d355d56820e421d246a7037deb6e6","207.230.114.129","Mozilla/5.0 (Windows NT 10.0; Win64; x64) AppleWebKit/537.36 (KHTML, like Gecko) Chrome/132.0.0.0 Safari/537.36","WebKit","Chrome","132.0.0.0","Windows","10.0","https://app.prolific.com/","en-US,en;q=0.9","671440da17d283b1ef1035be","67949641171f97c04e14fb34","679c24880956711d72158c25","","463","<img  src='G_5.jpg' height='90'> <img   src='G_1.jpg' height='90'> <img id='selected'  src='G_3.jpg' height='90'> <img id='selected' src='G_7.jpg' height='90'> <img src='G_9.jpg' height='90'>","3","Learning example 0",""
"","","","","","html-button-response","68","1772620","0.0-38.2-0.2-0.2","69","1","2025-01-31 01:35:18","af8d355d56820e421d246a7037deb6e6","207.230.114.129","Mozilla/5.0 (Windows NT 10.0; Win64; x64) AppleWebKit/537.36 (KHTML, like Gecko) Chrome/132.0.0.0 Safari/537.36","WebKit","Chrome","132.0.0.0","Windows","10.0","https://app.prolific.com/","en-US,en;q=0.9","671440da17d283b1ef1035be","67949641171f97c04e14fb34","679c24880956711d72158c25","","245","<img  src='G_5.jpg' height='90'> <img   src='G_1.jpg' height='90'> <img id='selected'  src='G_3.jpg' height='90'> <img id='selected' src='G_7.jpg' height='90'> <img src='G_9.jpg' height='90'>","2","Learning example 0",""
"","","","","","html-button-response","69","1772841","0.0-39.0","69","1","2025-01-31 01:35:18","af8d355d56820e421d246a7037deb6e6","207.230.114.129","Mozilla/5.0 (Windows NT 10.0; Win64; x64) AppleWebKit/537.36 (KHTML, like Gecko) Chrome/132.0.0.0 Safari/537.36","WebKit","Chrome","132.0.0.0","Windows","10.0","https://app.prolific.com/","en-US,en;q=0.9","671440da17d283b1ef1035be","67949641171f97c04e14fb34","679c24880956711d72158c25","","null","<img  src='G_5.jpg' height='90'> <img   src='G_1.jpg' height='90'> <img   src='G_3.jpg' height='90'> <img  src='G_7.jpg' height='90'> <img src='G_9.jpg' height='90'>","null","Learning example 0",""
"","","","","","html-button-response","70","1773263","0.0-40.0","69","1","2025-01-31 01:35:18","af8d355d56820e421d246a7037deb6e6","207.230.114.129","Mozilla/5.0 (Windows NT 10.0; Win64; x64) AppleWebKit/537.36 (KHTML, like Gecko) Chrome/132.0.0.0 Safari/537.36","WebKit","Chrome","132.0.0.0","Windows","10.0","https://app.prolific.com/","en-US,en;q=0.9","671440da17d283b1ef1035be","67949641171f97c04e14fb34","679c24880956711d72158c25","","null","<img  src='G_5.jpg' height='90'> <img   src='G_1.jpg' height='90'> <img   src='G_3.jpg' height='90'> <img id='selected'  src='G_7.jpg' height='90'> <img src='G_9.jpg' height='90'>","null","Learning example 0",""
"","","","","","html-button-response","71","1773328","0.0-41.0","69","1","2025-01-31 01:35:18","af8d355d56820e421d246a7037deb6e6","207.230.114.129","Mozilla/5.0 (Windows NT 10.0; Win64; x64) AppleWebKit/537.36 (KHTML, like Gecko) Chrome/132.0.0.0 Safari/537.36","WebKit","Chrome","132.0.0.0","Windows","10.0","https://app.prolific.com/","en-US,en;q=0.9","671440da17d283b1ef1035be","67949641171f97c04e14fb34","679c24880956711d72158c25","","58","<img  src='G_5.jpg' height='90'> <img   src='G_1.jpg' height='90'> <img   src='G_3.jpg' height='90'> <img id='selected'  src='G_7.jpg' height='90'> <img id='selected' src='G_9.jpg' height='90'>","1","Learning example 0",""
"","","","","","html-button-response","72","1773636","0.0-42.0","69","1","2025-01-31 01:35:18","af8d355d56820e421d246a7037deb6e6","207.230.114.129","Mozilla/5.0 (Windows NT 10.0; Win64; x64) AppleWebKit/537.36 (KHTML, like Gecko) Chrome/132.0.0.0 Safari/537.36","WebKit","Chrome","132.0.0.0","Windows","10.0","https://app.prolific.com/","en-US,en;q=0.9","671440da17d283b1ef1035be","67949641171f97c04e14fb34","679c24880956711d72158c25","","null","<img  src='G_5.jpg' height='90'> <img   src='G_1.jpg' height='90'> <img   src='G_3.jpg' height='90'> <img id='selected'  src='G_7.jpg' height='90'> <img id='selected' src='G_9.jpg' height='90'>","null","Learning example 0",""
"","","","","","html-button-response","73","1773650","0.0-43.0-0.0-0.0","69","1","2025-01-31 01:35:18","af8d355d56820e421d246a7037deb6e6","207.230.114.129","Mozilla/5.0 (Windows NT 10.0; Win64; x64) AppleWebKit/537.36 (KHTML, like Gecko) Chrome/132.0.0.0 Safari/537.36","WebKit","Chrome","132.0.0.0","Windows","10.0","https://app.prolific.com/","en-US,en;q=0.9","671440da17d283b1ef1035be","67949641171f97c04e14fb34","679c24880956711d72158c25","","5","<img  src='G_5.jpg' height='90'> <img   src='G_1.jpg' height='90'> <img   src='G_3.jpg' height='90'> <img id='selected'  src='G_7.jpg' height='90'> <img id='selected' src='G_9.jpg' height='90'>","0","Learning example 0",""
"","","","","","html-button-response","74","1774453","0.0-43.1-0.1-0.1","69","1","2025-01-31 01:35:18","af8d355d56820e421d246a7037deb6e6","207.230.114.129","Mozilla/5.0 (Windows NT 10.0; Win64; x64) AppleWebKit/537.36 (KHTML, like Gecko) Chrome/132.0.0.0 Safari/537.36","WebKit","Chrome","132.0.0.0","Windows","10.0","https://app.prolific.com/","en-US,en;q=0.9","671440da17d283b1ef1035be","67949641171f97c04e14fb34","679c24880956711d72158c25","","798","<img  src='G_5.jpg' height='90'> <img   src='G_1.jpg' height='90'> <img   src='G_3.jpg' height='90'> <img id='selected'  src='G_7.jpg' height='90'> <img id='selected' src='G_9.jpg' height='90'>","3","Learning example 0",""
"","","","","","html-button-response","75","1774668","0.0-43.2-0.2-0.2","69","1","2025-01-31 01:35:18","af8d355d56820e421d246a7037deb6e6","207.230.114.129","Mozilla/5.0 (Windows NT 10.0; Win64; x64) AppleWebKit/537.36 (KHTML, like Gecko) Chrome/132.0.0.0 Safari/537.36","WebKit","Chrome","132.0.0.0","Windows","10.0","https://app.prolific.com/","en-US,en;q=0.9","671440da17d283b1ef1035be","67949641171f97c04e14fb34","679c24880956711d72158c25","","207","<img  src='G_5.jpg' height='90'> <img   src='G_1.jpg' height='90'> <img   src='G_3.jpg' height='90'> <img id='selected'  src='G_7.jpg' height='90'> <img id='selected' src='G_9.jpg' height='90'>","2","Learning example 0",""
"","","","","","html-button-response","76","1786233","0.0-43.3-0.3-0.3","69","1","2025-01-31 01:35:18","af8d355d56820e421d246a7037deb6e6","207.230.114.129","Mozilla/5.0 (Windows NT 10.0; Win64; x64) AppleWebKit/537.36 (KHTML, like Gecko) Chrome/132.0.0.0 Safari/537.36","WebKit","Chrome","132.0.0.0","Windows","10.0","https://app.prolific.com/","en-US,en;q=0.9","671440da17d283b1ef1035be","67949641171f97c04e14fb34","679c24880956711d72158c25","","11560","<img  src='G_5.jpg' height='90'> <img   src='G_1.jpg' height='90'> <img   src='G_3.jpg' height='90'> <img id='selected'  src='G_7.jpg' height='90'> <img id='selected' src='G_9.jpg' height='90'>","2","Learning example 0",""
"","","","","","html-button-response","77","1786720","0.0-43.4-0.4-0.4","69","1","2025-01-31 01:35:18","af8d355d56820e421d246a7037deb6e6","207.230.114.129","Mozilla/5.0 (Windows NT 10.0; Win64; x64) AppleWebKit/537.36 (KHTML, like Gecko) Chrome/132.0.0.0 Safari/537.36","WebKit","Chrome","132.0.0.0","Windows","10.0","https://app.prolific.com/","en-US,en;q=0.9","671440da17d283b1ef1035be","67949641171f97c04e14fb34","679c24880956711d72158c25","","481","<img  src='G_5.jpg' height='90'> <img   src='G_1.jpg' height='90'> <img   src='G_3.jpg' height='90'> <img id='selected'  src='G_7.jpg' height='90'> <img id='selected' src='G_9.jpg' height='90'>","3","Learning example 0",""
"","","","","","html-button-response","78","1787004","0.0-43.5-0.5-0.5","69","1","2025-01-31 01:35:18","af8d355d56820e421d246a7037deb6e6","207.230.114.129","Mozilla/5.0 (Windows NT 10.0; Win64; x64) AppleWebKit/537.36 (KHTML, like Gecko) Chrome/132.0.0.0 Safari/537.36","WebKit","Chrome","132.0.0.0","Windows","10.0","https://app.prolific.com/","en-US,en;q=0.9","671440da17d283b1ef1035be","67949641171f97c04e14fb34","679c24880956711d72158c25","","280","<img  src='G_5.jpg' height='90'> <img   src='G_1.jpg' height='90'> <img   src='G_3.jpg' height='90'> <img id='selected'  src='G_7.jpg' height='90'> <img id='selected' src='G_9.jpg' height='90'>","4","Learning example 0",""
"","","","","","html-button-response","79","1787213","0.0-44.0","69","1","2025-01-31 01:35:18","af8d355d56820e421d246a7037deb6e6","207.230.114.129","Mozilla/5.0 (Windows NT 10.0; Win64; x64) AppleWebKit/537.36 (KHTML, like Gecko) Chrome/132.0.0.0 Safari/537.36","WebKit","Chrome","132.0.0.0","Windows","10.0","https://app.prolific.com/","en-US,en;q=0.9","671440da17d283b1ef1035be","67949641171f97c04e14fb34","679c24880956711d72158c25","","null","<img  src='G_5.jpg' height='90'> <img   src='G_1.jpg' height='90'> <img   src='G_3.jpg' height='90'> <img   src='G_7.jpg' height='90'> <img  src='G_9.jpg' height='90'>","null","Learning example 0",""
"","","","","","html-keyboard-response","80","1788534","0.0-45.0","69","1","2025-01-31 01:35:18","af8d355d56820e421d246a7037deb6e6","207.230.114.129","Mozilla/5.0 (Windows NT 10.0; Win64; x64) AppleWebKit/537.36 (KHTML, like Gecko) Chrome/132.0.0.0 Safari/537.36","WebKit","Chrome","132.0.0.0","Windows","10.0","https://app.prolific.com/","en-US,en;q=0.9","671440da17d283b1ef1035be","67949641171f97c04e14fb34","679c24880956711d72158c25","","1314","[""Final order was 1,2,3,4,5. The initial order was 2,1,3,4,5.<br>It took 1 swaps to sort it correctly with Omgne Sort. <br><br>Press Enter to continue.""]","enter","",""
"","","","","","html-keyboard-response","81","1789192","0.0-46.0","69","1","2025-01-31 01:35:18","af8d355d56820e421d246a7037deb6e6","207.230.114.129","Mozilla/5.0 (Windows NT 10.0; Win64; x64) AppleWebKit/537.36 (KHTML, like Gecko) Chrome/132.0.0.0 Safari/537.36","WebKit","Chrome","132.0.0.0","Windows","10.0","https://app.prolific.com/","en-US,en;q=0.9","671440da17d283b1ef1035be","67949641171f97c04e14fb34","679c24880956711d72158c25","","652","[""Example 2<br><br>You will watch Omnge Sort in action. Try to identify any patterns in the comparisons made by this method. <br><br>Press Enter to continue.""]","enter","",""
"","","","","","html-keyboard-response","82","1789713","0.0-47.0","69","1","2025-01-31 01:35:18","af8d355d56820e421d246a7037deb6e6","207.230.114.129","Mozilla/5.0 (Windows NT 10.0; Win64; x64) AppleWebKit/537.36 (KHTML, like Gecko) Chrome/132.0.0.0 Safari/537.36","WebKit","Chrome","132.0.0.0","Windows","10.0","https://app.prolific.com/","en-US,en;q=0.9","671440da17d283b1ef1035be","67949641171f97c04e14fb34","679c24880956711d72158c25","","null","<img id='selected' src='G_4.jpg' height='90'> <img src='G_8.jpg' height='90'> <img src='G_3.jpg' height='90'> <img src='G_7.jpg' height='90'> <img src='G_2.jpg' height='90'> <img src='G_5.jpg' height='90'> <img src='G_1.jpg' height='90'> <img src='G_6.jpg' height='90'>","null","Animation1",""
"","","","","","html-keyboard-response","83","1790230","0.0-48.0","69","1","2025-01-31 01:35:18","af8d355d56820e421d246a7037deb6e6","207.230.114.129","Mozilla/5.0 (Windows NT 10.0; Win64; x64) AppleWebKit/537.36 (KHTML, like Gecko) Chrome/132.0.0.0 Safari/537.36","WebKit","Chrome","132.0.0.0","Windows","10.0","https://app.prolific.com/","en-US,en;q=0.9","671440da17d283b1ef1035be","67949641171f97c04e14fb34","679c24880956711d72158c25","","null","<img id='selected' src='G_4.jpg' height='90'> <img id='selected' src='G_8.jpg' height='90'> <img src='G_3.jpg' height='90'> <img src='G_7.jpg' height='90'> <img src='G_2.jpg' height='90'> <img src='G_5.jpg' height='90'> <img src='G_1.jpg' height='90'> <img src='G_6.jpg' height='90'>","null","Animation1",""
"","","","","","html-keyboard-response","84","1790745","0.0-49.0","69","1","2025-01-31 01:35:18","af8d355d56820e421d246a7037deb6e6","207.230.114.129","Mozilla/5.0 (Windows NT 10.0; Win64; x64) AppleWebKit/537.36 (KHTML, like Gecko) Chrome/132.0.0.0 Safari/537.36","WebKit","Chrome","132.0.0.0","Windows","10.0","https://app.prolific.com/","en-US,en;q=0.9","671440da17d283b1ef1035be","67949641171f97c04e14fb34","679c24880956711d72158c25","","null","<img id='selected' src='G_4.jpg' height='90'> <img id='selected' src='G_8.jpg' height='90'> <img src='G_3.jpg' height='90'> <img src='G_7.jpg' height='90'> <img src='G_2.jpg' height='90'> <img src='G_5.jpg' height='90'> <img src='G_1.jpg' height='90'> <img src='G_6.jpg' height='90'>","null","Animation1",""
"","","","","","html-keyboard-response","85","1791055","0.0-50.0","69","1","2025-01-31 01:35:18","af8d355d56820e421d246a7037deb6e6","207.230.114.129","Mozilla/5.0 (Windows NT 10.0; Win64; x64) AppleWebKit/537.36 (KHTML, like Gecko) Chrome/132.0.0.0 Safari/537.36","WebKit","Chrome","132.0.0.0","Windows","10.0","https://app.prolific.com/","en-US,en;q=0.9","671440da17d283b1ef1035be","67949641171f97c04e14fb34","679c24880956711d72158c25","","null","<img  src='G_4.jpg' height='90'> <img  src='G_8.jpg' height='90'> <img src='G_3.jpg' height='90'> <img src='G_7.jpg' height='90'> <img src='G_2.jpg' height='90'> <img src='G_5.jpg' height='90'> <img src='G_1.jpg' height='90'> <img src='G_6.jpg' height='90'>","null","Animation1",""
"","","","","","html-keyboard-response","86","1791573","0.0-51.0","69","1","2025-01-31 01:35:18","af8d355d56820e421d246a7037deb6e6","207.230.114.129","Mozilla/5.0 (Windows NT 10.0; Win64; x64) AppleWebKit/537.36 (KHTML, like Gecko) Chrome/132.0.0.0 Safari/537.36","WebKit","Chrome","132.0.0.0","Windows","10.0","https://app.prolific.com/","en-US,en;q=0.9","671440da17d283b1ef1035be","67949641171f97c04e14fb34","679c24880956711d72158c25","","null","<img  src='G_4.jpg' height='90'> <img id='selected'  src='G_8.jpg' height='90'> <img src='G_3.jpg' height='90'> <img src='G_7.jpg' height='90'> <img src='G_2.jpg' height='90'> <img src='G_5.jpg' height='90'> <img src='G_1.jpg' height='90'> <img src='G_6.jpg' height='90'>","null","Animation1",""
"","","","","","html-keyboard-response","87","1792082","0.0-52.0","69","1","2025-01-31 01:35:18","af8d355d56820e421d246a7037deb6e6","207.230.114.129","Mozilla/5.0 (Windows NT 10.0; Win64; x64) AppleWebKit/537.36 (KHTML, like Gecko) Chrome/132.0.0.0 Safari/537.36","WebKit","Chrome","132.0.0.0","Windows","10.0","https://app.prolific.com/","en-US,en;q=0.9","671440da17d283b1ef1035be","67949641171f97c04e14fb34","679c24880956711d72158c25","","null","<img  src='G_4.jpg' height='90'> <img id='selected'  src='G_8.jpg' height='90'> <img id='selected' src='G_3.jpg' height='90'> <img src='G_7.jpg' height='90'> <img src='G_2.jpg' height='90'> <img src='G_5.jpg' height='90'> <img src='G_1.jpg' height='90'> <img src='G_6.jpg' height='90'>","null","Animation1",""
"","","","","","html-keyboard-response","88","1792590","0.0-53.0","69","1","2025-01-31 01:35:18","af8d355d56820e421d246a7037deb6e6","207.230.114.129","Mozilla/5.0 (Windows NT 10.0; Win64; x64) AppleWebKit/537.36 (KHTML, like Gecko) Chrome/132.0.0.0 Safari/537.36","WebKit","Chrome","132.0.0.0","Windows","10.0","https://app.prolific.com/","en-US,en;q=0.9","671440da17d283b1ef1035be","67949641171f97c04e14fb34","679c24880956711d72158c25","","null","<img  src='G_4.jpg' height='90'> <img id='swapped' src='G_3.jpg' height='90'> <img id='swapped'  src='G_8.jpg' height='90'> <img src='G_7.jpg' height='90'> <img src='G_2.jpg' height='90'> <img src='G_5.jpg' height='90'> <img src='G_1.jpg' height='90'> <img src='G_6.jpg' height='90'>","null","Animation1",""
"","","","","","html-keyboard-response","89","1792901","0.0-54.0","69","1","2025-01-31 01:35:18","af8d355d56820e421d246a7037deb6e6","207.230.114.129","Mozilla/5.0 (Windows NT 10.0; Win64; x64) AppleWebKit/537.36 (KHTML, like Gecko) Chrome/132.0.0.0 Safari/537.36","WebKit","Chrome","132.0.0.0","Windows","10.0","https://app.prolific.com/","en-US,en;q=0.9","671440da17d283b1ef1035be","67949641171f97c04e14fb34","679c24880956711d72158c25","","null","<img  src='G_4.jpg' height='90'> <img  src='G_3.jpg' height='90'> <img   src='G_8.jpg' height='90'> <img src='G_7.jpg' height='90'> <img src='G_2.jpg' height='90'> <img src='G_5.jpg' height='90'> <img src='G_1.jpg' height='90'> <img src='G_6.jpg' height='90'>","null","Animation1",""
"","","","","","html-keyboard-response","90","1793412","0.0-55.0","69","1","2025-01-31 01:35:18","af8d355d56820e421d246a7037deb6e6","207.230.114.129","Mozilla/5.0 (Windows NT 10.0; Win64; x64) AppleWebKit/537.36 (KHTML, like Gecko) Chrome/132.0.0.0 Safari/537.36","WebKit","Chrome","132.0.0.0","Windows","10.0","https://app.prolific.com/","en-US,en;q=0.9","671440da17d283b1ef1035be","67949641171f97c04e14fb34","679c24880956711d72158c25","","null","<img id='selected'  src='G_4.jpg' height='90'> <img  src='G_3.jpg' height='90'> <img   src='G_8.jpg' height='90'> <img src='G_7.jpg' height='90'> <img src='G_2.jpg' height='90'> <img src='G_5.jpg' height='90'> <img src='G_1.jpg' height='90'> <img src='G_6.jpg' height='90'>","null","Animation1",""
"","","","","","html-keyboard-response","91","1793934","0.0-56.0","69","1","2025-01-31 01:35:18","af8d355d56820e421d246a7037deb6e6","207.230.114.129","Mozilla/5.0 (Windows NT 10.0; Win64; x64) AppleWebKit/537.36 (KHTML, like Gecko) Chrome/132.0.0.0 Safari/537.36","WebKit","Chrome","132.0.0.0","Windows","10.0","https://app.prolific.com/","en-US,en;q=0.9","671440da17d283b1ef1035be","67949641171f97c04e14fb34","679c24880956711d72158c25","","null","<img id='selected'  src='G_4.jpg' height='90'> <img id='selected'  src='G_3.jpg' height='90'> <img   src='G_8.jpg' height='90'> <img src='G_7.jpg' height='90'> <img src='G_2.jpg' height='90'> <img src='G_5.jpg' height='90'> <img src='G_1.jpg' height='90'> <img src='G_6.jpg' height='90'>","null","Animation1",""
"","","","","","html-keyboard-response","92","1794454","0.0-57.0","69","1","2025-01-31 01:35:18","af8d355d56820e421d246a7037deb6e6","207.230.114.129","Mozilla/5.0 (Windows NT 10.0; Win64; x64) AppleWebKit/537.36 (KHTML, like Gecko) Chrome/132.0.0.0 Safari/537.36","WebKit","Chrome","132.0.0.0","Windows","10.0","https://app.prolific.com/","en-US,en;q=0.9","671440da17d283b1ef1035be","67949641171f97c04e14fb34","679c24880956711d72158c25","","null","<img id='swapped'  src='G_3.jpg' height='90'> <img id='swapped'  src='G_4.jpg' height='90'> <img   src='G_8.jpg' height='90'> <img src='G_7.jpg' height='90'> <img src='G_2.jpg' height='90'> <img src='G_5.jpg' height='90'> <img src='G_1.jpg' height='90'> <img src='G_6.jpg' height='90'>","null","Animation1",""
"","","","","","html-keyboard-response","93","1794760","0.0-58.0","69","1","2025-01-31 01:35:18","af8d355d56820e421d246a7037deb6e6","207.230.114.129","Mozilla/5.0 (Windows NT 10.0; Win64; x64) AppleWebKit/537.36 (KHTML, like Gecko) Chrome/132.0.0.0 Safari/537.36","WebKit","Chrome","132.0.0.0","Windows","10.0","https://app.prolific.com/","en-US,en;q=0.9","671440da17d283b1ef1035be","67949641171f97c04e14fb34","679c24880956711d72158c25","","null","<img   src='G_3.jpg' height='90'> <img   src='G_4.jpg' height='90'> <img   src='G_8.jpg' height='90'> <img src='G_7.jpg' height='90'> <img src='G_2.jpg' height='90'> <img src='G_5.jpg' height='90'> <img src='G_1.jpg' height='90'> <img src='G_6.jpg' height='90'>","null","Animation1",""
"","","","","","html-keyboard-response","94","1795268","0.0-59.0","69","1","2025-01-31 01:35:18","af8d355d56820e421d246a7037deb6e6","207.230.114.129","Mozilla/5.0 (Windows NT 10.0; Win64; x64) AppleWebKit/537.36 (KHTML, like Gecko) Chrome/132.0.0.0 Safari/537.36","WebKit","Chrome","132.0.0.0","Windows","10.0","https://app.prolific.com/","en-US,en;q=0.9","671440da17d283b1ef1035be","67949641171f97c04e14fb34","679c24880956711d72158c25","","null","<img   src='G_3.jpg' height='90'> <img   src='G_4.jpg' height='90'> <img id='selected'   src='G_8.jpg' height='90'> <img src='G_7.jpg' height='90'> <img src='G_2.jpg' height='90'> <img src='G_5.jpg' height='90'> <img src='G_1.jpg' height='90'> <img src='G_6.jpg' height='90'>","null","Animation1",""
"","","","","","html-keyboard-response","95","1795780","0.0-60.0","69","1","2025-01-31 01:35:18","af8d355d56820e421d246a7037deb6e6","207.230.114.129","Mozilla/5.0 (Windows NT 10.0; Win64; x64) AppleWebKit/537.36 (KHTML, like Gecko) Chrome/132.0.0.0 Safari/537.36","WebKit","Chrome","132.0.0.0","Windows","10.0","https://app.prolific.com/","en-US,en;q=0.9","671440da17d283b1ef1035be","67949641171f97c04e14fb34","679c24880956711d72158c25","","null","<img   src='G_3.jpg' height='90'> <img   src='G_4.jpg' height='90'> <img id='selected'   src='G_8.jpg' height='90'> <img id='selected' src='G_7.jpg' height='90'> <img src='G_2.jpg' height='90'> <img src='G_5.jpg' height='90'> <img src='G_1.jpg' height='90'> <img src='G_6.jpg' height='90'>","null","Animation1",""
"","","","","","html-keyboard-response","96","1796291","0.0-61.0","69","1","2025-01-31 01:35:18","af8d355d56820e421d246a7037deb6e6","207.230.114.129","Mozilla/5.0 (Windows NT 10.0; Win64; x64) AppleWebKit/537.36 (KHTML, like Gecko) Chrome/132.0.0.0 Safari/537.36","WebKit","Chrome","132.0.0.0","Windows","10.0","https://app.prolific.com/","en-US,en;q=0.9","671440da17d283b1ef1035be","67949641171f97c04e14fb34","679c24880956711d72158c25","","null","<img   src='G_3.jpg' height='90'> <img   src='G_4.jpg' height='90'> <img id='swapped' src='G_7.jpg' height='90'> <img id='swapped'   src='G_8.jpg' height='90'> <img src='G_2.jpg' height='90'> <img src='G_5.jpg' height='90'> <img src='G_1.jpg' height='90'> <img src='G_6.jpg' height='90'>","null","Animation1",""
"","","","","","html-keyboard-response","97","1796602","0.0-62.0","69","1","2025-01-31 01:35:18","af8d355d56820e421d246a7037deb6e6","207.230.114.129","Mozilla/5.0 (Windows NT 10.0; Win64; x64) AppleWebKit/537.36 (KHTML, like Gecko) Chrome/132.0.0.0 Safari/537.36","WebKit","Chrome","132.0.0.0","Windows","10.0","https://app.prolific.com/","en-US,en;q=0.9","671440da17d283b1ef1035be","67949641171f97c04e14fb34","679c24880956711d72158c25","","null","<img   src='G_3.jpg' height='90'> <img   src='G_4.jpg' height='90'> <img  src='G_7.jpg' height='90'> <img    src='G_8.jpg' height='90'> <img src='G_2.jpg' height='90'> <img src='G_5.jpg' height='90'> <img src='G_1.jpg' height='90'> <img src='G_6.jpg' height='90'>","null","Animation1",""
"","","","","","html-keyboard-response","98","1797634","0.0-63.0","69","1","2025-01-31 01:35:18","af8d355d56820e421d246a7037deb6e6","207.230.114.129","Mozilla/5.0 (Windows NT 10.0; Win64; x64) AppleWebKit/537.36 (KHTML, like Gecko) Chrome/132.0.0.0 Safari/537.36","WebKit","Chrome","132.0.0.0","Windows","10.0","https://app.prolific.com/","en-US,en;q=0.9","671440da17d283b1ef1035be","67949641171f97c04e14fb34","679c24880956711d72158c25","","null","<img   src='G_3.jpg' height='90'> <img id='selected'   src='G_4.jpg' height='90'> <img  src='G_7.jpg' height='90'> <img    src='G_8.jpg' height='90'> <img src='G_2.jpg' height='90'> <img src='G_5.jpg' height='90'> <img src='G_1.jpg' height='90'> <img src='G_6.jpg' height='90'>","null","Animation1",""
"","","","","","html-keyboard-response","99","1798630","0.0-64.0","69","1","2025-01-31 01:35:18","af8d355d56820e421d246a7037deb6e6","207.230.114.129","Mozilla/5.0 (Windows NT 10.0; Win64; x64) AppleWebKit/537.36 (KHTML, like Gecko) Chrome/132.0.0.0 Safari/537.36","WebKit","Chrome","132.0.0.0","Windows","10.0","https://app.prolific.com/","en-US,en;q=0.9","671440da17d283b1ef1035be","67949641171f97c04e14fb34","679c24880956711d72158c25","","null","<img   src='G_3.jpg' height='90'> <img id='selected'   src='G_4.jpg' height='90'> <img id='selected'  src='G_7.jpg' height='90'> <img    src='G_8.jpg' height='90'> <img src='G_2.jpg' height='90'> <img src='G_5.jpg' height='90'> <img src='G_1.jpg' height='90'> <img src='G_6.jpg' height='90'>","null","Animation1",""
"","","","","","html-keyboard-response","100","1799621","0.0-65.0","69","1","2025-01-31 01:35:18","af8d355d56820e421d246a7037deb6e6","207.230.114.129","Mozilla/5.0 (Windows NT 10.0; Win64; x64) AppleWebKit/537.36 (KHTML, like Gecko) Chrome/132.0.0.0 Safari/537.36","WebKit","Chrome","132.0.0.0","Windows","10.0","https://app.prolific.com/","en-US,en;q=0.9","671440da17d283b1ef1035be","67949641171f97c04e14fb34","679c24880956711d72158c25","","null","<img   src='G_3.jpg' height='90'> <img id='swapped'  src='G_7.jpg' height='90'> <img id='swapped'   src='G_4.jpg' height='90'> <img    src='G_8.jpg' height='90'> <img src='G_2.jpg' height='90'> <img src='G_5.jpg' height='90'> <img src='G_1.jpg' height='90'> <img src='G_6.jpg' height='90'>","null","Animation1",""
"","","","","","html-keyboard-response","101","1800622","0.0-66.0","69","1","2025-01-31 01:35:18","af8d355d56820e421d246a7037deb6e6","207.230.114.129","Mozilla/5.0 (Windows NT 10.0; Win64; x64) AppleWebKit/537.36 (KHTML, like Gecko) Chrome/132.0.0.0 Safari/537.36","WebKit","Chrome","132.0.0.0","Windows","10.0","https://app.prolific.com/","en-US,en;q=0.9","671440da17d283b1ef1035be","67949641171f97c04e14fb34","679c24880956711d72158c25","","null","<img   src='G_3.jpg' height='90'> <img   src='G_7.jpg' height='90'> <img    src='G_4.jpg' height='90'> <img    src='G_8.jpg' height='90'> <img src='G_2.jpg' height='90'> <img src='G_5.jpg' height='90'> <img src='G_1.jpg' height='90'> <img src='G_6.jpg' height='90'>","null","Animation1",""
"","","","","","html-keyboard-response","102","1801627","0.0-67.0","69","1","2025-01-31 01:35:18","af8d355d56820e421d246a7037deb6e6","207.230.114.129","Mozilla/5.0 (Windows NT 10.0; Win64; x64) AppleWebKit/537.36 (KHTML, like Gecko) Chrome/132.0.0.0 Safari/537.36","WebKit","Chrome","132.0.0.0","Windows","10.0","https://app.prolific.com/","en-US,en;q=0.9","671440da17d283b1ef1035be","67949641171f97c04e14fb34","679c24880956711d72158c25","","null","<img id='selected'   src='G_3.jpg' height='90'> <img   src='G_7.jpg' height='90'> <img    src='G_4.jpg' height='90'> <img    src='G_8.jpg' height='90'> <img src='G_2.jpg' height='90'> <img src='G_5.jpg' height='90'> <img src='G_1.jpg' height='90'> <img src='G_6.jpg' height='90'>","null","Animation1",""
"","","","","","html-keyboard-response","103","1802620","0.0-68.0","69","1","2025-01-31 01:35:18","af8d355d56820e421d246a7037deb6e6","207.230.114.129","Mozilla/5.0 (Windows NT 10.0; Win64; x64) AppleWebKit/537.36 (KHTML, like Gecko) Chrome/132.0.0.0 Safari/537.36","WebKit","Chrome","132.0.0.0","Windows","10.0","https://app.prolific.com/","en-US,en;q=0.9","671440da17d283b1ef1035be","67949641171f97c04e14fb34","679c24880956711d72158c25","","null","<img id='selected'   src='G_3.jpg' height='90'> <img id='selected'   src='G_7.jpg' height='90'> <img    src='G_4.jpg' height='90'> <img    src='G_8.jpg' height='90'> <img src='G_2.jpg' height='90'> <img src='G_5.jpg' height='90'> <img src='G_1.jpg' height='90'> <img src='G_6.jpg' height='90'>","null","Animation1",""
"","","","","","html-keyboard-response","104","1803624","0.0-69.0","69","1","2025-01-31 01:35:18","af8d355d56820e421d246a7037deb6e6","207.230.114.129","Mozilla/5.0 (Windows NT 10.0; Win64; x64) AppleWebKit/537.36 (KHTML, like Gecko) Chrome/132.0.0.0 Safari/537.36","WebKit","Chrome","132.0.0.0","Windows","10.0","https://app.prolific.com/","en-US,en;q=0.9","671440da17d283b1ef1035be","67949641171f97c04e14fb34","679c24880956711d72158c25","","null","<img id='swapped'   src='G_7.jpg' height='90'> <img id='swapped'   src='G_3.jpg' height='90'> <img    src='G_4.jpg' height='90'> <img    src='G_8.jpg' height='90'> <img src='G_2.jpg' height='90'> <img src='G_5.jpg' height='90'> <img src='G_1.jpg' height='90'> <img src='G_6.jpg' height='90'>","null","Animation1",""
"","","","","","html-keyboard-response","105","1804627","0.0-70.0","69","1","2025-01-31 01:35:18","af8d355d56820e421d246a7037deb6e6","207.230.114.129","Mozilla/5.0 (Windows NT 10.0; Win64; x64) AppleWebKit/537.36 (KHTML, like Gecko) Chrome/132.0.0.0 Safari/537.36","WebKit","Chrome","132.0.0.0","Windows","10.0","https://app.prolific.com/","en-US,en;q=0.9","671440da17d283b1ef1035be","67949641171f97c04e14fb34","679c24880956711d72158c25","","null","<img    src='G_7.jpg' height='90'> <img    src='G_3.jpg' height='90'> <img    src='G_4.jpg' height='90'> <img    src='G_8.jpg' height='90'> <img src='G_2.jpg' height='90'> <img src='G_5.jpg' height='90'> <img src='G_1.jpg' height='90'> <img src='G_6.jpg' height='90'>","null","Animation1",""
"","","","","","html-keyboard-response","106","1805142","0.0-71.0","69","1","2025-01-31 01:35:18","af8d355d56820e421d246a7037deb6e6","207.230.114.129","Mozilla/5.0 (Windows NT 10.0; Win64; x64) AppleWebKit/537.36 (KHTML, like Gecko) Chrome/132.0.0.0 Safari/537.36","WebKit","Chrome","132.0.0.0","Windows","10.0","https://app.prolific.com/","en-US,en;q=0.9","671440da17d283b1ef1035be","67949641171f97c04e14fb34","679c24880956711d72158c25","","null","<img    src='G_7.jpg' height='90'> <img    src='G_3.jpg' height='90'> <img    src='G_4.jpg' height='90'> <img id='selected'    src='G_8.jpg' height='90'> <img src='G_2.jpg' height='90'> <img src='G_5.jpg' height='90'> <img src='G_1.jpg' height='90'> <img src='G_6.jpg' height='90'>","null","Animation1",""
"","","","","","html-keyboard-response","107","1805648","0.0-72.0","69","1","2025-01-31 01:35:18","af8d355d56820e421d246a7037deb6e6","207.230.114.129","Mozilla/5.0 (Windows NT 10.0; Win64; x64) AppleWebKit/537.36 (KHTML, like Gecko) Chrome/132.0.0.0 Safari/537.36","WebKit","Chrome","132.0.0.0","Windows","10.0","https://app.prolific.com/","en-US,en;q=0.9","671440da17d283b1ef1035be","67949641171f97c04e14fb34","679c24880956711d72158c25","","null","<img    src='G_7.jpg' height='90'> <img    src='G_3.jpg' height='90'> <img    src='G_4.jpg' height='90'> <img id='selected'    src='G_8.jpg' height='90'> <img id='selected' src='G_2.jpg' height='90'> <img src='G_5.jpg' height='90'> <img src='G_1.jpg' height='90'> <img src='G_6.jpg' height='90'>","null","Animation1",""
"","","","","","html-keyboard-response","108","1806167","0.0-73.0","69","1","2025-01-31 01:35:18","af8d355d56820e421d246a7037deb6e6","207.230.114.129","Mozilla/5.0 (Windows NT 10.0; Win64; x64) AppleWebKit/537.36 (KHTML, like Gecko) Chrome/132.0.0.0 Safari/537.36","WebKit","Chrome","132.0.0.0","Windows","10.0","https://app.prolific.com/","en-US,en;q=0.9","671440da17d283b1ef1035be","67949641171f97c04e14fb34","679c24880956711d72158c25","","null","<img    src='G_7.jpg' height='90'> <img    src='G_3.jpg' height='90'> <img    src='G_4.jpg' height='90'> <img id='swapped' src='G_2.jpg' height='90'> <img id='swapped'    src='G_8.jpg' height='90'> <img src='G_5.jpg' height='90'> <img src='G_1.jpg' height='90'> <img src='G_6.jpg' height='90'>","null","Animation1",""
"","","","","","html-keyboard-response","109","1806486","0.0-74.0","69","1","2025-01-31 01:35:18","af8d355d56820e421d246a7037deb6e6","207.230.114.129","Mozilla/5.0 (Windows NT 10.0; Win64; x64) AppleWebKit/537.36 (KHTML, like Gecko) Chrome/132.0.0.0 Safari/537.36","WebKit","Chrome","132.0.0.0","Windows","10.0","https://app.prolific.com/","en-US,en;q=0.9","671440da17d283b1ef1035be","67949641171f97c04e14fb34","679c24880956711d72158c25","","null","<img    src='G_7.jpg' height='90'> <img    src='G_3.jpg' height='90'> <img    src='G_4.jpg' height='90'> <img  src='G_2.jpg' height='90'> <img     src='G_8.jpg' height='90'> <img src='G_5.jpg' height='90'> <img src='G_1.jpg' height='90'> <img src='G_6.jpg' height='90'>","null","Animation1",""
"","","","","","html-keyboard-response","110","1807003","0.0-75.0","69","1","2025-01-31 01:35:18","af8d355d56820e421d246a7037deb6e6","207.230.114.129","Mozilla/5.0 (Windows NT 10.0; Win64; x64) AppleWebKit/537.36 (KHTML, like Gecko) Chrome/132.0.0.0 Safari/537.36","WebKit","Chrome","132.0.0.0","Windows","10.0","https://app.prolific.com/","en-US,en;q=0.9","671440da17d283b1ef1035be","67949641171f97c04e14fb34","679c24880956711d72158c25","","null","<img    src='G_7.jpg' height='90'> <img    src='G_3.jpg' height='90'> <img id='selected'    src='G_4.jpg' height='90'> <img  src='G_2.jpg' height='90'> <img     src='G_8.jpg' height='90'> <img src='G_5.jpg' height='90'> <img src='G_1.jpg' height='90'> <img src='G_6.jpg' height='90'>","null","Animation1",""
"","","","","","html-keyboard-response","111","1807525","0.0-76.0","69","1","2025-01-31 01:35:18","af8d355d56820e421d246a7037deb6e6","207.230.114.129","Mozilla/5.0 (Windows NT 10.0; Win64; x64) AppleWebKit/537.36 (KHTML, like Gecko) Chrome/132.0.0.0 Safari/537.36","WebKit","Chrome","132.0.0.0","Windows","10.0","https://app.prolific.com/","en-US,en;q=0.9","671440da17d283b1ef1035be","67949641171f97c04e14fb34","679c24880956711d72158c25","","null","<img    src='G_7.jpg' height='90'> <img    src='G_3.jpg' height='90'> <img id='selected'    src='G_4.jpg' height='90'> <img id='selected'  src='G_2.jpg' height='90'> <img     src='G_8.jpg' height='90'> <img src='G_5.jpg' height='90'> <img src='G_1.jpg' height='90'> <img src='G_6.jpg' height='90'>","null","Animation1",""
"","","","","","html-keyboard-response","112","1808046","0.0-77.0","69","1","2025-01-31 01:35:18","af8d355d56820e421d246a7037deb6e6","207.230.114.129","Mozilla/5.0 (Windows NT 10.0; Win64; x64) AppleWebKit/537.36 (KHTML, like Gecko) Chrome/132.0.0.0 Safari/537.36","WebKit","Chrome","132.0.0.0","Windows","10.0","https://app.prolific.com/","en-US,en;q=0.9","671440da17d283b1ef1035be","67949641171f97c04e14fb34","679c24880956711d72158c25","","null","<img    src='G_7.jpg' height='90'> <img    src='G_3.jpg' height='90'> <img id='swapped'  src='G_2.jpg' height='90'> <img id='swapped'    src='G_4.jpg' height='90'> <img     src='G_8.jpg' height='90'> <img src='G_5.jpg' height='90'> <img src='G_1.jpg' height='90'> <img src='G_6.jpg' height='90'>","null","Animation1",""
"","","","","","html-keyboard-response","113","1808368","0.0-78.0","69","1","2025-01-31 01:35:18","af8d355d56820e421d246a7037deb6e6","207.230.114.129","Mozilla/5.0 (Windows NT 10.0; Win64; x64) AppleWebKit/537.36 (KHTML, like Gecko) Chrome/132.0.0.0 Safari/537.36","WebKit","Chrome","132.0.0.0","Windows","10.0","https://app.prolific.com/","en-US,en;q=0.9","671440da17d283b1ef1035be","67949641171f97c04e14fb34","679c24880956711d72158c25","","null","<img    src='G_7.jpg' height='90'> <img    src='G_3.jpg' height='90'> <img   src='G_2.jpg' height='90'> <img     src='G_4.jpg' height='90'> <img     src='G_8.jpg' height='90'> <img src='G_5.jpg' height='90'> <img src='G_1.jpg' height='90'> <img src='G_6.jpg' height='90'>","null","Animation1",""
"","","","","","html-keyboard-response","114","1808882","0.0-79.0","69","1","2025-01-31 01:35:18","af8d355d56820e421d246a7037deb6e6","207.230.114.129","Mozilla/5.0 (Windows NT 10.0; Win64; x64) AppleWebKit/537.36 (KHTML, like Gecko) Chrome/132.0.0.0 Safari/537.36","WebKit","Chrome","132.0.0.0","Windows","10.0","https://app.prolific.com/","en-US,en;q=0.9","671440da17d283b1ef1035be","67949641171f97c04e14fb34","679c24880956711d72158c25","","null","<img    src='G_7.jpg' height='90'> <img id='selected'    src='G_3.jpg' height='90'> <img   src='G_2.jpg' height='90'> <img     src='G_4.jpg' height='90'> <img     src='G_8.jpg' height='90'> <img src='G_5.jpg' height='90'> <img src='G_1.jpg' height='90'> <img src='G_6.jpg' height='90'>","null","Animation1",""
"","","","","","html-keyboard-response","115","1809395","0.0-80.0","69","1","2025-01-31 01:35:18","af8d355d56820e421d246a7037deb6e6","207.230.114.129","Mozilla/5.0 (Windows NT 10.0; Win64; x64) AppleWebKit/537.36 (KHTML, like Gecko) Chrome/132.0.0.0 Safari/537.36","WebKit","Chrome","132.0.0.0","Windows","10.0","https://app.prolific.com/","en-US,en;q=0.9","671440da17d283b1ef1035be","67949641171f97c04e14fb34","679c24880956711d72158c25","","null","<img    src='G_7.jpg' height='90'> <img id='selected'    src='G_3.jpg' height='90'> <img id='selected'   src='G_2.jpg' height='90'> <img     src='G_4.jpg' height='90'> <img     src='G_8.jpg' height='90'> <img src='G_5.jpg' height='90'> <img src='G_1.jpg' height='90'> <img src='G_6.jpg' height='90'>","null","Animation1",""
"","","","","","html-keyboard-response","116","1809906","0.0-81.0","69","1","2025-01-31 01:35:18","af8d355d56820e421d246a7037deb6e6","207.230.114.129","Mozilla/5.0 (Windows NT 10.0; Win64; x64) AppleWebKit/537.36 (KHTML, like Gecko) Chrome/132.0.0.0 Safari/537.36","WebKit","Chrome","132.0.0.0","Windows","10.0","https://app.prolific.com/","en-US,en;q=0.9","671440da17d283b1ef1035be","67949641171f97c04e14fb34","679c24880956711d72158c25","","null","<img    src='G_7.jpg' height='90'> <img id='swapped'   src='G_2.jpg' height='90'> <img id='swapped'    src='G_3.jpg' height='90'> <img     src='G_4.jpg' height='90'> <img     src='G_8.jpg' height='90'> <img src='G_5.jpg' height='90'> <img src='G_1.jpg' height='90'> <img src='G_6.jpg' height='90'>","null","Animation1",""
"","","","","","html-keyboard-response","117","1810219","0.0-82.0","69","1","2025-01-31 01:35:18","af8d355d56820e421d246a7037deb6e6","207.230.114.129","Mozilla/5.0 (Windows NT 10.0; Win64; x64) AppleWebKit/537.36 (KHTML, like Gecko) Chrome/132.0.0.0 Safari/537.36","WebKit","Chrome","132.0.0.0","Windows","10.0","https://app.prolific.com/","en-US,en;q=0.9","671440da17d283b1ef1035be","67949641171f97c04e14fb34","679c24880956711d72158c25","","null","<img    src='G_7.jpg' height='90'> <img    src='G_2.jpg' height='90'> <img     src='G_3.jpg' height='90'> <img     src='G_4.jpg' height='90'> <img     src='G_8.jpg' height='90'> <img src='G_5.jpg' height='90'> <img src='G_1.jpg' height='90'> <img src='G_6.jpg' height='90'>","null","Animation1",""
"","","","","","html-keyboard-response","118","1810734","0.0-83.0","69","1","2025-01-31 01:35:18","af8d355d56820e421d246a7037deb6e6","207.230.114.129","Mozilla/5.0 (Windows NT 10.0; Win64; x64) AppleWebKit/537.36 (KHTML, like Gecko) Chrome/132.0.0.0 Safari/537.36","WebKit","Chrome","132.0.0.0","Windows","10.0","https://app.prolific.com/","en-US,en;q=0.9","671440da17d283b1ef1035be","67949641171f97c04e14fb34","679c24880956711d72158c25","","null","<img id='selected'    src='G_7.jpg' height='90'> <img    src='G_2.jpg' height='90'> <img     src='G_3.jpg' height='90'> <img     src='G_4.jpg' height='90'> <img     src='G_8.jpg' height='90'> <img src='G_5.jpg' height='90'> <img src='G_1.jpg' height='90'> <img src='G_6.jpg' height='90'>","null","Animation1",""
"","","","","","html-keyboard-response","119","1811258","0.0-84.0","69","1","2025-01-31 01:35:18","af8d355d56820e421d246a7037deb6e6","207.230.114.129","Mozilla/5.0 (Windows NT 10.0; Win64; x64) AppleWebKit/537.36 (KHTML, like Gecko) Chrome/132.0.0.0 Safari/537.36","WebKit","Chrome","132.0.0.0","Windows","10.0","https://app.prolific.com/","en-US,en;q=0.9","671440da17d283b1ef1035be","67949641171f97c04e14fb34","679c24880956711d72158c25","","null","<img id='selected'    src='G_7.jpg' height='90'> <img id='selected'    src='G_2.jpg' height='90'> <img     src='G_3.jpg' height='90'> <img     src='G_4.jpg' height='90'> <img     src='G_8.jpg' height='90'> <img src='G_5.jpg' height='90'> <img src='G_1.jpg' height='90'> <img src='G_6.jpg' height='90'>","null","Animation1",""
"","","","","","html-keyboard-response","120","1811775","0.0-85.0","69","1","2025-01-31 01:35:18","af8d355d56820e421d246a7037deb6e6","207.230.114.129","Mozilla/5.0 (Windows NT 10.0; Win64; x64) AppleWebKit/537.36 (KHTML, like Gecko) Chrome/132.0.0.0 Safari/537.36","WebKit","Chrome","132.0.0.0","Windows","10.0","https://app.prolific.com/","en-US,en;q=0.9","671440da17d283b1ef1035be","67949641171f97c04e14fb34","679c24880956711d72158c25","","null","<img id='selected'    src='G_7.jpg' height='90'> <img id='selected'    src='G_2.jpg' height='90'> <img     src='G_3.jpg' height='90'> <img     src='G_4.jpg' height='90'> <img     src='G_8.jpg' height='90'> <img src='G_5.jpg' height='90'> <img src='G_1.jpg' height='90'> <img src='G_6.jpg' height='90'>","null","Animation1",""
"","","","","","html-keyboard-response","121","1812086","0.0-86.0","69","1","2025-01-31 01:35:18","af8d355d56820e421d246a7037deb6e6","207.230.114.129","Mozilla/5.0 (Windows NT 10.0; Win64; x64) AppleWebKit/537.36 (KHTML, like Gecko) Chrome/132.0.0.0 Safari/537.36","WebKit","Chrome","132.0.0.0","Windows","10.0","https://app.prolific.com/","en-US,en;q=0.9","671440da17d283b1ef1035be","67949641171f97c04e14fb34","679c24880956711d72158c25","","null","<img     src='G_7.jpg' height='90'> <img     src='G_2.jpg' height='90'> <img     src='G_3.jpg' height='90'> <img     src='G_4.jpg' height='90'> <img     src='G_8.jpg' height='90'> <img src='G_5.jpg' height='90'> <img src='G_1.jpg' height='90'> <img src='G_6.jpg' height='90'>","null","Animation1",""
"","","","","","html-keyboard-response","122","1812606","0.0-87.0","69","1","2025-01-31 01:35:18","af8d355d56820e421d246a7037deb6e6","207.230.114.129","Mozilla/5.0 (Windows NT 10.0; Win64; x64) AppleWebKit/537.36 (KHTML, like Gecko) Chrome/132.0.0.0 Safari/537.36","WebKit","Chrome","132.0.0.0","Windows","10.0","https://app.prolific.com/","en-US,en;q=0.9","671440da17d283b1ef1035be","67949641171f97c04e14fb34","679c24880956711d72158c25","","null","<img     src='G_7.jpg' height='90'> <img     src='G_2.jpg' height='90'> <img     src='G_3.jpg' height='90'> <img     src='G_4.jpg' height='90'> <img id='selected'     src='G_8.jpg' height='90'> <img src='G_5.jpg' height='90'> <img src='G_1.jpg' height='90'> <img src='G_6.jpg' height='90'>","null","Animation1",""
"","","","","","html-keyboard-response","123","1813125","0.0-88.0","69","1","2025-01-31 01:35:18","af8d355d56820e421d246a7037deb6e6","207.230.114.129","Mozilla/5.0 (Windows NT 10.0; Win64; x64) AppleWebKit/537.36 (KHTML, like Gecko) Chrome/132.0.0.0 Safari/537.36","WebKit","Chrome","132.0.0.0","Windows","10.0","https://app.prolific.com/","en-US,en;q=0.9","671440da17d283b1ef1035be","67949641171f97c04e14fb34","679c24880956711d72158c25","","null","<img     src='G_7.jpg' height='90'> <img     src='G_2.jpg' height='90'> <img     src='G_3.jpg' height='90'> <img     src='G_4.jpg' height='90'> <img id='selected'     src='G_8.jpg' height='90'> <img id='selected' src='G_5.jpg' height='90'> <img src='G_1.jpg' height='90'> <img src='G_6.jpg' height='90'>","null","Animation1",""
"","","","","","html-keyboard-response","124","1813637","0.0-89.0","69","1","2025-01-31 01:35:18","af8d355d56820e421d246a7037deb6e6","207.230.114.129","Mozilla/5.0 (Windows NT 10.0; Win64; x64) AppleWebKit/537.36 (KHTML, like Gecko) Chrome/132.0.0.0 Safari/537.36","WebKit","Chrome","132.0.0.0","Windows","10.0","https://app.prolific.com/","en-US,en;q=0.9","671440da17d283b1ef1035be","67949641171f97c04e14fb34","679c24880956711d72158c25","","null","<img     src='G_7.jpg' height='90'> <img     src='G_2.jpg' height='90'> <img     src='G_3.jpg' height='90'> <img     src='G_4.jpg' height='90'> <img id='swapped' src='G_5.jpg' height='90'> <img id='swapped'     src='G_8.jpg' height='90'> <img src='G_1.jpg' height='90'> <img src='G_6.jpg' height='90'>","null","Animation1",""
"","","","","","html-keyboard-response","125","1813955","0.0-90.0","69","1","2025-01-31 01:35:18","af8d355d56820e421d246a7037deb6e6","207.230.114.129","Mozilla/5.0 (Windows NT 10.0; Win64; x64) AppleWebKit/537.36 (KHTML, like Gecko) Chrome/132.0.0.0 Safari/537.36","WebKit","Chrome","132.0.0.0","Windows","10.0","https://app.prolific.com/","en-US,en;q=0.9","671440da17d283b1ef1035be","67949641171f97c04e14fb34","679c24880956711d72158c25","","null","<img     src='G_7.jpg' height='90'> <img     src='G_2.jpg' height='90'> <img     src='G_3.jpg' height='90'> <img     src='G_4.jpg' height='90'> <img  src='G_5.jpg' height='90'> <img      src='G_8.jpg' height='90'> <img src='G_1.jpg' height='90'> <img src='G_6.jpg' height='90'>","null","Animation1",""
"","","","","","html-keyboard-response","126","1814478","0.0-91.0","69","1","2025-01-31 01:35:18","af8d355d56820e421d246a7037deb6e6","207.230.114.129","Mozilla/5.0 (Windows NT 10.0; Win64; x64) AppleWebKit/537.36 (KHTML, like Gecko) Chrome/132.0.0.0 Safari/537.36","WebKit","Chrome","132.0.0.0","Windows","10.0","https://app.prolific.com/","en-US,en;q=0.9","671440da17d283b1ef1035be","67949641171f97c04e14fb34","679c24880956711d72158c25","","null","<img     src='G_7.jpg' height='90'> <img     src='G_2.jpg' height='90'> <img     src='G_3.jpg' height='90'> <img id='selected'     src='G_4.jpg' height='90'> <img  src='G_5.jpg' height='90'> <img      src='G_8.jpg' height='90'> <img src='G_1.jpg' height='90'> <img src='G_6.jpg' height='90'>","null","Animation1",""
"","","","","","html-keyboard-response","127","1814991","0.0-92.0","69","1","2025-01-31 01:35:18","af8d355d56820e421d246a7037deb6e6","207.230.114.129","Mozilla/5.0 (Windows NT 10.0; Win64; x64) AppleWebKit/537.36 (KHTML, like Gecko) Chrome/132.0.0.0 Safari/537.36","WebKit","Chrome","132.0.0.0","Windows","10.0","https://app.prolific.com/","en-US,en;q=0.9","671440da17d283b1ef1035be","67949641171f97c04e14fb34","679c24880956711d72158c25","","null","<img     src='G_7.jpg' height='90'> <img     src='G_2.jpg' height='90'> <img     src='G_3.jpg' height='90'> <img id='selected'     src='G_4.jpg' height='90'> <img id='selected'  src='G_5.jpg' height='90'> <img      src='G_8.jpg' height='90'> <img src='G_1.jpg' height='90'> <img src='G_6.jpg' height='90'>","null","Animation1",""
"","","","","","html-keyboard-response","128","1815498","0.0-93.0","69","1","2025-01-31 01:35:18","af8d355d56820e421d246a7037deb6e6","207.230.114.129","Mozilla/5.0 (Windows NT 10.0; Win64; x64) AppleWebKit/537.36 (KHTML, like Gecko) Chrome/132.0.0.0 Safari/537.36","WebKit","Chrome","132.0.0.0","Windows","10.0","https://app.prolific.com/","en-US,en;q=0.9","671440da17d283b1ef1035be","67949641171f97c04e14fb34","679c24880956711d72158c25","","null","<img     src='G_7.jpg' height='90'> <img     src='G_2.jpg' height='90'> <img     src='G_3.jpg' height='90'> <img id='selected'     src='G_4.jpg' height='90'> <img id='selected'  src='G_5.jpg' height='90'> <img      src='G_8.jpg' height='90'> <img src='G_1.jpg' height='90'> <img src='G_6.jpg' height='90'>","null","Animation1",""
"","","","","","html-keyboard-response","129","1815812","0.0-94.0","69","1","2025-01-31 01:35:18","af8d355d56820e421d246a7037deb6e6","207.230.114.129","Mozilla/5.0 (Windows NT 10.0; Win64; x64) AppleWebKit/537.36 (KHTML, like Gecko) Chrome/132.0.0.0 Safari/537.36","WebKit","Chrome","132.0.0.0","Windows","10.0","https://app.prolific.com/","en-US,en;q=0.9","671440da17d283b1ef1035be","67949641171f97c04e14fb34","679c24880956711d72158c25","","null","<img     src='G_7.jpg' height='90'> <img     src='G_2.jpg' height='90'> <img     src='G_3.jpg' height='90'> <img      src='G_4.jpg' height='90'> <img   src='G_5.jpg' height='90'> <img      src='G_8.jpg' height='90'> <img src='G_1.jpg' height='90'> <img src='G_6.jpg' height='90'>","null","Animation1",""
"","","","","","html-keyboard-response","130","1816333","0.0-95.0","69","1","2025-01-31 01:35:18","af8d355d56820e421d246a7037deb6e6","207.230.114.129","Mozilla/5.0 (Windows NT 10.0; Win64; x64) AppleWebKit/537.36 (KHTML, like Gecko) Chrome/132.0.0.0 Safari/537.36","WebKit","Chrome","132.0.0.0","Windows","10.0","https://app.prolific.com/","en-US,en;q=0.9","671440da17d283b1ef1035be","67949641171f97c04e14fb34","679c24880956711d72158c25","","null","<img     src='G_7.jpg' height='90'> <img     src='G_2.jpg' height='90'> <img     src='G_3.jpg' height='90'> <img      src='G_4.jpg' height='90'> <img   src='G_5.jpg' height='90'> <img id='selected'      src='G_8.jpg' height='90'> <img src='G_1.jpg' height='90'> <img src='G_6.jpg' height='90'>","null","Animation1",""
"","","","","","html-keyboard-response","131","1816855","0.0-96.0","69","1","2025-01-31 01:35:18","af8d355d56820e421d246a7037deb6e6","207.230.114.129","Mozilla/5.0 (Windows NT 10.0; Win64; x64) AppleWebKit/537.36 (KHTML, like Gecko) Chrome/132.0.0.0 Safari/537.36","WebKit","Chrome","132.0.0.0","Windows","10.0","https://app.prolific.com/","en-US,en;q=0.9","671440da17d283b1ef1035be","67949641171f97c04e14fb34","679c24880956711d72158c25","","null","<img     src='G_7.jpg' height='90'> <img     src='G_2.jpg' height='90'> <img     src='G_3.jpg' height='90'> <img      src='G_4.jpg' height='90'> <img   src='G_5.jpg' height='90'> <img id='selected'      src='G_8.jpg' height='90'> <img id='selected' src='G_1.jpg' height='90'> <img src='G_6.jpg' height='90'>","null","Animation1",""
"","","","","","html-keyboard-response","132","1817363","0.0-97.0","69","1","2025-01-31 01:35:18","af8d355d56820e421d246a7037deb6e6","207.230.114.129","Mozilla/5.0 (Windows NT 10.0; Win64; x64) AppleWebKit/537.36 (KHTML, like Gecko) Chrome/132.0.0.0 Safari/537.36","WebKit","Chrome","132.0.0.0","Windows","10.0","https://app.prolific.com/","en-US,en;q=0.9","671440da17d283b1ef1035be","67949641171f97c04e14fb34","679c24880956711d72158c25","","null","<img     src='G_7.jpg' height='90'> <img     src='G_2.jpg' height='90'> <img     src='G_3.jpg' height='90'> <img      src='G_4.jpg' height='90'> <img   src='G_5.jpg' height='90'> <img id='selected'      src='G_8.jpg' height='90'> <img id='selected' src='G_1.jpg' height='90'> <img src='G_6.jpg' height='90'>","null","Animation1",""
"","","","","","html-keyboard-response","133","1817671","0.0-98.0","69","1","2025-01-31 01:35:18","af8d355d56820e421d246a7037deb6e6","207.230.114.129","Mozilla/5.0 (Windows NT 10.0; Win64; x64) AppleWebKit/537.36 (KHTML, like Gecko) Chrome/132.0.0.0 Safari/537.36","WebKit","Chrome","132.0.0.0","Windows","10.0","https://app.prolific.com/","en-US,en;q=0.9","671440da17d283b1ef1035be","67949641171f97c04e14fb34","679c24880956711d72158c25","","null","<img     src='G_7.jpg' height='90'> <img     src='G_2.jpg' height='90'> <img     src='G_3.jpg' height='90'> <img      src='G_4.jpg' height='90'> <img   src='G_5.jpg' height='90'> <img       src='G_8.jpg' height='90'> <img  src='G_1.jpg' height='90'> <img src='G_6.jpg' height='90'>","null","Animation1",""
"","","","","","html-keyboard-response","134","1818195","0.0-99.0","69","1","2025-01-31 01:35:18","af8d355d56820e421d246a7037deb6e6","207.230.114.129","Mozilla/5.0 (Windows NT 10.0; Win64; x64) AppleWebKit/537.36 (KHTML, like Gecko) Chrome/132.0.0.0 Safari/537.36","WebKit","Chrome","132.0.0.0","Windows","10.0","https://app.prolific.com/","en-US,en;q=0.9","671440da17d283b1ef1035be","67949641171f97c04e14fb34","679c24880956711d72158c25","","null","<img     src='G_7.jpg' height='90'> <img     src='G_2.jpg' height='90'> <img     src='G_3.jpg' height='90'> <img      src='G_4.jpg' height='90'> <img   src='G_5.jpg' height='90'> <img       src='G_8.jpg' height='90'> <img id='selected'  src='G_1.jpg' height='90'> <img src='G_6.jpg' height='90'>","null","Animation1",""
"","","","","","html-keyboard-response","135","1818710","0.0-100.0","69","1","2025-01-31 01:35:18","af8d355d56820e421d246a7037deb6e6","207.230.114.129","Mozilla/5.0 (Windows NT 10.0; Win64; x64) AppleWebKit/537.36 (KHTML, like Gecko) Chrome/132.0.0.0 Safari/537.36","WebKit","Chrome","132.0.0.0","Windows","10.0","https://app.prolific.com/","en-US,en;q=0.9","671440da17d283b1ef1035be","67949641171f97c04e14fb34","679c24880956711d72158c25","","null","<img     src='G_7.jpg' height='90'> <img     src='G_2.jpg' height='90'> <img     src='G_3.jpg' height='90'> <img      src='G_4.jpg' height='90'> <img   src='G_5.jpg' height='90'> <img       src='G_8.jpg' height='90'> <img id='selected'  src='G_1.jpg' height='90'> <img id='selected' src='G_6.jpg' height='90'>","null","Animation1",""
"","","","","","html-keyboard-response","136","1819231","0.0-101.0","69","1","2025-01-31 01:35:18","af8d355d56820e421d246a7037deb6e6","207.230.114.129","Mozilla/5.0 (Windows NT 10.0; Win64; x64) AppleWebKit/537.36 (KHTML, like Gecko) Chrome/132.0.0.0 Safari/537.36","WebKit","Chrome","132.0.0.0","Windows","10.0","https://app.prolific.com/","en-US,en;q=0.9","671440da17d283b1ef1035be","67949641171f97c04e14fb34","679c24880956711d72158c25","","null","<img     src='G_7.jpg' height='90'> <img     src='G_2.jpg' height='90'> <img     src='G_3.jpg' height='90'> <img      src='G_4.jpg' height='90'> <img   src='G_5.jpg' height='90'> <img       src='G_8.jpg' height='90'> <img id='swapped' src='G_6.jpg' height='90'> <img id='swapped'  src='G_1.jpg' height='90'>","null","Animation1",""
"","","","","","html-keyboard-response","137","1819543","0.0-102.0","69","1","2025-01-31 01:35:18","af8d355d56820e421d246a7037deb6e6","207.230.114.129","Mozilla/5.0 (Windows NT 10.0; Win64; x64) AppleWebKit/537.36 (KHTML, like Gecko) Chrome/132.0.0.0 Safari/537.36","WebKit","Chrome","132.0.0.0","Windows","10.0","https://app.prolific.com/","en-US,en;q=0.9","671440da17d283b1ef1035be","67949641171f97c04e14fb34","679c24880956711d72158c25","","null","<img     src='G_7.jpg' height='90'> <img     src='G_2.jpg' height='90'> <img     src='G_3.jpg' height='90'> <img      src='G_4.jpg' height='90'> <img   src='G_5.jpg' height='90'> <img       src='G_8.jpg' height='90'> <img  src='G_6.jpg' height='90'> <img   src='G_1.jpg' height='90'>","null","Animation1",""
"","","","","","html-keyboard-response","138","1820052","0.0-103.0","69","1","2025-01-31 01:35:18","af8d355d56820e421d246a7037deb6e6","207.230.114.129","Mozilla/5.0 (Windows NT 10.0; Win64; x64) AppleWebKit/537.36 (KHTML, like Gecko) Chrome/132.0.0.0 Safari/537.36","WebKit","Chrome","132.0.0.0","Windows","10.0","https://app.prolific.com/","en-US,en;q=0.9","671440da17d283b1ef1035be","67949641171f97c04e14fb34","679c24880956711d72158c25","","null","<img     src='G_7.jpg' height='90'> <img     src='G_2.jpg' height='90'> <img     src='G_3.jpg' height='90'> <img      src='G_4.jpg' height='90'> <img   src='G_5.jpg' height='90'> <img id='selected'       src='G_8.jpg' height='90'> <img  src='G_6.jpg' height='90'> <img   src='G_1.jpg' height='90'>","null","Animation1",""
"","","","","","html-keyboard-response","139","1820558","0.0-104.0","69","1","2025-01-31 01:35:18","af8d355d56820e421d246a7037deb6e6","207.230.114.129","Mozilla/5.0 (Windows NT 10.0; Win64; x64) AppleWebKit/537.36 (KHTML, like Gecko) Chrome/132.0.0.0 Safari/537.36","WebKit","Chrome","132.0.0.0","Windows","10.0","https://app.prolific.com/","en-US,en;q=0.9","671440da17d283b1ef1035be","67949641171f97c04e14fb34","679c24880956711d72158c25","","null","<img     src='G_7.jpg' height='90'> <img     src='G_2.jpg' height='90'> <img     src='G_3.jpg' height='90'> <img      src='G_4.jpg' height='90'> <img   src='G_5.jpg' height='90'> <img id='selected'       src='G_8.jpg' height='90'> <img id='selected'  src='G_6.jpg' height='90'> <img   src='G_1.jpg' height='90'>","null","Animation1",""
"","","","","","html-keyboard-response","140","1821625","0.0-105.0","69","1","2025-01-31 01:35:18","af8d355d56820e421d246a7037deb6e6","207.230.114.129","Mozilla/5.0 (Windows NT 10.0; Win64; x64) AppleWebKit/537.36 (KHTML, like Gecko) Chrome/132.0.0.0 Safari/537.36","WebKit","Chrome","132.0.0.0","Windows","10.0","https://app.prolific.com/","en-US,en;q=0.9","671440da17d283b1ef1035be","67949641171f97c04e14fb34","679c24880956711d72158c25","","null","<img     src='G_7.jpg' height='90'> <img     src='G_2.jpg' height='90'> <img     src='G_3.jpg' height='90'> <img      src='G_4.jpg' height='90'> <img   src='G_5.jpg' height='90'> <img id='selected'       src='G_8.jpg' height='90'> <img id='selected'  src='G_6.jpg' height='90'> <img   src='G_1.jpg' height='90'>","null","Animation1",""
"","","","","","html-keyboard-response","141","1822626","0.0-106.0","69","1","2025-01-31 01:35:18","af8d355d56820e421d246a7037deb6e6","207.230.114.129","Mozilla/5.0 (Windows NT 10.0; Win64; x64) AppleWebKit/537.36 (KHTML, like Gecko) Chrome/132.0.0.0 Safari/537.36","WebKit","Chrome","132.0.0.0","Windows","10.0","https://app.prolific.com/","en-US,en;q=0.9","671440da17d283b1ef1035be","67949641171f97c04e14fb34","679c24880956711d72158c25","","null","<img     src='G_7.jpg' height='90'> <img     src='G_2.jpg' height='90'> <img     src='G_3.jpg' height='90'> <img      src='G_4.jpg' height='90'> <img   src='G_5.jpg' height='90'> <img        src='G_8.jpg' height='90'> <img   src='G_6.jpg' height='90'> <img   src='G_1.jpg' height='90'>","null","Animation1",""
"","","","","","html-keyboard-response","142","1824604","0.0-107.0","69","1","2025-01-31 01:35:18","af8d355d56820e421d246a7037deb6e6","207.230.114.129","Mozilla/5.0 (Windows NT 10.0; Win64; x64) AppleWebKit/537.36 (KHTML, like Gecko) Chrome/132.0.0.0 Safari/537.36","WebKit","Chrome","132.0.0.0","Windows","10.0","https://app.prolific.com/","en-US,en;q=0.9","671440da17d283b1ef1035be","67949641171f97c04e14fb34","679c24880956711d72158c25","","1967","[""Did you notice any patterns? <br><br>Press Enter to watch that example again and follow the steps of Omgne Sort.""]","enter","",""
"","","","","","html-button-response","143","1825021","0.0-108.0","69","1","2025-01-31 01:35:18","af8d355d56820e421d246a7037deb6e6","207.230.114.129","Mozilla/5.0 (Windows NT 10.0; Win64; x64) AppleWebKit/537.36 (KHTML, like Gecko) Chrome/132.0.0.0 Safari/537.36","WebKit","Chrome","132.0.0.0","Windows","10.0","https://app.prolific.com/","en-US,en;q=0.9","671440da17d283b1ef1035be","67949641171f97c04e14fb34","679c24880956711d72158c25","","null","<img id='selected' src='G_4.jpg' height='90'> <img src='G_8.jpg' height='90'> <img src='G_3.jpg' height='90'> <img src='G_7.jpg' height='90'> <img src='G_2.jpg' height='90'> <img src='G_5.jpg' height='90'> <img src='G_1.jpg' height='90'> <img src='G_6.jpg' height='90'>","null","Learning example 1",""
"","","","","","html-button-response","144","1825340","0.0-109.0","69","1","2025-01-31 01:35:18","af8d355d56820e421d246a7037deb6e6","207.230.114.129","Mozilla/5.0 (Windows NT 10.0; Win64; x64) AppleWebKit/537.36 (KHTML, like Gecko) Chrome/132.0.0.0 Safari/537.36","WebKit","Chrome","132.0.0.0","Windows","10.0","https://app.prolific.com/","en-US,en;q=0.9","671440da17d283b1ef1035be","67949641171f97c04e14fb34","679c24880956711d72158c25","","null","<img id='selected' src='G_4.jpg' height='90'> <img id='selected' src='G_8.jpg' height='90'> <img src='G_3.jpg' height='90'> <img src='G_7.jpg' height='90'> <img src='G_2.jpg' height='90'> <img src='G_5.jpg' height='90'> <img src='G_1.jpg' height='90'> <img src='G_6.jpg' height='90'>","null","Learning example 1",""
"","","","","","html-button-response","145","1825658","0.0-110.0","69","1","2025-01-31 01:35:18","af8d355d56820e421d246a7037deb6e6","207.230.114.129","Mozilla/5.0 (Windows NT 10.0; Win64; x64) AppleWebKit/537.36 (KHTML, like Gecko) Chrome/132.0.0.0 Safari/537.36","WebKit","Chrome","132.0.0.0","Windows","10.0","https://app.prolific.com/","en-US,en;q=0.9","671440da17d283b1ef1035be","67949641171f97c04e14fb34","679c24880956711d72158c25","","null","<img id='selected' src='G_4.jpg' height='90'> <img id='selected' src='G_8.jpg' height='90'> <img src='G_3.jpg' height='90'> <img src='G_7.jpg' height='90'> <img src='G_2.jpg' height='90'> <img src='G_5.jpg' height='90'> <img src='G_1.jpg' height='90'> <img src='G_6.jpg' height='90'>","null","Learning example 1",""
"","","","","","html-button-response","146","1848722","0.0-111.0-0.0-0.0","69","1","2025-01-31 01:35:18","af8d355d56820e421d246a7037deb6e6","207.230.114.129","Mozilla/5.0 (Windows NT 10.0; Win64; x64) AppleWebKit/537.36 (KHTML, like Gecko) Chrome/132.0.0.0 Safari/537.36","WebKit","Chrome","132.0.0.0","Windows","10.0","https://app.prolific.com/","en-US,en;q=0.9","671440da17d283b1ef1035be","67949641171f97c04e14fb34","679c24880956711d72158c25","","23059","<img id='selected' src='G_4.jpg' height='90'> <img id='selected' src='G_8.jpg' height='90'> <img src='G_3.jpg' height='90'> <img src='G_7.jpg' height='90'> <img src='G_2.jpg' height='90'> <img src='G_5.jpg' height='90'> <img src='G_1.jpg' height='90'> <img src='G_6.jpg' height='90'>","1","Learning example 1",""
"","","","","","html-button-response","147","1849010","0.0-111.1-0.1-0.1","69","1","2025-01-31 01:35:18","af8d355d56820e421d246a7037deb6e6","207.230.114.129","Mozilla/5.0 (Windows NT 10.0; Win64; x64) AppleWebKit/537.36 (KHTML, like Gecko) Chrome/132.0.0.0 Safari/537.36","WebKit","Chrome","132.0.0.0","Windows","10.0","https://app.prolific.com/","en-US,en;q=0.9","671440da17d283b1ef1035be","67949641171f97c04e14fb34","679c24880956711d72158c25","","275","<img id='selected' src='G_4.jpg' height='90'> <img id='selected' src='G_8.jpg' height='90'> <img src='G_3.jpg' height='90'> <img src='G_7.jpg' height='90'> <img src='G_2.jpg' height='90'> <img src='G_5.jpg' height='90'> <img src='G_1.jpg' height='90'> <img src='G_6.jpg' height='90'>","0","Learning example 1",""
"","","","","","html-button-response","148","1849236","0.0-112.0","69","1","2025-01-31 01:35:18","af8d355d56820e421d246a7037deb6e6","207.230.114.129","Mozilla/5.0 (Windows NT 10.0; Win64; x64) AppleWebKit/537.36 (KHTML, like Gecko) Chrome/132.0.0.0 Safari/537.36","WebKit","Chrome","132.0.0.0","Windows","10.0","https://app.prolific.com/","en-US,en;q=0.9","671440da17d283b1ef1035be","67949641171f97c04e14fb34","679c24880956711d72158c25","","null","<img  src='G_4.jpg' height='90'> <img  src='G_8.jpg' height='90'> <img src='G_3.jpg' height='90'> <img src='G_7.jpg' height='90'> <img src='G_2.jpg' height='90'> <img src='G_5.jpg' height='90'> <img src='G_1.jpg' height='90'> <img src='G_6.jpg' height='90'>","null","Learning example 1",""
