"success","timeout","failed_images","failed_audio","failed_video","trial_type","trial_index","time_elapsed","internal_node_id","run_id","condition","recorded_at","source_code_version","ip","user_agent","device","browser","browser_version","platform","platform_version","referer","accept_language","PROLIFIC_PID","STUDY_ID","SESSION_ID","view_history","rt","stimulus","response","phase","question_order"
"true","false","[]","[]","[]","preload","0","5842","0.0-0.0","70","1","2025-01-31 01:42:03","af8d355d56820e421d246a7037deb6e6","207.230.114.234","Mozilla/5.0 (Windows NT 10.0; Win64; x64) AppleWebKit/537.36 (KHTML, like Gecko) Chrome/132.0.0.0 Safari/537.36","WebKit","Chrome","132.0.0.0","Windows","10.0","https://app.prolific.com/","en-US,en;q=0.9","6712e63698e4785e4b2cf0a9","67949641171f97c04e14fb34","679c248dd875a65d721d3604","","","","","",""
"","","","","","instructions","1","10087","0.0-1.0","70","1","2025-01-31 01:42:03","af8d355d56820e421d246a7037deb6e6","207.230.114.234","Mozilla/5.0 (Windows NT 10.0; Win64; x64) AppleWebKit/537.36 (KHTML, like Gecko) Chrome/132.0.0.0 Safari/537.36","WebKit","Chrome","132.0.0.0","Windows","10.0","https://app.prolific.com/","en-US,en;q=0.9","6712e63698e4785e4b2cf0a9","67949641171f97c04e14fb34","679c248dd875a65d721d3604","[{""page_index"":0,""viewing_time"":4240}]","4240","","","",""
"","","","","","html-keyboard-response","2","10599","0.0-2.0","70","1","2025-01-31 01:42:03","af8d355d56820e421d246a7037deb6e6","207.230.114.234","Mozilla/5.0 (Windows NT 10.0; Win64; x64) AppleWebKit/537.36 (KHTML, like Gecko) Chrome/132.0.0.0 Safari/537.36","WebKit","Chrome","132.0.0.0","Windows","10.0","https://app.prolific.com/","en-US,en;q=0.9","6712e63698e4785e4b2cf0a9","67949641171f97c04e14fb34","679c248dd875a65d721d3604","","null","<p> + <p/>","null","",""
"","","","","","instructions","3","98235","0.0-3.0","70","1","2025-01-31 01:42:03","af8d355d56820e421d246a7037deb6e6","207.230.114.234","Mozilla/5.0 (Windows NT 10.0; Win64; x64) AppleWebKit/537.36 (KHTML, like Gecko) Chrome/132.0.0.0 Safari/537.36","WebKit","Chrome","132.0.0.0","Windows","10.0","https://app.prolific.com/","en-US,en;q=0.9","6712e63698e4785e4b2cf0a9","67949641171f97c04e14fb34","679c248dd875a65d721d3604","[{""page_index"":0,""viewing_time"":1568},{""page_index"":1,""viewing_time"":2504},{""page_index"":2,""viewing_time"":80174},{""page_index"":3,""viewing_time"":1403},{""page_index"":4,""viewing_time"":1986}]","87634","","","",""
"","","","","","html-button-response","4","100289","0.0-4.0-0.0-0.0","70","1","2025-01-31 01:42:03","af8d355d56820e421d246a7037deb6e6","207.230.114.234","Mozilla/5.0 (Windows NT 10.0; Win64; x64) AppleWebKit/537.36 (KHTML, like Gecko) Chrome/132.0.0.0 Safari/537.36","WebKit","Chrome","132.0.0.0","Windows","10.0","https://app.prolific.com/","en-US,en;q=0.9","6712e63698e4785e4b2cf0a9","67949641171f97c04e14fb34","679c248dd875a65d721d3604","","2051","","0","Intro Trial",""
"","","","","","html-button-response","5","100876","0.0-4.1-0.1-0.1","70","1","2025-01-31 01:42:03","af8d355d56820e421d246a7037deb6e6","207.230.114.234","Mozilla/5.0 (Windows NT 10.0; Win64; x64) AppleWebKit/537.36 (KHTML, like Gecko) Chrome/132.0.0.0 Safari/537.36","WebKit","Chrome","132.0.0.0","Windows","10.0","https://app.prolific.com/","en-US,en;q=0.9","6712e63698e4785e4b2cf0a9","67949641171f97c04e14fb34","679c248dd875a65d721d3604","","585","","1","Intro Trial",""
"","","","","","html-button-response","6","102069","0.0-4.2-0.2-0.2","70","1","2025-01-31 01:42:03","af8d355d56820e421d246a7037deb6e6","207.230.114.234","Mozilla/5.0 (Windows NT 10.0; Win64; x64) AppleWebKit/537.36 (KHTML, like Gecko) Chrome/132.0.0.0 Safari/537.36","WebKit","Chrome","132.0.0.0","Windows","10.0","https://app.prolific.com/","en-US,en;q=0.9","6712e63698e4785e4b2cf0a9","67949641171f97c04e14fb34","679c248dd875a65d721d3604","","1188","","1","Intro Trial",""
"","","","","","html-button-response","7","102354","0.0-4.3-0.3-0.3","70","1","2025-01-31 01:42:03","af8d355d56820e421d246a7037deb6e6","207.230.114.234","Mozilla/5.0 (Windows NT 10.0; Win64; x64) AppleWebKit/537.36 (KHTML, like Gecko) Chrome/132.0.0.0 Safari/537.36","WebKit","Chrome","132.0.0.0","Windows","10.0","https://app.prolific.com/","en-US,en;q=0.9","6712e63698e4785e4b2cf0a9","67949641171f97c04e14fb34","679c248dd875a65d721d3604","","281","","2","Intro Trial",""
"","","","","","html-button-response","8","103539","0.0-4.4-0.4-0.4","70","1","2025-01-31 01:42:03","af8d355d56820e421d246a7037deb6e6","207.230.114.234","Mozilla/5.0 (Windows NT 10.0; Win64; x64) AppleWebKit/537.36 (KHTML, like Gecko) Chrome/132.0.0.0 Safari/537.36","WebKit","Chrome","132.0.0.0","Windows","10.0","https://app.prolific.com/","en-US,en;q=0.9","6712e63698e4785e4b2cf0a9","67949641171f97c04e14fb34","679c248dd875a65d721d3604","","1183","","2","Intro Trial",""
"","","","","","html-button-response","9","103825","0.0-4.5-0.5-0.5","70","1","2025-01-31 01:42:03","af8d355d56820e421d246a7037deb6e6","207.230.114.234","Mozilla/5.0 (Windows NT 10.0; Win64; x64) AppleWebKit/537.36 (KHTML, like Gecko) Chrome/132.0.0.0 Safari/537.36","WebKit","Chrome","132.0.0.0","Windows","10.0","https://app.prolific.com/","en-US,en;q=0.9","6712e63698e4785e4b2cf0a9","67949641171f97c04e14fb34","679c248dd875a65d721d3604","","284","","3","Intro Trial",""
"","","","","","html-button-response","10","104398","0.0-4.6-0.6-0.6","70","1","2025-01-31 01:42:03","af8d355d56820e421d246a7037deb6e6","207.230.114.234","Mozilla/5.0 (Windows NT 10.0; Win64; x64) AppleWebKit/537.36 (KHTML, like Gecko) Chrome/132.0.0.0 Safari/537.36","WebKit","Chrome","132.0.0.0","Windows","10.0","https://app.prolific.com/","en-US,en;q=0.9","6712e63698e4785e4b2cf0a9","67949641171f97c04e14fb34","679c248dd875a65d721d3604","","569","","3","Intro Trial",""
"","","","","","html-button-response","11","104650","0.0-4.7-0.7-0.7","70","1","2025-01-31 01:42:03","af8d355d56820e421d246a7037deb6e6","207.230.114.234","Mozilla/5.0 (Windows NT 10.0; Win64; x64) AppleWebKit/537.36 (KHTML, like Gecko) Chrome/132.0.0.0 Safari/537.36","WebKit","Chrome","132.0.0.0","Windows","10.0","https://app.prolific.com/","en-US,en;q=0.9","6712e63698e4785e4b2cf0a9","67949641171f97c04e14fb34","679c248dd875a65d721d3604","","249","","2","Intro Trial",""
"","","","","","html-button-response","12","105611","0.0-4.8-0.8-0.8","70","1","2025-01-31 01:42:03","af8d355d56820e421d246a7037deb6e6","207.230.114.234","Mozilla/5.0 (Windows NT 10.0; Win64; x64) AppleWebKit/537.36 (KHTML, like Gecko) Chrome/132.0.0.0 Safari/537.36","WebKit","Chrome","132.0.0.0","Windows","10.0","https://app.prolific.com/","en-US,en;q=0.9","6712e63698e4785e4b2cf0a9","67949641171f97c04e14fb34","679c248dd875a65d721d3604","","955","","4","Intro Trial",""
"","","","","","html-button-response","13","105860","0.0-4.9-0.9-0.9","70","1","2025-01-31 01:42:03","af8d355d56820e421d246a7037deb6e6","207.230.114.234","Mozilla/5.0 (Windows NT 10.0; Win64; x64) AppleWebKit/537.36 (KHTML, like Gecko) Chrome/132.0.0.0 Safari/537.36","WebKit","Chrome","132.0.0.0","Windows","10.0","https://app.prolific.com/","en-US,en;q=0.9","6712e63698e4785e4b2cf0a9","67949641171f97c04e14fb34","679c248dd875a65d721d3604","","244","","3","Intro Trial",""
"","","","","","html-button-response","14","106767","0.0-4.10-0.10-0.10","70","1","2025-01-31 01:42:03","af8d355d56820e421d246a7037deb6e6","207.230.114.234","Mozilla/5.0 (Windows NT 10.0; Win64; x64) AppleWebKit/537.36 (KHTML, like Gecko) Chrome/132.0.0.0 Safari/537.36","WebKit","Chrome","132.0.0.0","Windows","10.0","https://app.prolific.com/","en-US,en;q=0.9","6712e63698e4785e4b2cf0a9","67949641171f97c04e14fb34","679c248dd875a65d721d3604","","904","","3","Intro Trial",""
"","","","","","html-button-response","15","107035","0.0-4.11-0.11-0.11","70","1","2025-01-31 01:42:03","af8d355d56820e421d246a7037deb6e6","207.230.114.234","Mozilla/5.0 (Windows NT 10.0; Win64; x64) AppleWebKit/537.36 (KHTML, like Gecko) Chrome/132.0.0.0 Safari/537.36","WebKit","Chrome","132.0.0.0","Windows","10.0","https://app.prolific.com/","en-US,en;q=0.9","6712e63698e4785e4b2cf0a9","67949641171f97c04e14fb34","679c248dd875a65d721d3604","","265","","2","Intro Trial",""
"","","","","","html-button-response","16","107998","0.0-4.12-0.12-0.12","70","1","2025-01-31 01:42:03","af8d355d56820e421d246a7037deb6e6","207.230.114.234","Mozilla/5.0 (Windows NT 10.0; Win64; x64) AppleWebKit/537.36 (KHTML, like Gecko) Chrome/132.0.0.0 Safari/537.36","WebKit","Chrome","132.0.0.0","Windows","10.0","https://app.prolific.com/","en-US,en;q=0.9","6712e63698e4785e4b2cf0a9","67949641171f97c04e14fb34","679c248dd875a65d721d3604","","960","","2","Intro Trial",""
"","","","","","html-button-response","17","108270","0.0-4.13-0.13-0.13","70","1","2025-01-31 01:42:03","af8d355d56820e421d246a7037deb6e6","207.230.114.234","Mozilla/5.0 (Windows NT 10.0; Win64; x64) AppleWebKit/537.36 (KHTML, like Gecko) Chrome/132.0.0.0 Safari/537.36","WebKit","Chrome","132.0.0.0","Windows","10.0","https://app.prolific.com/","en-US,en;q=0.9","6712e63698e4785e4b2cf0a9","67949641171f97c04e14fb34","679c248dd875a65d721d3604","","270","","1","Intro Trial",""
"","","","","","html-button-response","18","109176","0.0-4.14-0.14-0.14","70","1","2025-01-31 01:42:03","af8d355d56820e421d246a7037deb6e6","207.230.114.234","Mozilla/5.0 (Windows NT 10.0; Win64; x64) AppleWebKit/537.36 (KHTML, like Gecko) Chrome/132.0.0.0 Safari/537.36","WebKit","Chrome","132.0.0.0","Windows","10.0","https://app.prolific.com/","en-US,en;q=0.9","6712e63698e4785e4b2cf0a9","67949641171f97c04e14fb34","679c248dd875a65d721d3604","","903","","1","Intro Trial",""
"","","","","","html-button-response","19","109426","0.0-4.15-0.15-0.15","70","1","2025-01-31 01:42:03","af8d355d56820e421d246a7037deb6e6","207.230.114.234","Mozilla/5.0 (Windows NT 10.0; Win64; x64) AppleWebKit/537.36 (KHTML, like Gecko) Chrome/132.0.0.0 Safari/537.36","WebKit","Chrome","132.0.0.0","Windows","10.0","https://app.prolific.com/","en-US,en;q=0.9","6712e63698e4785e4b2cf0a9","67949641171f97c04e14fb34","679c248dd875a65d721d3604","","246","","0","Intro Trial",""
"","","","","","html-button-response","20","110583","0.0-4.16-0.16-0.16","70","1","2025-01-31 01:42:03","af8d355d56820e421d246a7037deb6e6","207.230.114.234","Mozilla/5.0 (Windows NT 10.0; Win64; x64) AppleWebKit/537.36 (KHTML, like Gecko) Chrome/132.0.0.0 Safari/537.36","WebKit","Chrome","132.0.0.0","Windows","10.0","https://app.prolific.com/","en-US,en;q=0.9","6712e63698e4785e4b2cf0a9","67949641171f97c04e14fb34","679c248dd875a65d721d3604","","1154","","1","Intro Trial",""
"","","","","","html-button-response","21","110951","0.0-4.17-0.17-0.17","70","1","2025-01-31 01:42:03","af8d355d56820e421d246a7037deb6e6","207.230.114.234","Mozilla/5.0 (Windows NT 10.0; Win64; x64) AppleWebKit/537.36 (KHTML, like Gecko) Chrome/132.0.0.0 Safari/537.36","WebKit","Chrome","132.0.0.0","Windows","10.0","https://app.prolific.com/","en-US,en;q=0.9","6712e63698e4785e4b2cf0a9","67949641171f97c04e14fb34","679c248dd875a65d721d3604","","366","","2","Intro Trial",""
"","","","","","html-button-response","22","111626","0.0-4.18-0.18-0.18","70","1","2025-01-31 01:42:03","af8d355d56820e421d246a7037deb6e6","207.230.114.234","Mozilla/5.0 (Windows NT 10.0; Win64; x64) AppleWebKit/537.36 (KHTML, like Gecko) Chrome/132.0.0.0 Safari/537.36","WebKit","Chrome","132.0.0.0","Windows","10.0","https://app.prolific.com/","en-US,en;q=0.9","6712e63698e4785e4b2cf0a9","67949641171f97c04e14fb34","679c248dd875a65d721d3604","","671","","2","Intro Trial",""
"","","","","","html-button-response","23","112164","0.0-4.19-0.19-0.19","70","1","2025-01-31 01:42:03","af8d355d56820e421d246a7037deb6e6","207.230.114.234","Mozilla/5.0 (Windows NT 10.0; Win64; x64) AppleWebKit/537.36 (KHTML, like Gecko) Chrome/132.0.0.0 Safari/537.36","WebKit","Chrome","132.0.0.0","Windows","10.0","https://app.prolific.com/","en-US,en;q=0.9","6712e63698e4785e4b2cf0a9","67949641171f97c04e14fb34","679c248dd875a65d721d3604","","533","","3","Intro Trial",""
"","","","","","html-button-response","24","112608","0.0-4.20-0.20-0.20","70","1","2025-01-31 01:42:03","af8d355d56820e421d246a7037deb6e6","207.230.114.234","Mozilla/5.0 (Windows NT 10.0; Win64; x64) AppleWebKit/537.36 (KHTML, like Gecko) Chrome/132.0.0.0 Safari/537.36","WebKit","Chrome","132.0.0.0","Windows","10.0","https://app.prolific.com/","en-US,en;q=0.9","6712e63698e4785e4b2cf0a9","67949641171f97c04e14fb34","679c248dd875a65d721d3604","","440","","4","Intro Trial",""
"","","","","","html-button-response","25","113073","0.0-4.21-0.21-0.21","70","1","2025-01-31 01:42:03","af8d355d56820e421d246a7037deb6e6","207.230.114.234","Mozilla/5.0 (Windows NT 10.0; Win64; x64) AppleWebKit/537.36 (KHTML, like Gecko) Chrome/132.0.0.0 Safari/537.36","WebKit","Chrome","132.0.0.0","Windows","10.0","https://app.prolific.com/","en-US,en;q=0.9","6712e63698e4785e4b2cf0a9","67949641171f97c04e14fb34","679c248dd875a65d721d3604","","461","","5","Intro Trial",""
"","","","","","html-keyboard-response","26","115199","0.0-5.0","70","1","2025-01-31 01:42:03","af8d355d56820e421d246a7037deb6e6","207.230.114.234","Mozilla/5.0 (Windows NT 10.0; Win64; x64) AppleWebKit/537.36 (KHTML, like Gecko) Chrome/132.0.0.0 Safari/537.36","WebKit","Chrome","132.0.0.0","Windows","10.0","https://app.prolific.com/","en-US,en;q=0.9","6712e63698e4785e4b2cf0a9","67949641171f97c04e14fb34","679c248dd875a65d721d3604","","2120","[""You sorted correctly by using the balance 10 times. <br><br> <img src='G_5.jpg' height='90'><img src='G_2.jpg' height='90'><img src='G_3.jpg' height='90'><img src='G_1.jpg' height='90'><img src='G_4.jpg' height='90'><br><br> Your final order is 1,2,3,4,5<br><br><br>Omgne Sort in this game will allow you to sort correctly by using the balance 8 times. Press Enter to learn it!""]","enter","",""
"","","","","","html-keyboard-response","27","116068","0.0-6.0","70","1","2025-01-31 01:42:03","af8d355d56820e421d246a7037deb6e6","207.230.114.234","Mozilla/5.0 (Windows NT 10.0; Win64; x64) AppleWebKit/537.36 (KHTML, like Gecko) Chrome/132.0.0.0 Safari/537.36","WebKit","Chrome","132.0.0.0","Windows","10.0","https://app.prolific.com/","en-US,en;q=0.9","6712e63698e4785e4b2cf0a9","67949641171f97c04e14fb34","679c248dd875a65d721d3604","","866","<p>Welcome to the learning phase! <br><br> You will learn by six examples. The following learning trials will not be used to calculate your performance. <br><br> Press Enter to continue.<p/>","enter","",""
"","","","","","html-keyboard-response","28","900759","0.0-7.0","70","1","2025-01-31 01:42:03","af8d355d56820e421d246a7037deb6e6","207.230.114.234","Mozilla/5.0 (Windows NT 10.0; Win64; x64) AppleWebKit/537.36 (KHTML, like Gecko) Chrome/132.0.0.0 Safari/537.36","WebKit","Chrome","132.0.0.0","Windows","10.0","https://app.prolific.com/","en-US,en;q=0.9","6712e63698e4785e4b2cf0a9","67949641171f97c04e14fb34","679c248dd875a65d721d3604","","784689","[""Example 1<br><br>You will watch Omnge Sort in action. Try to identify any patterns in the comparisons made by this method. <br><br>Press Enter to continue.""]","enter","",""
"","","","","","html-keyboard-response","29","901266","0.0-8.0","70","1","2025-01-31 01:42:03","af8d355d56820e421d246a7037deb6e6","207.230.114.234","Mozilla/5.0 (Windows NT 10.0; Win64; x64) AppleWebKit/537.36 (KHTML, like Gecko) Chrome/132.0.0.0 Safari/537.36","WebKit","Chrome","132.0.0.0","Windows","10.0","https://app.prolific.com/","en-US,en;q=0.9","6712e63698e4785e4b2cf0a9","67949641171f97c04e14fb34","679c248dd875a65d721d3604","","null","<img id='selected' src='G_5.jpg' height='90'> <img src='G_1.jpg' height='90'> <img src='G_7.jpg' height='90'> <img src='G_3.jpg' height='90'> <img src='G_9.jpg' height='90'>","null","Animation0",""
"","","","","","html-keyboard-response","30","901783","0.0-9.0","70","1","2025-01-31 01:42:03","af8d355d56820e421d246a7037deb6e6","207.230.114.234","Mozilla/5.0 (Windows NT 10.0; Win64; x64) AppleWebKit/537.36 (KHTML, like Gecko) Chrome/132.0.0.0 Safari/537.36","WebKit","Chrome","132.0.0.0","Windows","10.0","https://app.prolific.com/","en-US,en;q=0.9","6712e63698e4785e4b2cf0a9","67949641171f97c04e14fb34","679c248dd875a65d721d3604","","null","<img id='selected' src='G_5.jpg' height='90'> <img id='selected' src='G_1.jpg' height='90'> <img src='G_7.jpg' height='90'> <img src='G_3.jpg' height='90'> <img src='G_9.jpg' height='90'>","null","Animation0",""
"","","","","","html-keyboard-response","31","902292","0.0-10.0","70","1","2025-01-31 01:42:03","af8d355d56820e421d246a7037deb6e6","207.230.114.234","Mozilla/5.0 (Windows NT 10.0; Win64; x64) AppleWebKit/537.36 (KHTML, like Gecko) Chrome/132.0.0.0 Safari/537.36","WebKit","Chrome","132.0.0.0","Windows","10.0","https://app.prolific.com/","en-US,en;q=0.9","6712e63698e4785e4b2cf0a9","67949641171f97c04e14fb34","679c248dd875a65d721d3604","","null","<img id='swapped' src='G_1.jpg' height='90'> <img id='swapped' src='G_5.jpg' height='90'> <img src='G_7.jpg' height='90'> <img src='G_3.jpg' height='90'> <img src='G_9.jpg' height='90'>","null","Animation0",""
"","","","","","html-keyboard-response","32","902598","0.0-11.0","70","1","2025-01-31 01:42:03","af8d355d56820e421d246a7037deb6e6","207.230.114.234","Mozilla/5.0 (Windows NT 10.0; Win64; x64) AppleWebKit/537.36 (KHTML, like Gecko) Chrome/132.0.0.0 Safari/537.36","WebKit","Chrome","132.0.0.0","Windows","10.0","https://app.prolific.com/","en-US,en;q=0.9","6712e63698e4785e4b2cf0a9","67949641171f97c04e14fb34","679c248dd875a65d721d3604","","null","<img  src='G_1.jpg' height='90'> <img  src='G_5.jpg' height='90'> <img src='G_7.jpg' height='90'> <img src='G_3.jpg' height='90'> <img src='G_9.jpg' height='90'>","null","Animation0",""
"","","","","","html-keyboard-response","33","903112","0.0-12.0","70","1","2025-01-31 01:42:03","af8d355d56820e421d246a7037deb6e6","207.230.114.234","Mozilla/5.0 (Windows NT 10.0; Win64; x64) AppleWebKit/537.36 (KHTML, like Gecko) Chrome/132.0.0.0 Safari/537.36","WebKit","Chrome","132.0.0.0","Windows","10.0","https://app.prolific.com/","en-US,en;q=0.9","6712e63698e4785e4b2cf0a9","67949641171f97c04e14fb34","679c248dd875a65d721d3604","","null","<img  src='G_1.jpg' height='90'> <img id='selected'  src='G_5.jpg' height='90'> <img src='G_7.jpg' height='90'> <img src='G_3.jpg' height='90'> <img src='G_9.jpg' height='90'>","null","Animation0",""
"","","","","","html-keyboard-response","34","903624","0.0-13.0","70","1","2025-01-31 01:42:03","af8d355d56820e421d246a7037deb6e6","207.230.114.234","Mozilla/5.0 (Windows NT 10.0; Win64; x64) AppleWebKit/537.36 (KHTML, like Gecko) Chrome/132.0.0.0 Safari/537.36","WebKit","Chrome","132.0.0.0","Windows","10.0","https://app.prolific.com/","en-US,en;q=0.9","6712e63698e4785e4b2cf0a9","67949641171f97c04e14fb34","679c248dd875a65d721d3604","","null","<img  src='G_1.jpg' height='90'> <img id='selected'  src='G_5.jpg' height='90'> <img id='selected' src='G_7.jpg' height='90'> <img src='G_3.jpg' height='90'> <img src='G_9.jpg' height='90'>","null","Animation0",""
"","","","","","html-keyboard-response","35","904912","0.0-14.0","70","1","2025-01-31 01:42:03","af8d355d56820e421d246a7037deb6e6","207.230.114.234","Mozilla/5.0 (Windows NT 10.0; Win64; x64) AppleWebKit/537.36 (KHTML, like Gecko) Chrome/132.0.0.0 Safari/537.36","WebKit","Chrome","132.0.0.0","Windows","10.0","https://app.prolific.com/","en-US,en;q=0.9","6712e63698e4785e4b2cf0a9","67949641171f97c04e14fb34","679c248dd875a65d721d3604","","null","<img  src='G_1.jpg' height='90'> <img id='selected'  src='G_5.jpg' height='90'> <img id='selected' src='G_7.jpg' height='90'> <img src='G_3.jpg' height='90'> <img src='G_9.jpg' height='90'>","null","Animation0",""
"","","","","","html-keyboard-response","36","905915","0.0-15.0","70","1","2025-01-31 01:42:03","af8d355d56820e421d246a7037deb6e6","207.230.114.234","Mozilla/5.0 (Windows NT 10.0; Win64; x64) AppleWebKit/537.36 (KHTML, like Gecko) Chrome/132.0.0.0 Safari/537.36","WebKit","Chrome","132.0.0.0","Windows","10.0","https://app.prolific.com/","en-US,en;q=0.9","6712e63698e4785e4b2cf0a9","67949641171f97c04e14fb34","679c248dd875a65d721d3604","","null","<img  src='G_1.jpg' height='90'> <img   src='G_5.jpg' height='90'> <img  src='G_7.jpg' height='90'> <img src='G_3.jpg' height='90'> <img src='G_9.jpg' height='90'>","null","Animation0",""
"","","","","","html-keyboard-response","37","906926","0.0-16.0","70","1","2025-01-31 01:42:03","af8d355d56820e421d246a7037deb6e6","207.230.114.234","Mozilla/5.0 (Windows NT 10.0; Win64; x64) AppleWebKit/537.36 (KHTML, like Gecko) Chrome/132.0.0.0 Safari/537.36","WebKit","Chrome","132.0.0.0","Windows","10.0","https://app.prolific.com/","en-US,en;q=0.9","6712e63698e4785e4b2cf0a9","67949641171f97c04e14fb34","679c248dd875a65d721d3604","","null","<img  src='G_1.jpg' height='90'> <img   src='G_5.jpg' height='90'> <img id='selected'  src='G_7.jpg' height='90'> <img src='G_3.jpg' height='90'> <img src='G_9.jpg' height='90'>","null","Animation0",""
"","","","","","html-keyboard-response","38","907917","0.0-17.0","70","1","2025-01-31 01:42:03","af8d355d56820e421d246a7037deb6e6","207.230.114.234","Mozilla/5.0 (Windows NT 10.0; Win64; x64) AppleWebKit/537.36 (KHTML, like Gecko) Chrome/132.0.0.0 Safari/537.36","WebKit","Chrome","132.0.0.0","Windows","10.0","https://app.prolific.com/","en-US,en;q=0.9","6712e63698e4785e4b2cf0a9","67949641171f97c04e14fb34","679c248dd875a65d721d3604","","null","<img  src='G_1.jpg' height='90'> <img   src='G_5.jpg' height='90'> <img id='selected'  src='G_7.jpg' height='90'> <img id='selected' src='G_3.jpg' height='90'> <img src='G_9.jpg' height='90'>","null","Animation0",""
"","","","","","html-keyboard-response","39","908917","0.0-18.0","70","1","2025-01-31 01:42:03","af8d355d56820e421d246a7037deb6e6","207.230.114.234","Mozilla/5.0 (Windows NT 10.0; Win64; x64) AppleWebKit/537.36 (KHTML, like Gecko) Chrome/132.0.0.0 Safari/537.36","WebKit","Chrome","132.0.0.0","Windows","10.0","https://app.prolific.com/","en-US,en;q=0.9","6712e63698e4785e4b2cf0a9","67949641171f97c04e14fb34","679c248dd875a65d721d3604","","null","<img  src='G_1.jpg' height='90'> <img   src='G_5.jpg' height='90'> <img id='selected'  src='G_7.jpg' height='90'> <img id='selected' src='G_3.jpg' height='90'> <img src='G_9.jpg' height='90'>","null","Animation0",""
"","","","","","html-keyboard-response","40","909918","0.0-19.0","70","1","2025-01-31 01:42:03","af8d355d56820e421d246a7037deb6e6","207.230.114.234","Mozilla/5.0 (Windows NT 10.0; Win64; x64) AppleWebKit/537.36 (KHTML, like Gecko) Chrome/132.0.0.0 Safari/537.36","WebKit","Chrome","132.0.0.0","Windows","10.0","https://app.prolific.com/","en-US,en;q=0.9","6712e63698e4785e4b2cf0a9","67949641171f97c04e14fb34","679c248dd875a65d721d3604","","null","<img  src='G_1.jpg' height='90'> <img   src='G_5.jpg' height='90'> <img   src='G_7.jpg' height='90'> <img  src='G_3.jpg' height='90'> <img src='G_9.jpg' height='90'>","null","Animation0",""
"","","","","","html-keyboard-response","41","910927","0.0-20.0","70","1","2025-01-31 01:42:03","af8d355d56820e421d246a7037deb6e6","207.230.114.234","Mozilla/5.0 (Windows NT 10.0; Win64; x64) AppleWebKit/537.36 (KHTML, like Gecko) Chrome/132.0.0.0 Safari/537.36","WebKit","Chrome","132.0.0.0","Windows","10.0","https://app.prolific.com/","en-US,en;q=0.9","6712e63698e4785e4b2cf0a9","67949641171f97c04e14fb34","679c248dd875a65d721d3604","","null","<img  src='G_1.jpg' height='90'> <img   src='G_5.jpg' height='90'> <img   src='G_7.jpg' height='90'> <img id='selected'  src='G_3.jpg' height='90'> <img src='G_9.jpg' height='90'>","null","Animation0",""
"","","","","","html-keyboard-response","42","911928","0.0-21.0","70","1","2025-01-31 01:42:03","af8d355d56820e421d246a7037deb6e6","207.230.114.234","Mozilla/5.0 (Windows NT 10.0; Win64; x64) AppleWebKit/537.36 (KHTML, like Gecko) Chrome/132.0.0.0 Safari/537.36","WebKit","Chrome","132.0.0.0","Windows","10.0","https://app.prolific.com/","en-US,en;q=0.9","6712e63698e4785e4b2cf0a9","67949641171f97c04e14fb34","679c248dd875a65d721d3604","","null","<img  src='G_1.jpg' height='90'> <img   src='G_5.jpg' height='90'> <img   src='G_7.jpg' height='90'> <img id='selected'  src='G_3.jpg' height='90'> <img id='selected' src='G_9.jpg' height='90'>","null","Animation0",""
"","","","","","html-keyboard-response","43","912912","0.0-22.0","70","1","2025-01-31 01:42:03","af8d355d56820e421d246a7037deb6e6","207.230.114.234","Mozilla/5.0 (Windows NT 10.0; Win64; x64) AppleWebKit/537.36 (KHTML, like Gecko) Chrome/132.0.0.0 Safari/537.36","WebKit","Chrome","132.0.0.0","Windows","10.0","https://app.prolific.com/","en-US,en;q=0.9","6712e63698e4785e4b2cf0a9","67949641171f97c04e14fb34","679c248dd875a65d721d3604","","null","<img  src='G_1.jpg' height='90'> <img   src='G_5.jpg' height='90'> <img   src='G_7.jpg' height='90'> <img id='selected'  src='G_3.jpg' height='90'> <img id='selected' src='G_9.jpg' height='90'>","null","Animation0",""
"","","","","","html-keyboard-response","44","913924","0.0-23.0","70","1","2025-01-31 01:42:03","af8d355d56820e421d246a7037deb6e6","207.230.114.234","Mozilla/5.0 (Windows NT 10.0; Win64; x64) AppleWebKit/537.36 (KHTML, like Gecko) Chrome/132.0.0.0 Safari/537.36","WebKit","Chrome","132.0.0.0","Windows","10.0","https://app.prolific.com/","en-US,en;q=0.9","6712e63698e4785e4b2cf0a9","67949641171f97c04e14fb34","679c248dd875a65d721d3604","","null","<img  src='G_1.jpg' height='90'> <img   src='G_5.jpg' height='90'> <img   src='G_7.jpg' height='90'> <img   src='G_3.jpg' height='90'> <img  src='G_9.jpg' height='90'>","null","Animation0",""
"","","","","","html-keyboard-response","45","2336226","0.0-24.0","70","1","2025-01-31 01:42:03","af8d355d56820e421d246a7037deb6e6","207.230.114.234","Mozilla/5.0 (Windows NT 10.0; Win64; x64) AppleWebKit/537.36 (KHTML, like Gecko) Chrome/132.0.0.0 Safari/537.36","WebKit","Chrome","132.0.0.0","Windows","10.0","https://app.prolific.com/","en-US,en;q=0.9","6712e63698e4785e4b2cf0a9","67949641171f97c04e14fb34","679c248dd875a65d721d3604","","1422296","[""Did you notice any patterns? <br><br>Press Enter to watch that example again and follow the steps of Omgne Sort.""]","enter","",""
"","","","","","html-button-response","46","2336644","0.0-25.0","70","1","2025-01-31 01:42:03","af8d355d56820e421d246a7037deb6e6","207.230.114.234","Mozilla/5.0 (Windows NT 10.0; Win64; x64) AppleWebKit/537.36 (KHTML, like Gecko) Chrome/132.0.0.0 Safari/537.36","WebKit","Chrome","132.0.0.0","Windows","10.0","https://app.prolific.com/","en-US,en;q=0.9","6712e63698e4785e4b2cf0a9","67949641171f97c04e14fb34","679c248dd875a65d721d3604","","null","<img id='selected' src='G_5.jpg' height='90'> <img src='G_1.jpg' height='90'> <img src='G_7.jpg' height='90'> <img src='G_3.jpg' height='90'> <img src='G_9.jpg' height='90'>","null","Learning example 0",""
"","","","","","html-button-response","47","2336952","0.0-26.0","70","1","2025-01-31 01:42:03","af8d355d56820e421d246a7037deb6e6","207.230.114.234","Mozilla/5.0 (Windows NT 10.0; Win64; x64) AppleWebKit/537.36 (KHTML, like Gecko) Chrome/132.0.0.0 Safari/537.36","WebKit","Chrome","132.0.0.0","Windows","10.0","https://app.prolific.com/","en-US,en;q=0.9","6712e63698e4785e4b2cf0a9","67949641171f97c04e14fb34","679c248dd875a65d721d3604","","null","<img id='selected' src='G_5.jpg' height='90'> <img id='selected' src='G_1.jpg' height='90'> <img src='G_7.jpg' height='90'> <img src='G_3.jpg' height='90'> <img src='G_9.jpg' height='90'>","null","Learning example 0",""
"","","","","","html-button-response","48","2337266","0.0-27.0","70","1","2025-01-31 01:42:03","af8d355d56820e421d246a7037deb6e6","207.230.114.234","Mozilla/5.0 (Windows NT 10.0; Win64; x64) AppleWebKit/537.36 (KHTML, like Gecko) Chrome/132.0.0.0 Safari/537.36","WebKit","Chrome","132.0.0.0","Windows","10.0","https://app.prolific.com/","en-US,en;q=0.9","6712e63698e4785e4b2cf0a9","67949641171f97c04e14fb34","679c248dd875a65d721d3604","","null","<img id='swapped' src='G_1.jpg' height='90'> <img id='swapped' src='G_5.jpg' height='90'> <img src='G_7.jpg' height='90'> <img src='G_3.jpg' height='90'> <img src='G_9.jpg' height='90'>","null","Learning example 0",""
"","","","","","html-button-response","49","2339069","0.0-28.0-0.0-0.0","70","1","2025-01-31 01:42:03","af8d355d56820e421d246a7037deb6e6","207.230.114.234","Mozilla/5.0 (Windows NT 10.0; Win64; x64) AppleWebKit/537.36 (KHTML, like Gecko) Chrome/132.0.0.0 Safari/537.36","WebKit","Chrome","132.0.0.0","Windows","10.0","https://app.prolific.com/","en-US,en;q=0.9","6712e63698e4785e4b2cf0a9","67949641171f97c04e14fb34","679c248dd875a65d721d3604","","1795","<img id='swapped' src='G_1.jpg' height='90'> <img id='swapped' src='G_5.jpg' height='90'> <img src='G_7.jpg' height='90'> <img src='G_3.jpg' height='90'> <img src='G_9.jpg' height='90'>","1","Learning example 0",""
"","","","","","html-button-response","50","2339273","0.0-28.1-0.1-0.1","70","1","2025-01-31 01:42:03","af8d355d56820e421d246a7037deb6e6","207.230.114.234","Mozilla/5.0 (Windows NT 10.0; Win64; x64) AppleWebKit/537.36 (KHTML, like Gecko) Chrome/132.0.0.0 Safari/537.36","WebKit","Chrome","132.0.0.0","Windows","10.0","https://app.prolific.com/","en-US,en;q=0.9","6712e63698e4785e4b2cf0a9","67949641171f97c04e14fb34","679c248dd875a65d721d3604","","197","<img id='swapped' src='G_1.jpg' height='90'> <img id='swapped' src='G_5.jpg' height='90'> <img src='G_7.jpg' height='90'> <img src='G_3.jpg' height='90'> <img src='G_9.jpg' height='90'>","0","Learning example 0",""
"","","","","","html-button-response","51","2339497","0.0-29.0","70","1","2025-01-31 01:42:03","af8d355d56820e421d246a7037deb6e6","207.230.114.234","Mozilla/5.0 (Windows NT 10.0; Win64; x64) AppleWebKit/537.36 (KHTML, like Gecko) Chrome/132.0.0.0 Safari/537.36","WebKit","Chrome","132.0.0.0","Windows","10.0","https://app.prolific.com/","en-US,en;q=0.9","6712e63698e4785e4b2cf0a9","67949641171f97c04e14fb34","679c248dd875a65d721d3604","","null","<img  src='G_1.jpg' height='90'> <img  src='G_5.jpg' height='90'> <img src='G_7.jpg' height='90'> <img src='G_3.jpg' height='90'> <img src='G_9.jpg' height='90'>","null","Learning example 0",""
"","","","","","html-button-response","52","2339911","0.0-30.0","70","1","2025-01-31 01:42:03","af8d355d56820e421d246a7037deb6e6","207.230.114.234","Mozilla/5.0 (Windows NT 10.0; Win64; x64) AppleWebKit/537.36 (KHTML, like Gecko) Chrome/132.0.0.0 Safari/537.36","WebKit","Chrome","132.0.0.0","Windows","10.0","https://app.prolific.com/","en-US,en;q=0.9","6712e63698e4785e4b2cf0a9","67949641171f97c04e14fb34","679c248dd875a65d721d3604","","null","<img  src='G_1.jpg' height='90'> <img id='selected'  src='G_5.jpg' height='90'> <img src='G_7.jpg' height='90'> <img src='G_3.jpg' height='90'> <img src='G_9.jpg' height='90'>","null","Learning example 0",""
"","","","","","html-button-response","53","2340233","0.0-31.0","70","1","2025-01-31 01:42:03","af8d355d56820e421d246a7037deb6e6","207.230.114.234","Mozilla/5.0 (Windows NT 10.0; Win64; x64) AppleWebKit/537.36 (KHTML, like Gecko) Chrome/132.0.0.0 Safari/537.36","WebKit","Chrome","132.0.0.0","Windows","10.0","https://app.prolific.com/","en-US,en;q=0.9","6712e63698e4785e4b2cf0a9","67949641171f97c04e14fb34","679c248dd875a65d721d3604","","null","<img  src='G_1.jpg' height='90'> <img id='selected'  src='G_5.jpg' height='90'> <img id='selected' src='G_7.jpg' height='90'> <img src='G_3.jpg' height='90'> <img src='G_9.jpg' height='90'>","null","Learning example 0",""
"","","","","","html-button-response","54","2340548","0.0-32.0","70","1","2025-01-31 01:42:03","af8d355d56820e421d246a7037deb6e6","207.230.114.234","Mozilla/5.0 (Windows NT 10.0; Win64; x64) AppleWebKit/537.36 (KHTML, like Gecko) Chrome/132.0.0.0 Safari/537.36","WebKit","Chrome","132.0.0.0","Windows","10.0","https://app.prolific.com/","en-US,en;q=0.9","6712e63698e4785e4b2cf0a9","67949641171f97c04e14fb34","679c248dd875a65d721d3604","","null","<img  src='G_1.jpg' height='90'> <img id='selected'  src='G_5.jpg' height='90'> <img id='selected' src='G_7.jpg' height='90'> <img src='G_3.jpg' height='90'> <img src='G_9.jpg' height='90'>","null","Learning example 0",""
"","","","","","html-button-response","55","2340576","0.0-33.0-0.0-0.0","70","1","2025-01-31 01:42:03","af8d355d56820e421d246a7037deb6e6","207.230.114.234","Mozilla/5.0 (Windows NT 10.0; Win64; x64) AppleWebKit/537.36 (KHTML, like Gecko) Chrome/132.0.0.0 Safari/537.36","WebKit","Chrome","132.0.0.0","Windows","10.0","https://app.prolific.com/","en-US,en;q=0.9","6712e63698e4785e4b2cf0a9","67949641171f97c04e14fb34","679c248dd875a65d721d3604","","22","<img  src='G_1.jpg' height='90'> <img id='selected'  src='G_5.jpg' height='90'> <img id='selected' src='G_7.jpg' height='90'> <img src='G_3.jpg' height='90'> <img src='G_9.jpg' height='90'>","2","Learning example 0",""
"","","","","","html-button-response","56","2340772","0.0-33.1-0.1-0.1","70","1","2025-01-31 01:42:03","af8d355d56820e421d246a7037deb6e6","207.230.114.234","Mozilla/5.0 (Windows NT 10.0; Win64; x64) AppleWebKit/537.36 (KHTML, like Gecko) Chrome/132.0.0.0 Safari/537.36","WebKit","Chrome","132.0.0.0","Windows","10.0","https://app.prolific.com/","en-US,en;q=0.9","6712e63698e4785e4b2cf0a9","67949641171f97c04e14fb34","679c248dd875a65d721d3604","","192","<img  src='G_1.jpg' height='90'> <img id='selected'  src='G_5.jpg' height='90'> <img id='selected' src='G_7.jpg' height='90'> <img src='G_3.jpg' height='90'> <img src='G_9.jpg' height='90'>","1","Learning example 0",""
"","","","","","html-button-response","57","2340980","0.0-34.0","70","1","2025-01-31 01:42:03","af8d355d56820e421d246a7037deb6e6","207.230.114.234","Mozilla/5.0 (Windows NT 10.0; Win64; x64) AppleWebKit/537.36 (KHTML, like Gecko) Chrome/132.0.0.0 Safari/537.36","WebKit","Chrome","132.0.0.0","Windows","10.0","https://app.prolific.com/","en-US,en;q=0.9","6712e63698e4785e4b2cf0a9","67949641171f97c04e14fb34","679c248dd875a65d721d3604","","null","<img  src='G_1.jpg' height='90'> <img   src='G_5.jpg' height='90'> <img  src='G_7.jpg' height='90'> <img src='G_3.jpg' height='90'> <img src='G_9.jpg' height='90'>","null","Learning example 0",""
"","","","","","html-button-response","58","2341387","0.0-35.0","70","1","2025-01-31 01:42:03","af8d355d56820e421d246a7037deb6e6","207.230.114.234","Mozilla/5.0 (Windows NT 10.0; Win64; x64) AppleWebKit/537.36 (KHTML, like Gecko) Chrome/132.0.0.0 Safari/537.36","WebKit","Chrome","132.0.0.0","Windows","10.0","https://app.prolific.com/","en-US,en;q=0.9","6712e63698e4785e4b2cf0a9","67949641171f97c04e14fb34","679c248dd875a65d721d3604","","null","<img  src='G_1.jpg' height='90'> <img   src='G_5.jpg' height='90'> <img id='selected'  src='G_7.jpg' height='90'> <img src='G_3.jpg' height='90'> <img src='G_9.jpg' height='90'>","null","Learning example 0",""
"","","","","","html-button-response","59","2341678","0.0-36.0","70","1","2025-01-31 01:42:03","af8d355d56820e421d246a7037deb6e6","207.230.114.234","Mozilla/5.0 (Windows NT 10.0; Win64; x64) AppleWebKit/537.36 (KHTML, like Gecko) Chrome/132.0.0.0 Safari/537.36","WebKit","Chrome","132.0.0.0","Windows","10.0","https://app.prolific.com/","en-US,en;q=0.9","6712e63698e4785e4b2cf0a9","67949641171f97c04e14fb34","679c248dd875a65d721d3604","","286","<img  src='G_1.jpg' height='90'> <img   src='G_5.jpg' height='90'> <img id='selected'  src='G_7.jpg' height='90'> <img id='selected' src='G_3.jpg' height='90'> <img src='G_9.jpg' height='90'>","3","Learning example 0",""
"","","","","","html-button-response","60","2341902","0.0-37.0","70","1","2025-01-31 01:42:03","af8d355d56820e421d246a7037deb6e6","207.230.114.234","Mozilla/5.0 (Windows NT 10.0; Win64; x64) AppleWebKit/537.36 (KHTML, like Gecko) Chrome/132.0.0.0 Safari/537.36","WebKit","Chrome","132.0.0.0","Windows","10.0","https://app.prolific.com/","en-US,en;q=0.9","6712e63698e4785e4b2cf0a9","67949641171f97c04e14fb34","679c248dd875a65d721d3604","","218","<img  src='G_1.jpg' height='90'> <img   src='G_5.jpg' height='90'> <img id='selected'  src='G_7.jpg' height='90'> <img id='selected' src='G_3.jpg' height='90'> <img src='G_9.jpg' height='90'>","2","Learning example 0",""
"","","","","","html-button-response","61","2342754","0.0-38.0-0.0-0.0","70","1","2025-01-31 01:42:03","af8d355d56820e421d246a7037deb6e6","207.230.114.234","Mozilla/5.0 (Windows NT 10.0; Win64; x64) AppleWebKit/537.36 (KHTML, like Gecko) Chrome/132.0.0.0 Safari/537.36","WebKit","Chrome","132.0.0.0","Windows","10.0","https://app.prolific.com/","en-US,en;q=0.9","6712e63698e4785e4b2cf0a9","67949641171f97c04e14fb34","679c248dd875a65d721d3604","","845","<img  src='G_1.jpg' height='90'> <img   src='G_5.jpg' height='90'> <img id='selected'  src='G_7.jpg' height='90'> <img id='selected' src='G_3.jpg' height='90'> <img src='G_9.jpg' height='90'>","3","Learning example 0",""
"","","","","","html-button-response","62","2342966","0.0-39.0","70","1","2025-01-31 01:42:03","af8d355d56820e421d246a7037deb6e6","207.230.114.234","Mozilla/5.0 (Windows NT 10.0; Win64; x64) AppleWebKit/537.36 (KHTML, like Gecko) Chrome/132.0.0.0 Safari/537.36","WebKit","Chrome","132.0.0.0","Windows","10.0","https://app.prolific.com/","en-US,en;q=0.9","6712e63698e4785e4b2cf0a9","67949641171f97c04e14fb34","679c248dd875a65d721d3604","","null","<img  src='G_1.jpg' height='90'> <img   src='G_5.jpg' height='90'> <img   src='G_7.jpg' height='90'> <img  src='G_3.jpg' height='90'> <img src='G_9.jpg' height='90'>","null","Learning example 0",""
"","","","","","html-button-response","63","2342972","0.0-40.0","70","1","2025-01-31 01:42:03","af8d355d56820e421d246a7037deb6e6","207.230.114.234","Mozilla/5.0 (Windows NT 10.0; Win64; x64) AppleWebKit/537.36 (KHTML, like Gecko) Chrome/132.0.0.0 Safari/537.36","WebKit","Chrome","132.0.0.0","Windows","10.0","https://app.prolific.com/","en-US,en;q=0.9","6712e63698e4785e4b2cf0a9","67949641171f97c04e14fb34","679c248dd875a65d721d3604","","3","<img  src='G_1.jpg' height='90'> <img   src='G_5.jpg' height='90'> <img   src='G_7.jpg' height='90'> <img id='selected'  src='G_3.jpg' height='90'> <img src='G_9.jpg' height='90'>","4","Learning example 0",""
"","","","","","html-button-response","64","2343276","0.0-41.0","70","1","2025-01-31 01:42:03","af8d355d56820e421d246a7037deb6e6","207.230.114.234","Mozilla/5.0 (Windows NT 10.0; Win64; x64) AppleWebKit/537.36 (KHTML, like Gecko) Chrome/132.0.0.0 Safari/537.36","WebKit","Chrome","132.0.0.0","Windows","10.0","https://app.prolific.com/","en-US,en;q=0.9","6712e63698e4785e4b2cf0a9","67949641171f97c04e14fb34","679c248dd875a65d721d3604","","null","<img  src='G_1.jpg' height='90'> <img   src='G_5.jpg' height='90'> <img   src='G_7.jpg' height='90'> <img id='selected'  src='G_3.jpg' height='90'> <img id='selected' src='G_9.jpg' height='90'>","null","Learning example 0",""
"","","","","","html-button-response","65","2343595","0.0-42.0","70","1","2025-01-31 01:42:03","af8d355d56820e421d246a7037deb6e6","207.230.114.234","Mozilla/5.0 (Windows NT 10.0; Win64; x64) AppleWebKit/537.36 (KHTML, like Gecko) Chrome/132.0.0.0 Safari/537.36","WebKit","Chrome","132.0.0.0","Windows","10.0","https://app.prolific.com/","en-US,en;q=0.9","6712e63698e4785e4b2cf0a9","67949641171f97c04e14fb34","679c248dd875a65d721d3604","","null","<img  src='G_1.jpg' height='90'> <img   src='G_5.jpg' height='90'> <img   src='G_7.jpg' height='90'> <img id='selected'  src='G_3.jpg' height='90'> <img id='selected' src='G_9.jpg' height='90'>","null","Learning example 0",""
"","","","","","html-button-response","66","2343821","0.0-43.0-0.0-0.0","70","1","2025-01-31 01:42:03","af8d355d56820e421d246a7037deb6e6","207.230.114.234","Mozilla/5.0 (Windows NT 10.0; Win64; x64) AppleWebKit/537.36 (KHTML, like Gecko) Chrome/132.0.0.0 Safari/537.36","WebKit","Chrome","132.0.0.0","Windows","10.0","https://app.prolific.com/","en-US,en;q=0.9","6712e63698e4785e4b2cf0a9","67949641171f97c04e14fb34","679c248dd875a65d721d3604","","219","<img  src='G_1.jpg' height='90'> <img   src='G_5.jpg' height='90'> <img   src='G_7.jpg' height='90'> <img id='selected'  src='G_3.jpg' height='90'> <img id='selected' src='G_9.jpg' height='90'>","4","Learning example 0",""
"","","","","","html-button-response","67","2344136","0.0-43.1-0.1-0.1","70","1","2025-01-31 01:42:03","af8d355d56820e421d246a7037deb6e6","207.230.114.234","Mozilla/5.0 (Windows NT 10.0; Win64; x64) AppleWebKit/537.36 (KHTML, like Gecko) Chrome/132.0.0.0 Safari/537.36","WebKit","Chrome","132.0.0.0","Windows","10.0","https://app.prolific.com/","en-US,en;q=0.9","6712e63698e4785e4b2cf0a9","67949641171f97c04e14fb34","679c248dd875a65d721d3604","","308","<img  src='G_1.jpg' height='90'> <img   src='G_5.jpg' height='90'> <img   src='G_7.jpg' height='90'> <img id='selected'  src='G_3.jpg' height='90'> <img id='selected' src='G_9.jpg' height='90'>","3","Learning example 0",""
"","","","","","html-button-response","68","2344358","0.0-44.0","70","1","2025-01-31 01:42:03","af8d355d56820e421d246a7037deb6e6","207.230.114.234","Mozilla/5.0 (Windows NT 10.0; Win64; x64) AppleWebKit/537.36 (KHTML, like Gecko) Chrome/132.0.0.0 Safari/537.36","WebKit","Chrome","132.0.0.0","Windows","10.0","https://app.prolific.com/","en-US,en;q=0.9","6712e63698e4785e4b2cf0a9","67949641171f97c04e14fb34","679c248dd875a65d721d3604","","null","<img  src='G_1.jpg' height='90'> <img   src='G_5.jpg' height='90'> <img   src='G_7.jpg' height='90'> <img   src='G_3.jpg' height='90'> <img  src='G_9.jpg' height='90'>","null","Learning example 0",""
"","","","","","html-keyboard-response","69","2345844","0.0-45.0","70","1","2025-01-31 01:42:03","af8d355d56820e421d246a7037deb6e6","207.230.114.234","Mozilla/5.0 (Windows NT 10.0; Win64; x64) AppleWebKit/537.36 (KHTML, like Gecko) Chrome/132.0.0.0 Safari/537.36","WebKit","Chrome","132.0.0.0","Windows","10.0","https://app.prolific.com/","en-US,en;q=0.9","6712e63698e4785e4b2cf0a9","67949641171f97c04e14fb34","679c248dd875a65d721d3604","","1481","[""Final order was 1,2,3,4,5. The initial order was 2,1,3,4,5.<br>It took 1 swaps to sort it correctly with Omgne Sort. <br><br>Press Enter to continue.""]","enter","",""
"","","","","","html-keyboard-response","70","2346980","0.0-46.0","70","1","2025-01-31 01:42:03","af8d355d56820e421d246a7037deb6e6","207.230.114.234","Mozilla/5.0 (Windows NT 10.0; Win64; x64) AppleWebKit/537.36 (KHTML, like Gecko) Chrome/132.0.0.0 Safari/537.36","WebKit","Chrome","132.0.0.0","Windows","10.0","https://app.prolific.com/","en-US,en;q=0.9","6712e63698e4785e4b2cf0a9","67949641171f97c04e14fb34","679c248dd875a65d721d3604","","1130","[""Example 2<br><br>You will watch Omnge Sort in action. Try to identify any patterns in the comparisons made by this method. <br><br>Press Enter to continue.""]","enter","",""
"","","","","","html-keyboard-response","71","2347493","0.0-47.0","70","1","2025-01-31 01:42:03","af8d355d56820e421d246a7037deb6e6","207.230.114.234","Mozilla/5.0 (Windows NT 10.0; Win64; x64) AppleWebKit/537.36 (KHTML, like Gecko) Chrome/132.0.0.0 Safari/537.36","WebKit","Chrome","132.0.0.0","Windows","10.0","https://app.prolific.com/","en-US,en;q=0.9","6712e63698e4785e4b2cf0a9","67949641171f97c04e14fb34","679c248dd875a65d721d3604","","null","<img id='selected' src='G_8.jpg' height='90'> <img src='G_2.jpg' height='90'> <img src='G_3.jpg' height='90'> <img src='G_1.jpg' height='90'> <img src='G_4.jpg' height='90'> <img src='G_5.jpg' height='90'> <img src='G_7.jpg' height='90'> <img src='G_6.jpg' height='90'>","null","Animation1",""
"","","","","","html-keyboard-response","72","2348001","0.0-48.0","70","1","2025-01-31 01:42:03","af8d355d56820e421d246a7037deb6e6","207.230.114.234","Mozilla/5.0 (Windows NT 10.0; Win64; x64) AppleWebKit/537.36 (KHTML, like Gecko) Chrome/132.0.0.0 Safari/537.36","WebKit","Chrome","132.0.0.0","Windows","10.0","https://app.prolific.com/","en-US,en;q=0.9","6712e63698e4785e4b2cf0a9","67949641171f97c04e14fb34","679c248dd875a65d721d3604","","null","<img id='selected' src='G_8.jpg' height='90'> <img id='selected' src='G_2.jpg' height='90'> <img src='G_3.jpg' height='90'> <img src='G_1.jpg' height='90'> <img src='G_4.jpg' height='90'> <img src='G_5.jpg' height='90'> <img src='G_7.jpg' height='90'> <img src='G_6.jpg' height='90'>","null","Animation1",""
"","","","","","html-keyboard-response","73","2348519","0.0-49.0","70","1","2025-01-31 01:42:03","af8d355d56820e421d246a7037deb6e6","207.230.114.234","Mozilla/5.0 (Windows NT 10.0; Win64; x64) AppleWebKit/537.36 (KHTML, like Gecko) Chrome/132.0.0.0 Safari/537.36","WebKit","Chrome","132.0.0.0","Windows","10.0","https://app.prolific.com/","en-US,en;q=0.9","6712e63698e4785e4b2cf0a9","67949641171f97c04e14fb34","679c248dd875a65d721d3604","","null","<img id='selected' src='G_8.jpg' height='90'> <img id='selected' src='G_2.jpg' height='90'> <img src='G_3.jpg' height='90'> <img src='G_1.jpg' height='90'> <img src='G_4.jpg' height='90'> <img src='G_5.jpg' height='90'> <img src='G_7.jpg' height='90'> <img src='G_6.jpg' height='90'>","null","Animation1",""
"","","","","","html-keyboard-response","74","2348836","0.0-50.0","70","1","2025-01-31 01:42:03","af8d355d56820e421d246a7037deb6e6","207.230.114.234","Mozilla/5.0 (Windows NT 10.0; Win64; x64) AppleWebKit/537.36 (KHTML, like Gecko) Chrome/132.0.0.0 Safari/537.36","WebKit","Chrome","132.0.0.0","Windows","10.0","https://app.prolific.com/","en-US,en;q=0.9","6712e63698e4785e4b2cf0a9","67949641171f97c04e14fb34","679c248dd875a65d721d3604","","null","<img  src='G_8.jpg' height='90'> <img  src='G_2.jpg' height='90'> <img src='G_3.jpg' height='90'> <img src='G_1.jpg' height='90'> <img src='G_4.jpg' height='90'> <img src='G_5.jpg' height='90'> <img src='G_7.jpg' height='90'> <img src='G_6.jpg' height='90'>","null","Animation1",""
"","","","","","html-keyboard-response","75","2349352","0.0-51.0","70","1","2025-01-31 01:42:03","af8d355d56820e421d246a7037deb6e6","207.230.114.234","Mozilla/5.0 (Windows NT 10.0; Win64; x64) AppleWebKit/537.36 (KHTML, like Gecko) Chrome/132.0.0.0 Safari/537.36","WebKit","Chrome","132.0.0.0","Windows","10.0","https://app.prolific.com/","en-US,en;q=0.9","6712e63698e4785e4b2cf0a9","67949641171f97c04e14fb34","679c248dd875a65d721d3604","","null","<img  src='G_8.jpg' height='90'> <img id='selected'  src='G_2.jpg' height='90'> <img src='G_3.jpg' height='90'> <img src='G_1.jpg' height='90'> <img src='G_4.jpg' height='90'> <img src='G_5.jpg' height='90'> <img src='G_7.jpg' height='90'> <img src='G_6.jpg' height='90'>","null","Animation1",""
"","","","","","html-keyboard-response","76","2349867","0.0-52.0","70","1","2025-01-31 01:42:03","af8d355d56820e421d246a7037deb6e6","207.230.114.234","Mozilla/5.0 (Windows NT 10.0; Win64; x64) AppleWebKit/537.36 (KHTML, like Gecko) Chrome/132.0.0.0 Safari/537.36","WebKit","Chrome","132.0.0.0","Windows","10.0","https://app.prolific.com/","en-US,en;q=0.9","6712e63698e4785e4b2cf0a9","67949641171f97c04e14fb34","679c248dd875a65d721d3604","","null","<img  src='G_8.jpg' height='90'> <img id='selected'  src='G_2.jpg' height='90'> <img id='selected' src='G_3.jpg' height='90'> <img src='G_1.jpg' height='90'> <img src='G_4.jpg' height='90'> <img src='G_5.jpg' height='90'> <img src='G_7.jpg' height='90'> <img src='G_6.jpg' height='90'>","null","Animation1",""
"","","","","","html-keyboard-response","77","2350375","0.0-53.0","70","1","2025-01-31 01:42:03","af8d355d56820e421d246a7037deb6e6","207.230.114.234","Mozilla/5.0 (Windows NT 10.0; Win64; x64) AppleWebKit/537.36 (KHTML, like Gecko) Chrome/132.0.0.0 Safari/537.36","WebKit","Chrome","132.0.0.0","Windows","10.0","https://app.prolific.com/","en-US,en;q=0.9","6712e63698e4785e4b2cf0a9","67949641171f97c04e14fb34","679c248dd875a65d721d3604","","null","<img  src='G_8.jpg' height='90'> <img id='swapped' src='G_3.jpg' height='90'> <img id='swapped'  src='G_2.jpg' height='90'> <img src='G_1.jpg' height='90'> <img src='G_4.jpg' height='90'> <img src='G_5.jpg' height='90'> <img src='G_7.jpg' height='90'> <img src='G_6.jpg' height='90'>","null","Animation1",""
"","","","","","html-keyboard-response","78","2350696","0.0-54.0","70","1","2025-01-31 01:42:03","af8d355d56820e421d246a7037deb6e6","207.230.114.234","Mozilla/5.0 (Windows NT 10.0; Win64; x64) AppleWebKit/537.36 (KHTML, like Gecko) Chrome/132.0.0.0 Safari/537.36","WebKit","Chrome","132.0.0.0","Windows","10.0","https://app.prolific.com/","en-US,en;q=0.9","6712e63698e4785e4b2cf0a9","67949641171f97c04e14fb34","679c248dd875a65d721d3604","","null","<img  src='G_8.jpg' height='90'> <img  src='G_3.jpg' height='90'> <img   src='G_2.jpg' height='90'> <img src='G_1.jpg' height='90'> <img src='G_4.jpg' height='90'> <img src='G_5.jpg' height='90'> <img src='G_7.jpg' height='90'> <img src='G_6.jpg' height='90'>","null","Animation1",""
"","","","","","html-keyboard-response","79","2351206","0.0-55.0","70","1","2025-01-31 01:42:03","af8d355d56820e421d246a7037deb6e6","207.230.114.234","Mozilla/5.0 (Windows NT 10.0; Win64; x64) AppleWebKit/537.36 (KHTML, like Gecko) Chrome/132.0.0.0 Safari/537.36","WebKit","Chrome","132.0.0.0","Windows","10.0","https://app.prolific.com/","en-US,en;q=0.9","6712e63698e4785e4b2cf0a9","67949641171f97c04e14fb34","679c248dd875a65d721d3604","","null","<img id='selected'  src='G_8.jpg' height='90'> <img  src='G_3.jpg' height='90'> <img   src='G_2.jpg' height='90'> <img src='G_1.jpg' height='90'> <img src='G_4.jpg' height='90'> <img src='G_5.jpg' height='90'> <img src='G_7.jpg' height='90'> <img src='G_6.jpg' height='90'>","null","Animation1",""
"","","","","","html-keyboard-response","80","2351720","0.0-56.0","70","1","2025-01-31 01:42:03","af8d355d56820e421d246a7037deb6e6","207.230.114.234","Mozilla/5.0 (Windows NT 10.0; Win64; x64) AppleWebKit/537.36 (KHTML, like Gecko) Chrome/132.0.0.0 Safari/537.36","WebKit","Chrome","132.0.0.0","Windows","10.0","https://app.prolific.com/","en-US,en;q=0.9","6712e63698e4785e4b2cf0a9","67949641171f97c04e14fb34","679c248dd875a65d721d3604","","null","<img id='selected'  src='G_8.jpg' height='90'> <img id='selected'  src='G_3.jpg' height='90'> <img   src='G_2.jpg' height='90'> <img src='G_1.jpg' height='90'> <img src='G_4.jpg' height='90'> <img src='G_5.jpg' height='90'> <img src='G_7.jpg' height='90'> <img src='G_6.jpg' height='90'>","null","Animation1",""
"","","","","","html-keyboard-response","81","2352229","0.0-57.0","70","1","2025-01-31 01:42:03","af8d355d56820e421d246a7037deb6e6","207.230.114.234","Mozilla/5.0 (Windows NT 10.0; Win64; x64) AppleWebKit/537.36 (KHTML, like Gecko) Chrome/132.0.0.0 Safari/537.36","WebKit","Chrome","132.0.0.0","Windows","10.0","https://app.prolific.com/","en-US,en;q=0.9","6712e63698e4785e4b2cf0a9","67949641171f97c04e14fb34","679c248dd875a65d721d3604","","null","<img id='swapped'  src='G_3.jpg' height='90'> <img id='swapped'  src='G_8.jpg' height='90'> <img   src='G_2.jpg' height='90'> <img src='G_1.jpg' height='90'> <img src='G_4.jpg' height='90'> <img src='G_5.jpg' height='90'> <img src='G_7.jpg' height='90'> <img src='G_6.jpg' height='90'>","null","Animation1",""
"","","","","","html-keyboard-response","82","2352547","0.0-58.0","70","1","2025-01-31 01:42:03","af8d355d56820e421d246a7037deb6e6","207.230.114.234","Mozilla/5.0 (Windows NT 10.0; Win64; x64) AppleWebKit/537.36 (KHTML, like Gecko) Chrome/132.0.0.0 Safari/537.36","WebKit","Chrome","132.0.0.0","Windows","10.0","https://app.prolific.com/","en-US,en;q=0.9","6712e63698e4785e4b2cf0a9","67949641171f97c04e14fb34","679c248dd875a65d721d3604","","null","<img   src='G_3.jpg' height='90'> <img   src='G_8.jpg' height='90'> <img   src='G_2.jpg' height='90'> <img src='G_1.jpg' height='90'> <img src='G_4.jpg' height='90'> <img src='G_5.jpg' height='90'> <img src='G_7.jpg' height='90'> <img src='G_6.jpg' height='90'>","null","Animation1",""
"","","","","","html-keyboard-response","83","2353054","0.0-59.0","70","1","2025-01-31 01:42:03","af8d355d56820e421d246a7037deb6e6","207.230.114.234","Mozilla/5.0 (Windows NT 10.0; Win64; x64) AppleWebKit/537.36 (KHTML, like Gecko) Chrome/132.0.0.0 Safari/537.36","WebKit","Chrome","132.0.0.0","Windows","10.0","https://app.prolific.com/","en-US,en;q=0.9","6712e63698e4785e4b2cf0a9","67949641171f97c04e14fb34","679c248dd875a65d721d3604","","null","<img   src='G_3.jpg' height='90'> <img   src='G_8.jpg' height='90'> <img id='selected'   src='G_2.jpg' height='90'> <img src='G_1.jpg' height='90'> <img src='G_4.jpg' height='90'> <img src='G_5.jpg' height='90'> <img src='G_7.jpg' height='90'> <img src='G_6.jpg' height='90'>","null","Animation1",""
"","","","","","html-keyboard-response","84","2353563","0.0-60.0","70","1","2025-01-31 01:42:03","af8d355d56820e421d246a7037deb6e6","207.230.114.234","Mozilla/5.0 (Windows NT 10.0; Win64; x64) AppleWebKit/537.36 (KHTML, like Gecko) Chrome/132.0.0.0 Safari/537.36","WebKit","Chrome","132.0.0.0","Windows","10.0","https://app.prolific.com/","en-US,en;q=0.9","6712e63698e4785e4b2cf0a9","67949641171f97c04e14fb34","679c248dd875a65d721d3604","","null","<img   src='G_3.jpg' height='90'> <img   src='G_8.jpg' height='90'> <img id='selected'   src='G_2.jpg' height='90'> <img id='selected' src='G_1.jpg' height='90'> <img src='G_4.jpg' height='90'> <img src='G_5.jpg' height='90'> <img src='G_7.jpg' height='90'> <img src='G_6.jpg' height='90'>","null","Animation1",""
"","","","","","html-keyboard-response","85","2354072","0.0-61.0","70","1","2025-01-31 01:42:03","af8d355d56820e421d246a7037deb6e6","207.230.114.234","Mozilla/5.0 (Windows NT 10.0; Win64; x64) AppleWebKit/537.36 (KHTML, like Gecko) Chrome/132.0.0.0 Safari/537.36","WebKit","Chrome","132.0.0.0","Windows","10.0","https://app.prolific.com/","en-US,en;q=0.9","6712e63698e4785e4b2cf0a9","67949641171f97c04e14fb34","679c248dd875a65d721d3604","","null","<img   src='G_3.jpg' height='90'> <img   src='G_8.jpg' height='90'> <img id='swapped' src='G_1.jpg' height='90'> <img id='swapped'   src='G_2.jpg' height='90'> <img src='G_4.jpg' height='90'> <img src='G_5.jpg' height='90'> <img src='G_7.jpg' height='90'> <img src='G_6.jpg' height='90'>","null","Animation1",""
"","","","","","html-keyboard-response","86","2354382","0.0-62.0","70","1","2025-01-31 01:42:03","af8d355d56820e421d246a7037deb6e6","207.230.114.234","Mozilla/5.0 (Windows NT 10.0; Win64; x64) AppleWebKit/537.36 (KHTML, like Gecko) Chrome/132.0.0.0 Safari/537.36","WebKit","Chrome","132.0.0.0","Windows","10.0","https://app.prolific.com/","en-US,en;q=0.9","6712e63698e4785e4b2cf0a9","67949641171f97c04e14fb34","679c248dd875a65d721d3604","","null","<img   src='G_3.jpg' height='90'> <img   src='G_8.jpg' height='90'> <img  src='G_1.jpg' height='90'> <img    src='G_2.jpg' height='90'> <img src='G_4.jpg' height='90'> <img src='G_5.jpg' height='90'> <img src='G_7.jpg' height='90'> <img src='G_6.jpg' height='90'>","null","Animation1",""
"","","","","","html-keyboard-response","87","2354903","0.0-63.0","70","1","2025-01-31 01:42:03","af8d355d56820e421d246a7037deb6e6","207.230.114.234","Mozilla/5.0 (Windows NT 10.0; Win64; x64) AppleWebKit/537.36 (KHTML, like Gecko) Chrome/132.0.0.0 Safari/537.36","WebKit","Chrome","132.0.0.0","Windows","10.0","https://app.prolific.com/","en-US,en;q=0.9","6712e63698e4785e4b2cf0a9","67949641171f97c04e14fb34","679c248dd875a65d721d3604","","null","<img   src='G_3.jpg' height='90'> <img id='selected'   src='G_8.jpg' height='90'> <img  src='G_1.jpg' height='90'> <img    src='G_2.jpg' height='90'> <img src='G_4.jpg' height='90'> <img src='G_5.jpg' height='90'> <img src='G_7.jpg' height='90'> <img src='G_6.jpg' height='90'>","null","Animation1",""
"","","","","","html-keyboard-response","88","2355415","0.0-64.0","70","1","2025-01-31 01:42:03","af8d355d56820e421d246a7037deb6e6","207.230.114.234","Mozilla/5.0 (Windows NT 10.0; Win64; x64) AppleWebKit/537.36 (KHTML, like Gecko) Chrome/132.0.0.0 Safari/537.36","WebKit","Chrome","132.0.0.0","Windows","10.0","https://app.prolific.com/","en-US,en;q=0.9","6712e63698e4785e4b2cf0a9","67949641171f97c04e14fb34","679c248dd875a65d721d3604","","null","<img   src='G_3.jpg' height='90'> <img id='selected'   src='G_8.jpg' height='90'> <img id='selected'  src='G_1.jpg' height='90'> <img    src='G_2.jpg' height='90'> <img src='G_4.jpg' height='90'> <img src='G_5.jpg' height='90'> <img src='G_7.jpg' height='90'> <img src='G_6.jpg' height='90'>","null","Animation1",""
"","","","","","html-keyboard-response","89","2355930","0.0-65.0","70","1","2025-01-31 01:42:03","af8d355d56820e421d246a7037deb6e6","207.230.114.234","Mozilla/5.0 (Windows NT 10.0; Win64; x64) AppleWebKit/537.36 (KHTML, like Gecko) Chrome/132.0.0.0 Safari/537.36","WebKit","Chrome","132.0.0.0","Windows","10.0","https://app.prolific.com/","en-US,en;q=0.9","6712e63698e4785e4b2cf0a9","67949641171f97c04e14fb34","679c248dd875a65d721d3604","","null","<img   src='G_3.jpg' height='90'> <img id='swapped'  src='G_1.jpg' height='90'> <img id='swapped'   src='G_8.jpg' height='90'> <img    src='G_2.jpg' height='90'> <img src='G_4.jpg' height='90'> <img src='G_5.jpg' height='90'> <img src='G_7.jpg' height='90'> <img src='G_6.jpg' height='90'>","null","Animation1",""
"","","","","","html-keyboard-response","90","2356247","0.0-66.0","70","1","2025-01-31 01:42:03","af8d355d56820e421d246a7037deb6e6","207.230.114.234","Mozilla/5.0 (Windows NT 10.0; Win64; x64) AppleWebKit/537.36 (KHTML, like Gecko) Chrome/132.0.0.0 Safari/537.36","WebKit","Chrome","132.0.0.0","Windows","10.0","https://app.prolific.com/","en-US,en;q=0.9","6712e63698e4785e4b2cf0a9","67949641171f97c04e14fb34","679c248dd875a65d721d3604","","null","<img   src='G_3.jpg' height='90'> <img   src='G_1.jpg' height='90'> <img    src='G_8.jpg' height='90'> <img    src='G_2.jpg' height='90'> <img src='G_4.jpg' height='90'> <img src='G_5.jpg' height='90'> <img src='G_7.jpg' height='90'> <img src='G_6.jpg' height='90'>","null","Animation1",""
"","","","","","html-keyboard-response","91","2356765","0.0-67.0","70","1","2025-01-31 01:42:03","af8d355d56820e421d246a7037deb6e6","207.230.114.234","Mozilla/5.0 (Windows NT 10.0; Win64; x64) AppleWebKit/537.36 (KHTML, like Gecko) Chrome/132.0.0.0 Safari/537.36","WebKit","Chrome","132.0.0.0","Windows","10.0","https://app.prolific.com/","en-US,en;q=0.9","6712e63698e4785e4b2cf0a9","67949641171f97c04e14fb34","679c248dd875a65d721d3604","","null","<img id='selected'   src='G_3.jpg' height='90'> <img   src='G_1.jpg' height='90'> <img    src='G_8.jpg' height='90'> <img    src='G_2.jpg' height='90'> <img src='G_4.jpg' height='90'> <img src='G_5.jpg' height='90'> <img src='G_7.jpg' height='90'> <img src='G_6.jpg' height='90'>","null","Animation1",""
"","","","","","html-keyboard-response","92","2357282","0.0-68.0","70","1","2025-01-31 01:42:03","af8d355d56820e421d246a7037deb6e6","207.230.114.234","Mozilla/5.0 (Windows NT 10.0; Win64; x64) AppleWebKit/537.36 (KHTML, like Gecko) Chrome/132.0.0.0 Safari/537.36","WebKit","Chrome","132.0.0.0","Windows","10.0","https://app.prolific.com/","en-US,en;q=0.9","6712e63698e4785e4b2cf0a9","67949641171f97c04e14fb34","679c248dd875a65d721d3604","","null","<img id='selected'   src='G_3.jpg' height='90'> <img id='selected'   src='G_1.jpg' height='90'> <img    src='G_8.jpg' height='90'> <img    src='G_2.jpg' height='90'> <img src='G_4.jpg' height='90'> <img src='G_5.jpg' height='90'> <img src='G_7.jpg' height='90'> <img src='G_6.jpg' height='90'>","null","Animation1",""
"","","","","","html-keyboard-response","93","2357802","0.0-69.0","70","1","2025-01-31 01:42:03","af8d355d56820e421d246a7037deb6e6","207.230.114.234","Mozilla/5.0 (Windows NT 10.0; Win64; x64) AppleWebKit/537.36 (KHTML, like Gecko) Chrome/132.0.0.0 Safari/537.36","WebKit","Chrome","132.0.0.0","Windows","10.0","https://app.prolific.com/","en-US,en;q=0.9","6712e63698e4785e4b2cf0a9","67949641171f97c04e14fb34","679c248dd875a65d721d3604","","null","<img id='swapped'   src='G_1.jpg' height='90'> <img id='swapped'   src='G_3.jpg' height='90'> <img    src='G_8.jpg' height='90'> <img    src='G_2.jpg' height='90'> <img src='G_4.jpg' height='90'> <img src='G_5.jpg' height='90'> <img src='G_7.jpg' height='90'> <img src='G_6.jpg' height='90'>","null","Animation1",""
"","","","","","html-keyboard-response","94","2358122","0.0-70.0","70","1","2025-01-31 01:42:03","af8d355d56820e421d246a7037deb6e6","207.230.114.234","Mozilla/5.0 (Windows NT 10.0; Win64; x64) AppleWebKit/537.36 (KHTML, like Gecko) Chrome/132.0.0.0 Safari/537.36","WebKit","Chrome","132.0.0.0","Windows","10.0","https://app.prolific.com/","en-US,en;q=0.9","6712e63698e4785e4b2cf0a9","67949641171f97c04e14fb34","679c248dd875a65d721d3604","","null","<img    src='G_1.jpg' height='90'> <img    src='G_3.jpg' height='90'> <img    src='G_8.jpg' height='90'> <img    src='G_2.jpg' height='90'> <img src='G_4.jpg' height='90'> <img src='G_5.jpg' height='90'> <img src='G_7.jpg' height='90'> <img src='G_6.jpg' height='90'>","null","Animation1",""
"","","","","","html-keyboard-response","95","2358640","0.0-71.0","70","1","2025-01-31 01:42:03","af8d355d56820e421d246a7037deb6e6","207.230.114.234","Mozilla/5.0 (Windows NT 10.0; Win64; x64) AppleWebKit/537.36 (KHTML, like Gecko) Chrome/132.0.0.0 Safari/537.36","WebKit","Chrome","132.0.0.0","Windows","10.0","https://app.prolific.com/","en-US,en;q=0.9","6712e63698e4785e4b2cf0a9","67949641171f97c04e14fb34","679c248dd875a65d721d3604","","null","<img    src='G_1.jpg' height='90'> <img    src='G_3.jpg' height='90'> <img    src='G_8.jpg' height='90'> <img id='selected'    src='G_2.jpg' height='90'> <img src='G_4.jpg' height='90'> <img src='G_5.jpg' height='90'> <img src='G_7.jpg' height='90'> <img src='G_6.jpg' height='90'>","null","Animation1",""
"","","","","","html-keyboard-response","96","2359148","0.0-72.0","70","1","2025-01-31 01:42:03","af8d355d56820e421d246a7037deb6e6","207.230.114.234","Mozilla/5.0 (Windows NT 10.0; Win64; x64) AppleWebKit/537.36 (KHTML, like Gecko) Chrome/132.0.0.0 Safari/537.36","WebKit","Chrome","132.0.0.0","Windows","10.0","https://app.prolific.com/","en-US,en;q=0.9","6712e63698e4785e4b2cf0a9","67949641171f97c04e14fb34","679c248dd875a65d721d3604","","null","<img    src='G_1.jpg' height='90'> <img    src='G_3.jpg' height='90'> <img    src='G_8.jpg' height='90'> <img id='selected'    src='G_2.jpg' height='90'> <img id='selected' src='G_4.jpg' height='90'> <img src='G_5.jpg' height='90'> <img src='G_7.jpg' height='90'> <img src='G_6.jpg' height='90'>","null","Animation1",""
"","","","","","html-keyboard-response","97","2359655","0.0-73.0","70","1","2025-01-31 01:42:03","af8d355d56820e421d246a7037deb6e6","207.230.114.234","Mozilla/5.0 (Windows NT 10.0; Win64; x64) AppleWebKit/537.36 (KHTML, like Gecko) Chrome/132.0.0.0 Safari/537.36","WebKit","Chrome","132.0.0.0","Windows","10.0","https://app.prolific.com/","en-US,en;q=0.9","6712e63698e4785e4b2cf0a9","67949641171f97c04e14fb34","679c248dd875a65d721d3604","","null","<img    src='G_1.jpg' height='90'> <img    src='G_3.jpg' height='90'> <img    src='G_8.jpg' height='90'> <img id='swapped' src='G_4.jpg' height='90'> <img id='swapped'    src='G_2.jpg' height='90'> <img src='G_5.jpg' height='90'> <img src='G_7.jpg' height='90'> <img src='G_6.jpg' height='90'>","null","Animation1",""
"","","","","","html-keyboard-response","98","2359977","0.0-74.0","70","1","2025-01-31 01:42:03","af8d355d56820e421d246a7037deb6e6","207.230.114.234","Mozilla/5.0 (Windows NT 10.0; Win64; x64) AppleWebKit/537.36 (KHTML, like Gecko) Chrome/132.0.0.0 Safari/537.36","WebKit","Chrome","132.0.0.0","Windows","10.0","https://app.prolific.com/","en-US,en;q=0.9","6712e63698e4785e4b2cf0a9","67949641171f97c04e14fb34","679c248dd875a65d721d3604","","null","<img    src='G_1.jpg' height='90'> <img    src='G_3.jpg' height='90'> <img    src='G_8.jpg' height='90'> <img  src='G_4.jpg' height='90'> <img     src='G_2.jpg' height='90'> <img src='G_5.jpg' height='90'> <img src='G_7.jpg' height='90'> <img src='G_6.jpg' height='90'>","null","Animation1",""
"","","","","","html-keyboard-response","99","2360486","0.0-75.0","70","1","2025-01-31 01:42:03","af8d355d56820e421d246a7037deb6e6","207.230.114.234","Mozilla/5.0 (Windows NT 10.0; Win64; x64) AppleWebKit/537.36 (KHTML, like Gecko) Chrome/132.0.0.0 Safari/537.36","WebKit","Chrome","132.0.0.0","Windows","10.0","https://app.prolific.com/","en-US,en;q=0.9","6712e63698e4785e4b2cf0a9","67949641171f97c04e14fb34","679c248dd875a65d721d3604","","null","<img    src='G_1.jpg' height='90'> <img    src='G_3.jpg' height='90'> <img id='selected'    src='G_8.jpg' height='90'> <img  src='G_4.jpg' height='90'> <img     src='G_2.jpg' height='90'> <img src='G_5.jpg' height='90'> <img src='G_7.jpg' height='90'> <img src='G_6.jpg' height='90'>","null","Animation1",""
"","","","","","html-keyboard-response","100","2361001","0.0-76.0","70","1","2025-01-31 01:42:03","af8d355d56820e421d246a7037deb6e6","207.230.114.234","Mozilla/5.0 (Windows NT 10.0; Win64; x64) AppleWebKit/537.36 (KHTML, like Gecko) Chrome/132.0.0.0 Safari/537.36","WebKit","Chrome","132.0.0.0","Windows","10.0","https://app.prolific.com/","en-US,en;q=0.9","6712e63698e4785e4b2cf0a9","67949641171f97c04e14fb34","679c248dd875a65d721d3604","","null","<img    src='G_1.jpg' height='90'> <img    src='G_3.jpg' height='90'> <img id='selected'    src='G_8.jpg' height='90'> <img id='selected'  src='G_4.jpg' height='90'> <img     src='G_2.jpg' height='90'> <img src='G_5.jpg' height='90'> <img src='G_7.jpg' height='90'> <img src='G_6.jpg' height='90'>","null","Animation1",""
"","","","","","html-keyboard-response","101","2361522","0.0-77.0","70","1","2025-01-31 01:42:03","af8d355d56820e421d246a7037deb6e6","207.230.114.234","Mozilla/5.0 (Windows NT 10.0; Win64; x64) AppleWebKit/537.36 (KHTML, like Gecko) Chrome/132.0.0.0 Safari/537.36","WebKit","Chrome","132.0.0.0","Windows","10.0","https://app.prolific.com/","en-US,en;q=0.9","6712e63698e4785e4b2cf0a9","67949641171f97c04e14fb34","679c248dd875a65d721d3604","","null","<img    src='G_1.jpg' height='90'> <img    src='G_3.jpg' height='90'> <img id='swapped'  src='G_4.jpg' height='90'> <img id='swapped'    src='G_8.jpg' height='90'> <img     src='G_2.jpg' height='90'> <img src='G_5.jpg' height='90'> <img src='G_7.jpg' height='90'> <img src='G_6.jpg' height='90'>","null","Animation1",""
"","","","","","html-keyboard-response","102","2361843","0.0-78.0","70","1","2025-01-31 01:42:03","af8d355d56820e421d246a7037deb6e6","207.230.114.234","Mozilla/5.0 (Windows NT 10.0; Win64; x64) AppleWebKit/537.36 (KHTML, like Gecko) Chrome/132.0.0.0 Safari/537.36","WebKit","Chrome","132.0.0.0","Windows","10.0","https://app.prolific.com/","en-US,en;q=0.9","6712e63698e4785e4b2cf0a9","67949641171f97c04e14fb34","679c248dd875a65d721d3604","","null","<img    src='G_1.jpg' height='90'> <img    src='G_3.jpg' height='90'> <img   src='G_4.jpg' height='90'> <img     src='G_8.jpg' height='90'> <img     src='G_2.jpg' height='90'> <img src='G_5.jpg' height='90'> <img src='G_7.jpg' height='90'> <img src='G_6.jpg' height='90'>","null","Animation1",""
"","","","","","html-keyboard-response","103","2362353","0.0-79.0","70","1","2025-01-31 01:42:03","af8d355d56820e421d246a7037deb6e6","207.230.114.234","Mozilla/5.0 (Windows NT 10.0; Win64; x64) AppleWebKit/537.36 (KHTML, like Gecko) Chrome/132.0.0.0 Safari/537.36","WebKit","Chrome","132.0.0.0","Windows","10.0","https://app.prolific.com/","en-US,en;q=0.9","6712e63698e4785e4b2cf0a9","67949641171f97c04e14fb34","679c248dd875a65d721d3604","","null","<img    src='G_1.jpg' height='90'> <img id='selected'    src='G_3.jpg' height='90'> <img   src='G_4.jpg' height='90'> <img     src='G_8.jpg' height='90'> <img     src='G_2.jpg' height='90'> <img src='G_5.jpg' height='90'> <img src='G_7.jpg' height='90'> <img src='G_6.jpg' height='90'>","null","Animation1",""
"","","","","","html-keyboard-response","104","2362876","0.0-80.0","70","1","2025-01-31 01:42:03","af8d355d56820e421d246a7037deb6e6","207.230.114.234","Mozilla/5.0 (Windows NT 10.0; Win64; x64) AppleWebKit/537.36 (KHTML, like Gecko) Chrome/132.0.0.0 Safari/537.36","WebKit","Chrome","132.0.0.0","Windows","10.0","https://app.prolific.com/","en-US,en;q=0.9","6712e63698e4785e4b2cf0a9","67949641171f97c04e14fb34","679c248dd875a65d721d3604","","null","<img    src='G_1.jpg' height='90'> <img id='selected'    src='G_3.jpg' height='90'> <img id='selected'   src='G_4.jpg' height='90'> <img     src='G_8.jpg' height='90'> <img     src='G_2.jpg' height='90'> <img src='G_5.jpg' height='90'> <img src='G_7.jpg' height='90'> <img src='G_6.jpg' height='90'>","null","Animation1",""
"","","","","","html-keyboard-response","105","2363384","0.0-81.0","70","1","2025-01-31 01:42:03","af8d355d56820e421d246a7037deb6e6","207.230.114.234","Mozilla/5.0 (Windows NT 10.0; Win64; x64) AppleWebKit/537.36 (KHTML, like Gecko) Chrome/132.0.0.0 Safari/537.36","WebKit","Chrome","132.0.0.0","Windows","10.0","https://app.prolific.com/","en-US,en;q=0.9","6712e63698e4785e4b2cf0a9","67949641171f97c04e14fb34","679c248dd875a65d721d3604","","null","<img    src='G_1.jpg' height='90'> <img id='swapped'   src='G_4.jpg' height='90'> <img id='swapped'    src='G_3.jpg' height='90'> <img     src='G_8.jpg' height='90'> <img     src='G_2.jpg' height='90'> <img src='G_5.jpg' height='90'> <img src='G_7.jpg' height='90'> <img src='G_6.jpg' height='90'>","null","Animation1",""
"","","","","","html-keyboard-response","106","2363691","0.0-82.0","70","1","2025-01-31 01:42:03","af8d355d56820e421d246a7037deb6e6","207.230.114.234","Mozilla/5.0 (Windows NT 10.0; Win64; x64) AppleWebKit/537.36 (KHTML, like Gecko) Chrome/132.0.0.0 Safari/537.36","WebKit","Chrome","132.0.0.0","Windows","10.0","https://app.prolific.com/","en-US,en;q=0.9","6712e63698e4785e4b2cf0a9","67949641171f97c04e14fb34","679c248dd875a65d721d3604","","null","<img    src='G_1.jpg' height='90'> <img    src='G_4.jpg' height='90'> <img     src='G_3.jpg' height='90'> <img     src='G_8.jpg' height='90'> <img     src='G_2.jpg' height='90'> <img src='G_5.jpg' height='90'> <img src='G_7.jpg' height='90'> <img src='G_6.jpg' height='90'>","null","Animation1",""
"","","","","","html-keyboard-response","107","2364215","0.0-83.0","70","1","2025-01-31 01:42:03","af8d355d56820e421d246a7037deb6e6","207.230.114.234","Mozilla/5.0 (Windows NT 10.0; Win64; x64) AppleWebKit/537.36 (KHTML, like Gecko) Chrome/132.0.0.0 Safari/537.36","WebKit","Chrome","132.0.0.0","Windows","10.0","https://app.prolific.com/","en-US,en;q=0.9","6712e63698e4785e4b2cf0a9","67949641171f97c04e14fb34","679c248dd875a65d721d3604","","null","<img id='selected'    src='G_1.jpg' height='90'> <img    src='G_4.jpg' height='90'> <img     src='G_3.jpg' height='90'> <img     src='G_8.jpg' height='90'> <img     src='G_2.jpg' height='90'> <img src='G_5.jpg' height='90'> <img src='G_7.jpg' height='90'> <img src='G_6.jpg' height='90'>","null","Animation1",""
"","","","","","html-keyboard-response","108","2364726","0.0-84.0","70","1","2025-01-31 01:42:03","af8d355d56820e421d246a7037deb6e6","207.230.114.234","Mozilla/5.0 (Windows NT 10.0; Win64; x64) AppleWebKit/537.36 (KHTML, like Gecko) Chrome/132.0.0.0 Safari/537.36","WebKit","Chrome","132.0.0.0","Windows","10.0","https://app.prolific.com/","en-US,en;q=0.9","6712e63698e4785e4b2cf0a9","67949641171f97c04e14fb34","679c248dd875a65d721d3604","","null","<img id='selected'    src='G_1.jpg' height='90'> <img id='selected'    src='G_4.jpg' height='90'> <img     src='G_3.jpg' height='90'> <img     src='G_8.jpg' height='90'> <img     src='G_2.jpg' height='90'> <img src='G_5.jpg' height='90'> <img src='G_7.jpg' height='90'> <img src='G_6.jpg' height='90'>","null","Animation1",""
"","","","","","html-keyboard-response","109","2365244","0.0-85.0","70","1","2025-01-31 01:42:03","af8d355d56820e421d246a7037deb6e6","207.230.114.234","Mozilla/5.0 (Windows NT 10.0; Win64; x64) AppleWebKit/537.36 (KHTML, like Gecko) Chrome/132.0.0.0 Safari/537.36","WebKit","Chrome","132.0.0.0","Windows","10.0","https://app.prolific.com/","en-US,en;q=0.9","6712e63698e4785e4b2cf0a9","67949641171f97c04e14fb34","679c248dd875a65d721d3604","","null","<img id='selected'    src='G_1.jpg' height='90'> <img id='selected'    src='G_4.jpg' height='90'> <img     src='G_3.jpg' height='90'> <img     src='G_8.jpg' height='90'> <img     src='G_2.jpg' height='90'> <img src='G_5.jpg' height='90'> <img src='G_7.jpg' height='90'> <img src='G_6.jpg' height='90'>","null","Animation1",""
"","","","","","html-keyboard-response","110","2365552","0.0-86.0","70","1","2025-01-31 01:42:03","af8d355d56820e421d246a7037deb6e6","207.230.114.234","Mozilla/5.0 (Windows NT 10.0; Win64; x64) AppleWebKit/537.36 (KHTML, like Gecko) Chrome/132.0.0.0 Safari/537.36","WebKit","Chrome","132.0.0.0","Windows","10.0","https://app.prolific.com/","en-US,en;q=0.9","6712e63698e4785e4b2cf0a9","67949641171f97c04e14fb34","679c248dd875a65d721d3604","","null","<img     src='G_1.jpg' height='90'> <img     src='G_4.jpg' height='90'> <img     src='G_3.jpg' height='90'> <img     src='G_8.jpg' height='90'> <img     src='G_2.jpg' height='90'> <img src='G_5.jpg' height='90'> <img src='G_7.jpg' height='90'> <img src='G_6.jpg' height='90'>","null","Animation1",""
"","","","","","html-keyboard-response","111","2366063","0.0-87.0","70","1","2025-01-31 01:42:03","af8d355d56820e421d246a7037deb6e6","207.230.114.234","Mozilla/5.0 (Windows NT 10.0; Win64; x64) AppleWebKit/537.36 (KHTML, like Gecko) Chrome/132.0.0.0 Safari/537.36","WebKit","Chrome","132.0.0.0","Windows","10.0","https://app.prolific.com/","en-US,en;q=0.9","6712e63698e4785e4b2cf0a9","67949641171f97c04e14fb34","679c248dd875a65d721d3604","","null","<img     src='G_1.jpg' height='90'> <img     src='G_4.jpg' height='90'> <img     src='G_3.jpg' height='90'> <img     src='G_8.jpg' height='90'> <img id='selected'     src='G_2.jpg' height='90'> <img src='G_5.jpg' height='90'> <img src='G_7.jpg' height='90'> <img src='G_6.jpg' height='90'>","null","Animation1",""
"","","","","","html-keyboard-response","112","2366567","0.0-88.0","70","1","2025-01-31 01:42:03","af8d355d56820e421d246a7037deb6e6","207.230.114.234","Mozilla/5.0 (Windows NT 10.0; Win64; x64) AppleWebKit/537.36 (KHTML, like Gecko) Chrome/132.0.0.0 Safari/537.36","WebKit","Chrome","132.0.0.0","Windows","10.0","https://app.prolific.com/","en-US,en;q=0.9","6712e63698e4785e4b2cf0a9","67949641171f97c04e14fb34","679c248dd875a65d721d3604","","null","<img     src='G_1.jpg' height='90'> <img     src='G_4.jpg' height='90'> <img     src='G_3.jpg' height='90'> <img     src='G_8.jpg' height='90'> <img id='selected'     src='G_2.jpg' height='90'> <img id='selected' src='G_5.jpg' height='90'> <img src='G_7.jpg' height='90'> <img src='G_6.jpg' height='90'>","null","Animation1",""
"","","","","","html-keyboard-response","113","2367083","0.0-89.0","70","1","2025-01-31 01:42:03","af8d355d56820e421d246a7037deb6e6","207.230.114.234","Mozilla/5.0 (Windows NT 10.0; Win64; x64) AppleWebKit/537.36 (KHTML, like Gecko) Chrome/132.0.0.0 Safari/537.36","WebKit","Chrome","132.0.0.0","Windows","10.0","https://app.prolific.com/","en-US,en;q=0.9","6712e63698e4785e4b2cf0a9","67949641171f97c04e14fb34","679c248dd875a65d721d3604","","null","<img     src='G_1.jpg' height='90'> <img     src='G_4.jpg' height='90'> <img     src='G_3.jpg' height='90'> <img     src='G_8.jpg' height='90'> <img id='swapped' src='G_5.jpg' height='90'> <img id='swapped'     src='G_2.jpg' height='90'> <img src='G_7.jpg' height='90'> <img src='G_6.jpg' height='90'>","null","Animation1",""
"","","","","","html-keyboard-response","114","2367394","0.0-90.0","70","1","2025-01-31 01:42:03","af8d355d56820e421d246a7037deb6e6","207.230.114.234","Mozilla/5.0 (Windows NT 10.0; Win64; x64) AppleWebKit/537.36 (KHTML, like Gecko) Chrome/132.0.0.0 Safari/537.36","WebKit","Chrome","132.0.0.0","Windows","10.0","https://app.prolific.com/","en-US,en;q=0.9","6712e63698e4785e4b2cf0a9","67949641171f97c04e14fb34","679c248dd875a65d721d3604","","null","<img     src='G_1.jpg' height='90'> <img     src='G_4.jpg' height='90'> <img     src='G_3.jpg' height='90'> <img     src='G_8.jpg' height='90'> <img  src='G_5.jpg' height='90'> <img      src='G_2.jpg' height='90'> <img src='G_7.jpg' height='90'> <img src='G_6.jpg' height='90'>","null","Animation1",""
"","","","","","html-keyboard-response","115","2367913","0.0-91.0","70","1","2025-01-31 01:42:03","af8d355d56820e421d246a7037deb6e6","207.230.114.234","Mozilla/5.0 (Windows NT 10.0; Win64; x64) AppleWebKit/537.36 (KHTML, like Gecko) Chrome/132.0.0.0 Safari/537.36","WebKit","Chrome","132.0.0.0","Windows","10.0","https://app.prolific.com/","en-US,en;q=0.9","6712e63698e4785e4b2cf0a9","67949641171f97c04e14fb34","679c248dd875a65d721d3604","","null","<img     src='G_1.jpg' height='90'> <img     src='G_4.jpg' height='90'> <img     src='G_3.jpg' height='90'> <img id='selected'     src='G_8.jpg' height='90'> <img  src='G_5.jpg' height='90'> <img      src='G_2.jpg' height='90'> <img src='G_7.jpg' height='90'> <img src='G_6.jpg' height='90'>","null","Animation1",""
"","","","","","html-keyboard-response","116","2368424","0.0-92.0","70","1","2025-01-31 01:42:03","af8d355d56820e421d246a7037deb6e6","207.230.114.234","Mozilla/5.0 (Windows NT 10.0; Win64; x64) AppleWebKit/537.36 (KHTML, like Gecko) Chrome/132.0.0.0 Safari/537.36","WebKit","Chrome","132.0.0.0","Windows","10.0","https://app.prolific.com/","en-US,en;q=0.9","6712e63698e4785e4b2cf0a9","67949641171f97c04e14fb34","679c248dd875a65d721d3604","","null","<img     src='G_1.jpg' height='90'> <img     src='G_4.jpg' height='90'> <img     src='G_3.jpg' height='90'> <img id='selected'     src='G_8.jpg' height='90'> <img id='selected'  src='G_5.jpg' height='90'> <img      src='G_2.jpg' height='90'> <img src='G_7.jpg' height='90'> <img src='G_6.jpg' height='90'>","null","Animation1",""
"","","","","","html-keyboard-response","117","2368934","0.0-93.0","70","1","2025-01-31 01:42:03","af8d355d56820e421d246a7037deb6e6","207.230.114.234","Mozilla/5.0 (Windows NT 10.0; Win64; x64) AppleWebKit/537.36 (KHTML, like Gecko) Chrome/132.0.0.0 Safari/537.36","WebKit","Chrome","132.0.0.0","Windows","10.0","https://app.prolific.com/","en-US,en;q=0.9","6712e63698e4785e4b2cf0a9","67949641171f97c04e14fb34","679c248dd875a65d721d3604","","null","<img     src='G_1.jpg' height='90'> <img     src='G_4.jpg' height='90'> <img     src='G_3.jpg' height='90'> <img id='selected'     src='G_8.jpg' height='90'> <img id='selected'  src='G_5.jpg' height='90'> <img      src='G_2.jpg' height='90'> <img src='G_7.jpg' height='90'> <img src='G_6.jpg' height='90'>","null","Animation1",""
"","","","","","html-keyboard-response","118","2369248","0.0-94.0","70","1","2025-01-31 01:42:03","af8d355d56820e421d246a7037deb6e6","207.230.114.234","Mozilla/5.0 (Windows NT 10.0; Win64; x64) AppleWebKit/537.36 (KHTML, like Gecko) Chrome/132.0.0.0 Safari/537.36","WebKit","Chrome","132.0.0.0","Windows","10.0","https://app.prolific.com/","en-US,en;q=0.9","6712e63698e4785e4b2cf0a9","67949641171f97c04e14fb34","679c248dd875a65d721d3604","","null","<img     src='G_1.jpg' height='90'> <img     src='G_4.jpg' height='90'> <img     src='G_3.jpg' height='90'> <img      src='G_8.jpg' height='90'> <img   src='G_5.jpg' height='90'> <img      src='G_2.jpg' height='90'> <img src='G_7.jpg' height='90'> <img src='G_6.jpg' height='90'>","null","Animation1",""
"","","","","","html-keyboard-response","119","2369757","0.0-95.0","70","1","2025-01-31 01:42:03","af8d355d56820e421d246a7037deb6e6","207.230.114.234","Mozilla/5.0 (Windows NT 10.0; Win64; x64) AppleWebKit/537.36 (KHTML, like Gecko) Chrome/132.0.0.0 Safari/537.36","WebKit","Chrome","132.0.0.0","Windows","10.0","https://app.prolific.com/","en-US,en;q=0.9","6712e63698e4785e4b2cf0a9","67949641171f97c04e14fb34","679c248dd875a65d721d3604","","null","<img     src='G_1.jpg' height='90'> <img     src='G_4.jpg' height='90'> <img     src='G_3.jpg' height='90'> <img      src='G_8.jpg' height='90'> <img   src='G_5.jpg' height='90'> <img id='selected'      src='G_2.jpg' height='90'> <img src='G_7.jpg' height='90'> <img src='G_6.jpg' height='90'>","null","Animation1",""
"","","","","","html-keyboard-response","120","2370274","0.0-96.0","70","1","2025-01-31 01:42:03","af8d355d56820e421d246a7037deb6e6","207.230.114.234","Mozilla/5.0 (Windows NT 10.0; Win64; x64) AppleWebKit/537.36 (KHTML, like Gecko) Chrome/132.0.0.0 Safari/537.36","WebKit","Chrome","132.0.0.0","Windows","10.0","https://app.prolific.com/","en-US,en;q=0.9","6712e63698e4785e4b2cf0a9","67949641171f97c04e14fb34","679c248dd875a65d721d3604","","null","<img     src='G_1.jpg' height='90'> <img     src='G_4.jpg' height='90'> <img     src='G_3.jpg' height='90'> <img      src='G_8.jpg' height='90'> <img   src='G_5.jpg' height='90'> <img id='selected'      src='G_2.jpg' height='90'> <img id='selected' src='G_7.jpg' height='90'> <img src='G_6.jpg' height='90'>","null","Animation1",""
"","","","","","html-keyboard-response","121","2370784","0.0-97.0","70","1","2025-01-31 01:42:03","af8d355d56820e421d246a7037deb6e6","207.230.114.234","Mozilla/5.0 (Windows NT 10.0; Win64; x64) AppleWebKit/537.36 (KHTML, like Gecko) Chrome/132.0.0.0 Safari/537.36","WebKit","Chrome","132.0.0.0","Windows","10.0","https://app.prolific.com/","en-US,en;q=0.9","6712e63698e4785e4b2cf0a9","67949641171f97c04e14fb34","679c248dd875a65d721d3604","","null","<img     src='G_1.jpg' height='90'> <img     src='G_4.jpg' height='90'> <img     src='G_3.jpg' height='90'> <img      src='G_8.jpg' height='90'> <img   src='G_5.jpg' height='90'> <img id='selected'      src='G_2.jpg' height='90'> <img id='selected' src='G_7.jpg' height='90'> <img src='G_6.jpg' height='90'>","null","Animation1",""
"","","","","","html-keyboard-response","122","2371103","0.0-98.0","70","1","2025-01-31 01:42:03","af8d355d56820e421d246a7037deb6e6","207.230.114.234","Mozilla/5.0 (Windows NT 10.0; Win64; x64) AppleWebKit/537.36 (KHTML, like Gecko) Chrome/132.0.0.0 Safari/537.36","WebKit","Chrome","132.0.0.0","Windows","10.0","https://app.prolific.com/","en-US,en;q=0.9","6712e63698e4785e4b2cf0a9","67949641171f97c04e14fb34","679c248dd875a65d721d3604","","null","<img     src='G_1.jpg' height='90'> <img     src='G_4.jpg' height='90'> <img     src='G_3.jpg' height='90'> <img      src='G_8.jpg' height='90'> <img   src='G_5.jpg' height='90'> <img       src='G_2.jpg' height='90'> <img  src='G_7.jpg' height='90'> <img src='G_6.jpg' height='90'>","null","Animation1",""
"","","","","","html-keyboard-response","123","2371621","0.0-99.0","70","1","2025-01-31 01:42:03","af8d355d56820e421d246a7037deb6e6","207.230.114.234","Mozilla/5.0 (Windows NT 10.0; Win64; x64) AppleWebKit/537.36 (KHTML, like Gecko) Chrome/132.0.0.0 Safari/537.36","WebKit","Chrome","132.0.0.0","Windows","10.0","https://app.prolific.com/","en-US,en;q=0.9","6712e63698e4785e4b2cf0a9","67949641171f97c04e14fb34","679c248dd875a65d721d3604","","null","<img     src='G_1.jpg' height='90'> <img     src='G_4.jpg' height='90'> <img     src='G_3.jpg' height='90'> <img      src='G_8.jpg' height='90'> <img   src='G_5.jpg' height='90'> <img       src='G_2.jpg' height='90'> <img id='selected'  src='G_7.jpg' height='90'> <img src='G_6.jpg' height='90'>","null","Animation1",""
"","","","","","html-keyboard-response","124","2372130","0.0-100.0","70","1","2025-01-31 01:42:03","af8d355d56820e421d246a7037deb6e6","207.230.114.234","Mozilla/5.0 (Windows NT 10.0; Win64; x64) AppleWebKit/537.36 (KHTML, like Gecko) Chrome/132.0.0.0 Safari/537.36","WebKit","Chrome","132.0.0.0","Windows","10.0","https://app.prolific.com/","en-US,en;q=0.9","6712e63698e4785e4b2cf0a9","67949641171f97c04e14fb34","679c248dd875a65d721d3604","","null","<img     src='G_1.jpg' height='90'> <img     src='G_4.jpg' height='90'> <img     src='G_3.jpg' height='90'> <img      src='G_8.jpg' height='90'> <img   src='G_5.jpg' height='90'> <img       src='G_2.jpg' height='90'> <img id='selected'  src='G_7.jpg' height='90'> <img id='selected' src='G_6.jpg' height='90'>","null","Animation1",""
"","","","","","html-keyboard-response","125","2372643","0.0-101.0","70","1","2025-01-31 01:42:03","af8d355d56820e421d246a7037deb6e6","207.230.114.234","Mozilla/5.0 (Windows NT 10.0; Win64; x64) AppleWebKit/537.36 (KHTML, like Gecko) Chrome/132.0.0.0 Safari/537.36","WebKit","Chrome","132.0.0.0","Windows","10.0","https://app.prolific.com/","en-US,en;q=0.9","6712e63698e4785e4b2cf0a9","67949641171f97c04e14fb34","679c248dd875a65d721d3604","","null","<img     src='G_1.jpg' height='90'> <img     src='G_4.jpg' height='90'> <img     src='G_3.jpg' height='90'> <img      src='G_8.jpg' height='90'> <img   src='G_5.jpg' height='90'> <img       src='G_2.jpg' height='90'> <img id='swapped' src='G_6.jpg' height='90'> <img id='swapped'  src='G_7.jpg' height='90'>","null","Animation1",""
"","","","","","html-keyboard-response","126","2372963","0.0-102.0","70","1","2025-01-31 01:42:03","af8d355d56820e421d246a7037deb6e6","207.230.114.234","Mozilla/5.0 (Windows NT 10.0; Win64; x64) AppleWebKit/537.36 (KHTML, like Gecko) Chrome/132.0.0.0 Safari/537.36","WebKit","Chrome","132.0.0.0","Windows","10.0","https://app.prolific.com/","en-US,en;q=0.9","6712e63698e4785e4b2cf0a9","67949641171f97c04e14fb34","679c248dd875a65d721d3604","","null","<img     src='G_1.jpg' height='90'> <img     src='G_4.jpg' height='90'> <img     src='G_3.jpg' height='90'> <img      src='G_8.jpg' height='90'> <img   src='G_5.jpg' height='90'> <img       src='G_2.jpg' height='90'> <img  src='G_6.jpg' height='90'> <img   src='G_7.jpg' height='90'>","null","Animation1",""
"","","","","","html-keyboard-response","127","2373473","0.0-103.0","70","1","2025-01-31 01:42:03","af8d355d56820e421d246a7037deb6e6","207.230.114.234","Mozilla/5.0 (Windows NT 10.0; Win64; x64) AppleWebKit/537.36 (KHTML, like Gecko) Chrome/132.0.0.0 Safari/537.36","WebKit","Chrome","132.0.0.0","Windows","10.0","https://app.prolific.com/","en-US,en;q=0.9","6712e63698e4785e4b2cf0a9","67949641171f97c04e14fb34","679c248dd875a65d721d3604","","null","<img     src='G_1.jpg' height='90'> <img     src='G_4.jpg' height='90'> <img     src='G_3.jpg' height='90'> <img      src='G_8.jpg' height='90'> <img   src='G_5.jpg' height='90'> <img id='selected'       src='G_2.jpg' height='90'> <img  src='G_6.jpg' height='90'> <img   src='G_7.jpg' height='90'>","null","Animation1",""
"","","","","","html-keyboard-response","128","2373979","0.0-104.0","70","1","2025-01-31 01:42:03","af8d355d56820e421d246a7037deb6e6","207.230.114.234","Mozilla/5.0 (Windows NT 10.0; Win64; x64) AppleWebKit/537.36 (KHTML, like Gecko) Chrome/132.0.0.0 Safari/537.36","WebKit","Chrome","132.0.0.0","Windows","10.0","https://app.prolific.com/","en-US,en;q=0.9","6712e63698e4785e4b2cf0a9","67949641171f97c04e14fb34","679c248dd875a65d721d3604","","null","<img     src='G_1.jpg' height='90'> <img     src='G_4.jpg' height='90'> <img     src='G_3.jpg' height='90'> <img      src='G_8.jpg' height='90'> <img   src='G_5.jpg' height='90'> <img id='selected'       src='G_2.jpg' height='90'> <img id='selected'  src='G_6.jpg' height='90'> <img   src='G_7.jpg' height='90'>","null","Animation1",""
"","","","","","html-keyboard-response","129","2374499","0.0-105.0","70","1","2025-01-31 01:42:03","af8d355d56820e421d246a7037deb6e6","207.230.114.234","Mozilla/5.0 (Windows NT 10.0; Win64; x64) AppleWebKit/537.36 (KHTML, like Gecko) Chrome/132.0.0.0 Safari/537.36","WebKit","Chrome","132.0.0.0","Windows","10.0","https://app.prolific.com/","en-US,en;q=0.9","6712e63698e4785e4b2cf0a9","67949641171f97c04e14fb34","679c248dd875a65d721d3604","","null","<img     src='G_1.jpg' height='90'> <img     src='G_4.jpg' height='90'> <img     src='G_3.jpg' height='90'> <img      src='G_8.jpg' height='90'> <img   src='G_5.jpg' height='90'> <img id='selected'       src='G_2.jpg' height='90'> <img id='selected'  src='G_6.jpg' height='90'> <img   src='G_7.jpg' height='90'>","null","Animation1",""
"","","","","","html-keyboard-response","130","2374807","0.0-106.0","70","1","2025-01-31 01:42:03","af8d355d56820e421d246a7037deb6e6","207.230.114.234","Mozilla/5.0 (Windows NT 10.0; Win64; x64) AppleWebKit/537.36 (KHTML, like Gecko) Chrome/132.0.0.0 Safari/537.36","WebKit","Chrome","132.0.0.0","Windows","10.0","https://app.prolific.com/","en-US,en;q=0.9","6712e63698e4785e4b2cf0a9","67949641171f97c04e14fb34","679c248dd875a65d721d3604","","null","<img     src='G_1.jpg' height='90'> <img     src='G_4.jpg' height='90'> <img     src='G_3.jpg' height='90'> <img      src='G_8.jpg' height='90'> <img   src='G_5.jpg' height='90'> <img        src='G_2.jpg' height='90'> <img   src='G_6.jpg' height='90'> <img   src='G_7.jpg' height='90'>","null","Animation1",""
"","","","","","html-keyboard-response","131","2455132","0.0-107.0","70","1","2025-01-31 01:42:03","af8d355d56820e421d246a7037deb6e6","207.230.114.234","Mozilla/5.0 (Windows NT 10.0; Win64; x64) AppleWebKit/537.36 (KHTML, like Gecko) Chrome/132.0.0.0 Safari/537.36","WebKit","Chrome","132.0.0.0","Windows","10.0","https://app.prolific.com/","en-US,en;q=0.9","6712e63698e4785e4b2cf0a9","67949641171f97c04e14fb34","679c248dd875a65d721d3604","","80318","[""Did you notice any patterns? <br><br>Press Enter to watch that example again and follow the steps of Omgne Sort.""]","enter","",""
"","","","","","html-button-response","132","2455551","0.0-108.0","70","1","2025-01-31 01:42:03","af8d355d56820e421d246a7037deb6e6","207.230.114.234","Mozilla/5.0 (Windows NT 10.0; Win64; x64) AppleWebKit/537.36 (KHTML, like Gecko) Chrome/132.0.0.0 Safari/537.36","WebKit","Chrome","132.0.0.0","Windows","10.0","https://app.prolific.com/","en-US,en;q=0.9","6712e63698e4785e4b2cf0a9","67949641171f97c04e14fb34","679c248dd875a65d721d3604","","null","<img id='selected' src='G_8.jpg' height='90'> <img src='G_2.jpg' height='90'> <img src='G_3.jpg' height='90'> <img src='G_1.jpg' height='90'> <img src='G_4.jpg' height='90'> <img src='G_5.jpg' height='90'> <img src='G_7.jpg' height='90'> <img src='G_6.jpg' height='90'>","null","Learning example 1",""
"","","","","","html-button-response","133","2455858","0.0-109.0","70","1","2025-01-31 01:42:03","af8d355d56820e421d246a7037deb6e6","207.230.114.234","Mozilla/5.0 (Windows NT 10.0; Win64; x64) AppleWebKit/537.36 (KHTML, like Gecko) Chrome/132.0.0.0 Safari/537.36","WebKit","Chrome","132.0.0.0","Windows","10.0","https://app.prolific.com/","en-US,en;q=0.9","6712e63698e4785e4b2cf0a9","67949641171f97c04e14fb34","679c248dd875a65d721d3604","","null","<img id='selected' src='G_8.jpg' height='90'> <img id='selected' src='G_2.jpg' height='90'> <img src='G_3.jpg' height='90'> <img src='G_1.jpg' height='90'> <img src='G_4.jpg' height='90'> <img src='G_5.jpg' height='90'> <img src='G_7.jpg' height='90'> <img src='G_6.jpg' height='90'>","null","Learning example 1",""
"","","","","","html-button-response","134","2456173","0.0-110.0","70","1","2025-01-31 01:42:03","af8d355d56820e421d246a7037deb6e6","207.230.114.234","Mozilla/5.0 (Windows NT 10.0; Win64; x64) AppleWebKit/537.36 (KHTML, like Gecko) Chrome/132.0.0.0 Safari/537.36","WebKit","Chrome","132.0.0.0","Windows","10.0","https://app.prolific.com/","en-US,en;q=0.9","6712e63698e4785e4b2cf0a9","67949641171f97c04e14fb34","679c248dd875a65d721d3604","","null","<img id='selected' src='G_8.jpg' height='90'> <img id='selected' src='G_2.jpg' height='90'> <img src='G_3.jpg' height='90'> <img src='G_1.jpg' height='90'> <img src='G_4.jpg' height='90'> <img src='G_5.jpg' height='90'> <img src='G_7.jpg' height='90'> <img src='G_6.jpg' height='90'>","null","Learning example 1",""
"","","","","","html-button-response","135","2456368","0.0-111.0-0.0-0.0","70","1","2025-01-31 01:42:03","af8d355d56820e421d246a7037deb6e6","207.230.114.234","Mozilla/5.0 (Windows NT 10.0; Win64; x64) AppleWebKit/537.36 (KHTML, like Gecko) Chrome/132.0.0.0 Safari/537.36","WebKit","Chrome","132.0.0.0","Windows","10.0","https://app.prolific.com/","en-US,en;q=0.9","6712e63698e4785e4b2cf0a9","67949641171f97c04e14fb34","679c248dd875a65d721d3604","","190","<img id='selected' src='G_8.jpg' height='90'> <img id='selected' src='G_2.jpg' height='90'> <img src='G_3.jpg' height='90'> <img src='G_1.jpg' height='90'> <img src='G_4.jpg' height='90'> <img src='G_5.jpg' height='90'> <img src='G_7.jpg' height='90'> <img src='G_6.jpg' height='90'>","1","Learning example 1",""
"","","","","","html-button-response","136","2456552","0.0-111.1-0.1-0.1","70","1","2025-01-31 01:42:03","af8d355d56820e421d246a7037deb6e6","207.230.114.234","Mozilla/5.0 (Windows NT 10.0; Win64; x64) AppleWebKit/537.36 (KHTML, like Gecko) Chrome/132.0.0.0 Safari/537.36","WebKit","Chrome","132.0.0.0","Windows","10.0","https://app.prolific.com/","en-US,en;q=0.9","6712e63698e4785e4b2cf0a9","67949641171f97c04e14fb34","679c248dd875a65d721d3604","","175","<img id='selected' src='G_8.jpg' height='90'> <img id='selected' src='G_2.jpg' height='90'> <img src='G_3.jpg' height='90'> <img src='G_1.jpg' height='90'> <img src='G_4.jpg' height='90'> <img src='G_5.jpg' height='90'> <img src='G_7.jpg' height='90'> <img src='G_6.jpg' height='90'>","0","Learning example 1",""
"","","","","","html-button-response","137","2456762","0.0-112.0","70","1","2025-01-31 01:42:03","af8d355d56820e421d246a7037deb6e6","207.230.114.234","Mozilla/5.0 (Windows NT 10.0; Win64; x64) AppleWebKit/537.36 (KHTML, like Gecko) Chrome/132.0.0.0 Safari/537.36","WebKit","Chrome","132.0.0.0","Windows","10.0","https://app.prolific.com/","en-US,en;q=0.9","6712e63698e4785e4b2cf0a9","67949641171f97c04e14fb34","679c248dd875a65d721d3604","","null","<img  src='G_8.jpg' height='90'> <img  src='G_2.jpg' height='90'> <img src='G_3.jpg' height='90'> <img src='G_1.jpg' height='90'> <img src='G_4.jpg' height='90'> <img src='G_5.jpg' height='90'> <img src='G_7.jpg' height='90'> <img src='G_6.jpg' height='90'>","null","Learning example 1",""
"","","","","","html-button-response","138","2457176","0.0-113.0","70","1","2025-01-31 01:42:03","af8d355d56820e421d246a7037deb6e6","207.230.114.234","Mozilla/5.0 (Windows NT 10.0; Win64; x64) AppleWebKit/537.36 (KHTML, like Gecko) Chrome/132.0.0.0 Safari/537.36","WebKit","Chrome","132.0.0.0","Windows","10.0","https://app.prolific.com/","en-US,en;q=0.9","6712e63698e4785e4b2cf0a9","67949641171f97c04e14fb34","679c248dd875a65d721d3604","","null","<img  src='G_8.jpg' height='90'> <img id='selected'  src='G_2.jpg' height='90'> <img src='G_3.jpg' height='90'> <img src='G_1.jpg' height='90'> <img src='G_4.jpg' height='90'> <img src='G_5.jpg' height='90'> <img src='G_7.jpg' height='90'> <img src='G_6.jpg' height='90'>","null","Learning example 1",""
"","","","","","html-button-response","139","2457496","0.0-114.0","70","1","2025-01-31 01:42:03","af8d355d56820e421d246a7037deb6e6","207.230.114.234","Mozilla/5.0 (Windows NT 10.0; Win64; x64) AppleWebKit/537.36 (KHTML, like Gecko) Chrome/132.0.0.0 Safari/537.36","WebKit","Chrome","132.0.0.0","Windows","10.0","https://app.prolific.com/","en-US,en;q=0.9","6712e63698e4785e4b2cf0a9","67949641171f97c04e14fb34","679c248dd875a65d721d3604","","null","<img  src='G_8.jpg' height='90'> <img id='selected'  src='G_2.jpg' height='90'> <img id='selected' src='G_3.jpg' height='90'> <img src='G_1.jpg' height='90'> <img src='G_4.jpg' height='90'> <img src='G_5.jpg' height='90'> <img src='G_7.jpg' height='90'> <img src='G_6.jpg' height='90'>","null","Learning example 1",""
"","","","","","html-button-response","140","2457813","0.0-115.0","70","1","2025-01-31 01:42:03","af8d355d56820e421d246a7037deb6e6","207.230.114.234","Mozilla/5.0 (Windows NT 10.0; Win64; x64) AppleWebKit/537.36 (KHTML, like Gecko) Chrome/132.0.0.0 Safari/537.36","WebKit","Chrome","132.0.0.0","Windows","10.0","https://app.prolific.com/","en-US,en;q=0.9","6712e63698e4785e4b2cf0a9","67949641171f97c04e14fb34","679c248dd875a65d721d3604","","null","<img  src='G_8.jpg' height='90'> <img id='swapped' src='G_3.jpg' height='90'> <img id='swapped'  src='G_2.jpg' height='90'> <img src='G_1.jpg' height='90'> <img src='G_4.jpg' height='90'> <img src='G_5.jpg' height='90'> <img src='G_7.jpg' height='90'> <img src='G_6.jpg' height='90'>","null","Learning example 1",""
"","","","","","html-button-response","141","2458576","0.0-116.0-0.0-0.0","70","1","2025-01-31 01:42:03","af8d355d56820e421d246a7037deb6e6","207.230.114.234","Mozilla/5.0 (Windows NT 10.0; Win64; x64) AppleWebKit/537.36 (KHTML, like Gecko) Chrome/132.0.0.0 Safari/537.36","WebKit","Chrome","132.0.0.0","Windows","10.0","https://app.prolific.com/","en-US,en;q=0.9","6712e63698e4785e4b2cf0a9","67949641171f97c04e14fb34","679c248dd875a65d721d3604","","756","<img  src='G_8.jpg' height='90'> <img id='swapped' src='G_3.jpg' height='90'> <img id='swapped'  src='G_2.jpg' height='90'> <img src='G_1.jpg' height='90'> <img src='G_4.jpg' height='90'> <img src='G_5.jpg' height='90'> <img src='G_7.jpg' height='90'> <img src='G_6.jpg' height='90'>","1","Learning example 1",""
"","","","","","html-button-response","142","2459566","0.0-116.1-0.1-0.1","70","1","2025-01-31 01:42:03","af8d355d56820e421d246a7037deb6e6","207.230.114.234","Mozilla/5.0 (Windows NT 10.0; Win64; x64) AppleWebKit/537.36 (KHTML, like Gecko) Chrome/132.0.0.0 Safari/537.36","WebKit","Chrome","132.0.0.0","Windows","10.0","https://app.prolific.com/","en-US,en;q=0.9","6712e63698e4785e4b2cf0a9","67949641171f97c04e14fb34","679c248dd875a65d721d3604","","976","<img  src='G_8.jpg' height='90'> <img id='swapped' src='G_3.jpg' height='90'> <img id='swapped'  src='G_2.jpg' height='90'> <img src='G_1.jpg' height='90'> <img src='G_4.jpg' height='90'> <img src='G_5.jpg' height='90'> <img src='G_7.jpg' height='90'> <img src='G_6.jpg' height='90'>","2","Learning example 1",""
"","","","","","html-button-response","143","2459804","0.0-117.0","70","1","2025-01-31 01:42:03","af8d355d56820e421d246a7037deb6e6","207.230.114.234","Mozilla/5.0 (Windows NT 10.0; Win64; x64) AppleWebKit/537.36 (KHTML, like Gecko) Chrome/132.0.0.0 Safari/537.36","WebKit","Chrome","132.0.0.0","Windows","10.0","https://app.prolific.com/","en-US,en;q=0.9","6712e63698e4785e4b2cf0a9","67949641171f97c04e14fb34","679c248dd875a65d721d3604","","null","<img  src='G_8.jpg' height='90'> <img  src='G_3.jpg' height='90'> <img   src='G_2.jpg' height='90'> <img src='G_1.jpg' height='90'> <img src='G_4.jpg' height='90'> <img src='G_5.jpg' height='90'> <img src='G_7.jpg' height='90'> <img src='G_6.jpg' height='90'>","null","Learning example 1",""
"","","","","","html-button-response","144","2459854","0.0-118.0","70","1","2025-01-31 01:42:03","af8d355d56820e421d246a7037deb6e6","207.230.114.234","Mozilla/5.0 (Windows NT 10.0; Win64; x64) AppleWebKit/537.36 (KHTML, like Gecko) Chrome/132.0.0.0 Safari/537.36","WebKit","Chrome","132.0.0.0","Windows","10.0","https://app.prolific.com/","en-US,en;q=0.9","6712e63698e4785e4b2cf0a9","67949641171f97c04e14fb34","679c248dd875a65d721d3604","","38","<img id='selected'  src='G_8.jpg' height='90'> <img  src='G_3.jpg' height='90'> <img   src='G_2.jpg' height='90'> <img src='G_1.jpg' height='90'> <img src='G_4.jpg' height='90'> <img src='G_5.jpg' height='90'> <img src='G_7.jpg' height='90'> <img src='G_6.jpg' height='90'>","3","Learning example 1",""
"","","","","","html-button-response","145","2460169","0.0-119.0","70","1","2025-01-31 01:42:03","af8d355d56820e421d246a7037deb6e6","207.230.114.234","Mozilla/5.0 (Windows NT 10.0; Win64; x64) AppleWebKit/537.36 (KHTML, like Gecko) Chrome/132.0.0.0 Safari/537.36","WebKit","Chrome","132.0.0.0","Windows","10.0","https://app.prolific.com/","en-US,en;q=0.9","6712e63698e4785e4b2cf0a9","67949641171f97c04e14fb34","679c248dd875a65d721d3604","","null","<img id='selected'  src='G_8.jpg' height='90'> <img id='selected'  src='G_3.jpg' height='90'> <img   src='G_2.jpg' height='90'> <img src='G_1.jpg' height='90'> <img src='G_4.jpg' height='90'> <img src='G_5.jpg' height='90'> <img src='G_7.jpg' height='90'> <img src='G_6.jpg' height='90'>","null","Learning example 1",""
