"success","timeout","failed_images","failed_audio","failed_video","trial_type","trial_index","time_elapsed","internal_node_id","run_id","condition","recorded_at","source_code_version","ip","user_agent","device","browser","browser_version","platform","platform_version","referer","accept_language","PROLIFIC_PID","STUDY_ID","SESSION_ID","view_history","rt","stimulus","response","phase","question_order"
"true","false","[]","[]","[]","preload","0","6235","0.0-0.0","71","1","2025-01-31 01:42:05","af8d355d56820e421d246a7037deb6e6","154.7.225.221","Mozilla/5.0 (Windows NT 10.0; Win64; x64) AppleWebKit/537.36 (KHTML, like Gecko) Chrome/132.0.0.0 Safari/537.36","WebKit","Chrome","132.0.0.0","Windows","10.0","https://app.prolific.com/","en-US,en;q=0.9","6712fc1608041fe311ca2221","67949641171f97c04e14fb34","679c24917c35a6a9109d898d","","","","","",""
"","","","","","instructions","1","116431","0.0-1.0","71","1","2025-01-31 01:42:05","af8d355d56820e421d246a7037deb6e6","154.7.225.221","Mozilla/5.0 (Windows NT 10.0; Win64; x64) AppleWebKit/537.36 (KHTML, like Gecko) Chrome/132.0.0.0 Safari/537.36","WebKit","Chrome","132.0.0.0","Windows","10.0","https://app.prolific.com/","en-US,en;q=0.9","6712fc1608041fe311ca2221","67949641171f97c04e14fb34","679c24917c35a6a9109d898d","[{""page_index"":0,""viewing_time"":110188}]","110190","","","",""
"","","","","","html-keyboard-response","2","116941","0.0-2.0","71","1","2025-01-31 01:42:05","af8d355d56820e421d246a7037deb6e6","154.7.225.221","Mozilla/5.0 (Windows NT 10.0; Win64; x64) AppleWebKit/537.36 (KHTML, like Gecko) Chrome/132.0.0.0 Safari/537.36","WebKit","Chrome","132.0.0.0","Windows","10.0","https://app.prolific.com/","en-US,en;q=0.9","6712fc1608041fe311ca2221","67949641171f97c04e14fb34","679c24917c35a6a9109d898d","","null","<p> + <p/>","null","",""
"","","","","","instructions","3","232905","0.0-3.0","71","1","2025-01-31 01:42:05","af8d355d56820e421d246a7037deb6e6","154.7.225.221","Mozilla/5.0 (Windows NT 10.0; Win64; x64) AppleWebKit/537.36 (KHTML, like Gecko) Chrome/132.0.0.0 Safari/537.36","WebKit","Chrome","132.0.0.0","Windows","10.0","https://app.prolific.com/","en-US,en;q=0.9","6712fc1608041fe311ca2221","67949641171f97c04e14fb34","679c24917c35a6a9109d898d","[{""page_index"":0,""viewing_time"":104582},{""page_index"":1,""viewing_time"":677},{""page_index"":2,""viewing_time"":5636},{""page_index"":3,""viewing_time"":3017},{""page_index"":4,""viewing_time"":2049}]","115962","","","",""
"","","","","","html-button-response","4","239960","0.0-4.0-0.0-0.0","71","1","2025-01-31 01:42:05","af8d355d56820e421d246a7037deb6e6","154.7.225.221","Mozilla/5.0 (Windows NT 10.0; Win64; x64) AppleWebKit/537.36 (KHTML, like Gecko) Chrome/132.0.0.0 Safari/537.36","WebKit","Chrome","132.0.0.0","Windows","10.0","https://app.prolific.com/","en-US,en;q=0.9","6712fc1608041fe311ca2221","67949641171f97c04e14fb34","679c24917c35a6a9109d898d","","7050","","2","Intro Trial",""
"","","","","","html-button-response","5","240269","0.0-4.1-0.1-0.1","71","1","2025-01-31 01:42:05","af8d355d56820e421d246a7037deb6e6","154.7.225.221","Mozilla/5.0 (Windows NT 10.0; Win64; x64) AppleWebKit/537.36 (KHTML, like Gecko) Chrome/132.0.0.0 Safari/537.36","WebKit","Chrome","132.0.0.0","Windows","10.0","https://app.prolific.com/","en-US,en;q=0.9","6712fc1608041fe311ca2221","67949641171f97c04e14fb34","679c24917c35a6a9109d898d","","307","","1","Intro Trial",""
"","","","","","html-button-response","6","240972","0.0-4.2-0.2-0.2","71","1","2025-01-31 01:42:05","af8d355d56820e421d246a7037deb6e6","154.7.225.221","Mozilla/5.0 (Windows NT 10.0; Win64; x64) AppleWebKit/537.36 (KHTML, like Gecko) Chrome/132.0.0.0 Safari/537.36","WebKit","Chrome","132.0.0.0","Windows","10.0","https://app.prolific.com/","en-US,en;q=0.9","6712fc1608041fe311ca2221","67949641171f97c04e14fb34","679c24917c35a6a9109d898d","","699","","1","Intro Trial",""
"","","","","","html-button-response","7","241753","0.0-4.3-0.3-0.3","71","1","2025-01-31 01:42:05","af8d355d56820e421d246a7037deb6e6","154.7.225.221","Mozilla/5.0 (Windows NT 10.0; Win64; x64) AppleWebKit/537.36 (KHTML, like Gecko) Chrome/132.0.0.0 Safari/537.36","WebKit","Chrome","132.0.0.0","Windows","10.0","https://app.prolific.com/","en-US,en;q=0.9","6712fc1608041fe311ca2221","67949641171f97c04e14fb34","679c24917c35a6a9109d898d","","777","","0","Intro Trial",""
"","","","","","html-button-response","8","243267","0.0-4.4-0.4-0.4","71","1","2025-01-31 01:42:05","af8d355d56820e421d246a7037deb6e6","154.7.225.221","Mozilla/5.0 (Windows NT 10.0; Win64; x64) AppleWebKit/537.36 (KHTML, like Gecko) Chrome/132.0.0.0 Safari/537.36","WebKit","Chrome","132.0.0.0","Windows","10.0","https://app.prolific.com/","en-US,en;q=0.9","6712fc1608041fe311ca2221","67949641171f97c04e14fb34","679c24917c35a6a9109d898d","","1511","","3","Intro Trial",""
"","","","","","html-button-response","9","243526","0.0-4.5-0.5-0.5","71","1","2025-01-31 01:42:05","af8d355d56820e421d246a7037deb6e6","154.7.225.221","Mozilla/5.0 (Windows NT 10.0; Win64; x64) AppleWebKit/537.36 (KHTML, like Gecko) Chrome/132.0.0.0 Safari/537.36","WebKit","Chrome","132.0.0.0","Windows","10.0","https://app.prolific.com/","en-US,en;q=0.9","6712fc1608041fe311ca2221","67949641171f97c04e14fb34","679c24917c35a6a9109d898d","","257","","2","Intro Trial",""
"","","","","","html-button-response","10","244525","0.0-4.6-0.6-0.6","71","1","2025-01-31 01:42:05","af8d355d56820e421d246a7037deb6e6","154.7.225.221","Mozilla/5.0 (Windows NT 10.0; Win64; x64) AppleWebKit/537.36 (KHTML, like Gecko) Chrome/132.0.0.0 Safari/537.36","WebKit","Chrome","132.0.0.0","Windows","10.0","https://app.prolific.com/","en-US,en;q=0.9","6712fc1608041fe311ca2221","67949641171f97c04e14fb34","679c24917c35a6a9109d898d","","994","","4","Intro Trial",""
"","","","","","html-button-response","11","244794","0.0-4.7-0.7-0.7","71","1","2025-01-31 01:42:05","af8d355d56820e421d246a7037deb6e6","154.7.225.221","Mozilla/5.0 (Windows NT 10.0; Win64; x64) AppleWebKit/537.36 (KHTML, like Gecko) Chrome/132.0.0.0 Safari/537.36","WebKit","Chrome","132.0.0.0","Windows","10.0","https://app.prolific.com/","en-US,en;q=0.9","6712fc1608041fe311ca2221","67949641171f97c04e14fb34","679c24917c35a6a9109d898d","","265","","3","Intro Trial",""
"","","","","","html-button-response","12","245953","0.0-4.8-0.8-0.8","71","1","2025-01-31 01:42:05","af8d355d56820e421d246a7037deb6e6","154.7.225.221","Mozilla/5.0 (Windows NT 10.0; Win64; x64) AppleWebKit/537.36 (KHTML, like Gecko) Chrome/132.0.0.0 Safari/537.36","WebKit","Chrome","132.0.0.0","Windows","10.0","https://app.prolific.com/","en-US,en;q=0.9","6712fc1608041fe311ca2221","67949641171f97c04e14fb34","679c24917c35a6a9109d898d","","1154","","3","Intro Trial",""
"","","","","","html-button-response","13","246186","0.0-4.9-0.9-0.9","71","1","2025-01-31 01:42:05","af8d355d56820e421d246a7037deb6e6","154.7.225.221","Mozilla/5.0 (Windows NT 10.0; Win64; x64) AppleWebKit/537.36 (KHTML, like Gecko) Chrome/132.0.0.0 Safari/537.36","WebKit","Chrome","132.0.0.0","Windows","10.0","https://app.prolific.com/","en-US,en;q=0.9","6712fc1608041fe311ca2221","67949641171f97c04e14fb34","679c24917c35a6a9109d898d","","230","","2","Intro Trial",""
"","","","","","html-button-response","14","247287","0.0-4.10-0.10-0.10","71","1","2025-01-31 01:42:05","af8d355d56820e421d246a7037deb6e6","154.7.225.221","Mozilla/5.0 (Windows NT 10.0; Win64; x64) AppleWebKit/537.36 (KHTML, like Gecko) Chrome/132.0.0.0 Safari/537.36","WebKit","Chrome","132.0.0.0","Windows","10.0","https://app.prolific.com/","en-US,en;q=0.9","6712fc1608041fe311ca2221","67949641171f97c04e14fb34","679c24917c35a6a9109d898d","","1098","","2","Intro Trial",""
"","","","","","html-button-response","15","247554","0.0-4.11-0.11-0.11","71","1","2025-01-31 01:42:05","af8d355d56820e421d246a7037deb6e6","154.7.225.221","Mozilla/5.0 (Windows NT 10.0; Win64; x64) AppleWebKit/537.36 (KHTML, like Gecko) Chrome/132.0.0.0 Safari/537.36","WebKit","Chrome","132.0.0.0","Windows","10.0","https://app.prolific.com/","en-US,en;q=0.9","6712fc1608041fe311ca2221","67949641171f97c04e14fb34","679c24917c35a6a9109d898d","","263","","1","Intro Trial",""
"","","","","","html-button-response","16","248622","0.0-4.12-0.12-0.12","71","1","2025-01-31 01:42:05","af8d355d56820e421d246a7037deb6e6","154.7.225.221","Mozilla/5.0 (Windows NT 10.0; Win64; x64) AppleWebKit/537.36 (KHTML, like Gecko) Chrome/132.0.0.0 Safari/537.36","WebKit","Chrome","132.0.0.0","Windows","10.0","https://app.prolific.com/","en-US,en;q=0.9","6712fc1608041fe311ca2221","67949641171f97c04e14fb34","679c24917c35a6a9109d898d","","1064","","1","Intro Trial",""
"","","","","","html-button-response","17","248936","0.0-4.13-0.13-0.13","71","1","2025-01-31 01:42:05","af8d355d56820e421d246a7037deb6e6","154.7.225.221","Mozilla/5.0 (Windows NT 10.0; Win64; x64) AppleWebKit/537.36 (KHTML, like Gecko) Chrome/132.0.0.0 Safari/537.36","WebKit","Chrome","132.0.0.0","Windows","10.0","https://app.prolific.com/","en-US,en;q=0.9","6712fc1608041fe311ca2221","67949641171f97c04e14fb34","679c24917c35a6a9109d898d","","310","","0","Intro Trial",""
"","","","","","html-button-response","18","250124","0.0-4.14-0.14-0.14","71","1","2025-01-31 01:42:05","af8d355d56820e421d246a7037deb6e6","154.7.225.221","Mozilla/5.0 (Windows NT 10.0; Win64; x64) AppleWebKit/537.36 (KHTML, like Gecko) Chrome/132.0.0.0 Safari/537.36","WebKit","Chrome","132.0.0.0","Windows","10.0","https://app.prolific.com/","en-US,en;q=0.9","6712fc1608041fe311ca2221","67949641171f97c04e14fb34","679c24917c35a6a9109d898d","","1184","","1","Intro Trial",""
"","","","","","html-button-response","19","250368","0.0-4.15-0.15-0.15","71","1","2025-01-31 01:42:05","af8d355d56820e421d246a7037deb6e6","154.7.225.221","Mozilla/5.0 (Windows NT 10.0; Win64; x64) AppleWebKit/537.36 (KHTML, like Gecko) Chrome/132.0.0.0 Safari/537.36","WebKit","Chrome","132.0.0.0","Windows","10.0","https://app.prolific.com/","en-US,en;q=0.9","6712fc1608041fe311ca2221","67949641171f97c04e14fb34","679c24917c35a6a9109d898d","","240","","2","Intro Trial",""
"","","","","","html-button-response","20","250723","0.0-4.16-0.16-0.16","71","1","2025-01-31 01:42:05","af8d355d56820e421d246a7037deb6e6","154.7.225.221","Mozilla/5.0 (Windows NT 10.0; Win64; x64) AppleWebKit/537.36 (KHTML, like Gecko) Chrome/132.0.0.0 Safari/537.36","WebKit","Chrome","132.0.0.0","Windows","10.0","https://app.prolific.com/","en-US,en;q=0.9","6712fc1608041fe311ca2221","67949641171f97c04e14fb34","679c24917c35a6a9109d898d","","352","","2","Intro Trial",""
"","","","","","html-button-response","21","251403","0.0-4.17-0.17-0.17","71","1","2025-01-31 01:42:05","af8d355d56820e421d246a7037deb6e6","154.7.225.221","Mozilla/5.0 (Windows NT 10.0; Win64; x64) AppleWebKit/537.36 (KHTML, like Gecko) Chrome/132.0.0.0 Safari/537.36","WebKit","Chrome","132.0.0.0","Windows","10.0","https://app.prolific.com/","en-US,en;q=0.9","6712fc1608041fe311ca2221","67949641171f97c04e14fb34","679c24917c35a6a9109d898d","","676","","3","Intro Trial",""
"","","","","","html-button-response","22","251709","0.0-4.18-0.18-0.18","71","1","2025-01-31 01:42:05","af8d355d56820e421d246a7037deb6e6","154.7.225.221","Mozilla/5.0 (Windows NT 10.0; Win64; x64) AppleWebKit/537.36 (KHTML, like Gecko) Chrome/132.0.0.0 Safari/537.36","WebKit","Chrome","132.0.0.0","Windows","10.0","https://app.prolific.com/","en-US,en;q=0.9","6712fc1608041fe311ca2221","67949641171f97c04e14fb34","679c24917c35a6a9109d898d","","303","","4","Intro Trial",""
"","","","","","html-button-response","23","253269","0.0-4.19-0.19-0.19","71","1","2025-01-31 01:42:05","af8d355d56820e421d246a7037deb6e6","154.7.225.221","Mozilla/5.0 (Windows NT 10.0; Win64; x64) AppleWebKit/537.36 (KHTML, like Gecko) Chrome/132.0.0.0 Safari/537.36","WebKit","Chrome","132.0.0.0","Windows","10.0","https://app.prolific.com/","en-US,en;q=0.9","6712fc1608041fe311ca2221","67949641171f97c04e14fb34","679c24917c35a6a9109d898d","","1556","","5","Intro Trial",""
"","","","","","html-keyboard-response","24","255744","0.0-5.0","71","1","2025-01-31 01:42:05","af8d355d56820e421d246a7037deb6e6","154.7.225.221","Mozilla/5.0 (Windows NT 10.0; Win64; x64) AppleWebKit/537.36 (KHTML, like Gecko) Chrome/132.0.0.0 Safari/537.36","WebKit","Chrome","132.0.0.0","Windows","10.0","https://app.prolific.com/","en-US,en;q=0.9","6712fc1608041fe311ca2221","67949641171f97c04e14fb34","679c24917c35a6a9109d898d","","2471","[""You sorted correctly by using the balance 9 times. <br><br> <img src='G_5.jpg' height='90'><img src='G_2.jpg' height='90'><img src='G_3.jpg' height='90'><img src='G_1.jpg' height='90'><img src='G_4.jpg' height='90'><br><br> Your final order is 1,2,3,4,5<br><br><br>Omgne Sort in this game will allow you to sort correctly by using the balance 8 times. Press Enter to learn it!""]","enter","",""
"","","","","","html-keyboard-response","25","256453","0.0-6.0","71","1","2025-01-31 01:42:05","af8d355d56820e421d246a7037deb6e6","154.7.225.221","Mozilla/5.0 (Windows NT 10.0; Win64; x64) AppleWebKit/537.36 (KHTML, like Gecko) Chrome/132.0.0.0 Safari/537.36","WebKit","Chrome","132.0.0.0","Windows","10.0","https://app.prolific.com/","en-US,en;q=0.9","6712fc1608041fe311ca2221","67949641171f97c04e14fb34","679c24917c35a6a9109d898d","","706","<p>Welcome to the learning phase! <br><br> You will learn by six examples. The following learning trials will not be used to calculate your performance. <br><br> Press Enter to continue.<p/>","enter","",""
"","","","","","html-keyboard-response","26","893545","0.0-7.0","71","1","2025-01-31 01:42:05","af8d355d56820e421d246a7037deb6e6","154.7.225.221","Mozilla/5.0 (Windows NT 10.0; Win64; x64) AppleWebKit/537.36 (KHTML, like Gecko) Chrome/132.0.0.0 Safari/537.36","WebKit","Chrome","132.0.0.0","Windows","10.0","https://app.prolific.com/","en-US,en;q=0.9","6712fc1608041fe311ca2221","67949641171f97c04e14fb34","679c24917c35a6a9109d898d","","637089","[""Example 1<br><br>You will watch Omnge Sort in action. Try to identify any patterns in the comparisons made by this method. <br><br>Press Enter to continue.""]","enter","",""
"","","","","","html-keyboard-response","27","894059","0.0-8.0","71","1","2025-01-31 01:42:05","af8d355d56820e421d246a7037deb6e6","154.7.225.221","Mozilla/5.0 (Windows NT 10.0; Win64; x64) AppleWebKit/537.36 (KHTML, like Gecko) Chrome/132.0.0.0 Safari/537.36","WebKit","Chrome","132.0.0.0","Windows","10.0","https://app.prolific.com/","en-US,en;q=0.9","6712fc1608041fe311ca2221","67949641171f97c04e14fb34","679c24917c35a6a9109d898d","","null","<img id='selected' src='G_7.jpg' height='90'> <img src='G_1.jpg' height='90'> <img src='G_3.jpg' height='90'> <img src='G_9.jpg' height='90'> <img src='G_5.jpg' height='90'>","null","Animation0",""
"","","","","","html-keyboard-response","28","894575","0.0-9.0","71","1","2025-01-31 01:42:05","af8d355d56820e421d246a7037deb6e6","154.7.225.221","Mozilla/5.0 (Windows NT 10.0; Win64; x64) AppleWebKit/537.36 (KHTML, like Gecko) Chrome/132.0.0.0 Safari/537.36","WebKit","Chrome","132.0.0.0","Windows","10.0","https://app.prolific.com/","en-US,en;q=0.9","6712fc1608041fe311ca2221","67949641171f97c04e14fb34","679c24917c35a6a9109d898d","","null","<img id='selected' src='G_7.jpg' height='90'> <img id='selected' src='G_1.jpg' height='90'> <img src='G_3.jpg' height='90'> <img src='G_9.jpg' height='90'> <img src='G_5.jpg' height='90'>","null","Animation0",""
"","","","","","html-keyboard-response","29","895290","0.0-10.0","71","1","2025-01-31 01:42:05","af8d355d56820e421d246a7037deb6e6","154.7.225.221","Mozilla/5.0 (Windows NT 10.0; Win64; x64) AppleWebKit/537.36 (KHTML, like Gecko) Chrome/132.0.0.0 Safari/537.36","WebKit","Chrome","132.0.0.0","Windows","10.0","https://app.prolific.com/","en-US,en;q=0.9","6712fc1608041fe311ca2221","67949641171f97c04e14fb34","679c24917c35a6a9109d898d","","null","<img id='swapped' src='G_1.jpg' height='90'> <img id='swapped' src='G_7.jpg' height='90'> <img src='G_3.jpg' height='90'> <img src='G_9.jpg' height='90'> <img src='G_5.jpg' height='90'>","null","Animation0",""
"","","","","","html-keyboard-response","30","896287","0.0-11.0","71","1","2025-01-31 01:42:05","af8d355d56820e421d246a7037deb6e6","154.7.225.221","Mozilla/5.0 (Windows NT 10.0; Win64; x64) AppleWebKit/537.36 (KHTML, like Gecko) Chrome/132.0.0.0 Safari/537.36","WebKit","Chrome","132.0.0.0","Windows","10.0","https://app.prolific.com/","en-US,en;q=0.9","6712fc1608041fe311ca2221","67949641171f97c04e14fb34","679c24917c35a6a9109d898d","","null","<img  src='G_1.jpg' height='90'> <img  src='G_7.jpg' height='90'> <img src='G_3.jpg' height='90'> <img src='G_9.jpg' height='90'> <img src='G_5.jpg' height='90'>","null","Animation0",""
"","","","","","html-keyboard-response","31","897288","0.0-12.0","71","1","2025-01-31 01:42:05","af8d355d56820e421d246a7037deb6e6","154.7.225.221","Mozilla/5.0 (Windows NT 10.0; Win64; x64) AppleWebKit/537.36 (KHTML, like Gecko) Chrome/132.0.0.0 Safari/537.36","WebKit","Chrome","132.0.0.0","Windows","10.0","https://app.prolific.com/","en-US,en;q=0.9","6712fc1608041fe311ca2221","67949641171f97c04e14fb34","679c24917c35a6a9109d898d","","null","<img  src='G_1.jpg' height='90'> <img id='selected'  src='G_7.jpg' height='90'> <img src='G_3.jpg' height='90'> <img src='G_9.jpg' height='90'> <img src='G_5.jpg' height='90'>","null","Animation0",""
"","","","","","html-keyboard-response","32","898285","0.0-13.0","71","1","2025-01-31 01:42:05","af8d355d56820e421d246a7037deb6e6","154.7.225.221","Mozilla/5.0 (Windows NT 10.0; Win64; x64) AppleWebKit/537.36 (KHTML, like Gecko) Chrome/132.0.0.0 Safari/537.36","WebKit","Chrome","132.0.0.0","Windows","10.0","https://app.prolific.com/","en-US,en;q=0.9","6712fc1608041fe311ca2221","67949641171f97c04e14fb34","679c24917c35a6a9109d898d","","null","<img  src='G_1.jpg' height='90'> <img id='selected'  src='G_7.jpg' height='90'> <img id='selected' src='G_3.jpg' height='90'> <img src='G_9.jpg' height='90'> <img src='G_5.jpg' height='90'>","null","Animation0",""
"","","","","","html-keyboard-response","33","899291","0.0-14.0","71","1","2025-01-31 01:42:05","af8d355d56820e421d246a7037deb6e6","154.7.225.221","Mozilla/5.0 (Windows NT 10.0; Win64; x64) AppleWebKit/537.36 (KHTML, like Gecko) Chrome/132.0.0.0 Safari/537.36","WebKit","Chrome","132.0.0.0","Windows","10.0","https://app.prolific.com/","en-US,en;q=0.9","6712fc1608041fe311ca2221","67949641171f97c04e14fb34","679c24917c35a6a9109d898d","","null","<img  src='G_1.jpg' height='90'> <img id='selected'  src='G_7.jpg' height='90'> <img id='selected' src='G_3.jpg' height='90'> <img src='G_9.jpg' height='90'> <img src='G_5.jpg' height='90'>","null","Animation0",""
"","","","","","html-keyboard-response","34","900283","0.0-15.0","71","1","2025-01-31 01:42:05","af8d355d56820e421d246a7037deb6e6","154.7.225.221","Mozilla/5.0 (Windows NT 10.0; Win64; x64) AppleWebKit/537.36 (KHTML, like Gecko) Chrome/132.0.0.0 Safari/537.36","WebKit","Chrome","132.0.0.0","Windows","10.0","https://app.prolific.com/","en-US,en;q=0.9","6712fc1608041fe311ca2221","67949641171f97c04e14fb34","679c24917c35a6a9109d898d","","null","<img  src='G_1.jpg' height='90'> <img   src='G_7.jpg' height='90'> <img  src='G_3.jpg' height='90'> <img src='G_9.jpg' height='90'> <img src='G_5.jpg' height='90'>","null","Animation0",""
"","","","","","html-keyboard-response","35","901285","0.0-16.0","71","1","2025-01-31 01:42:05","af8d355d56820e421d246a7037deb6e6","154.7.225.221","Mozilla/5.0 (Windows NT 10.0; Win64; x64) AppleWebKit/537.36 (KHTML, like Gecko) Chrome/132.0.0.0 Safari/537.36","WebKit","Chrome","132.0.0.0","Windows","10.0","https://app.prolific.com/","en-US,en;q=0.9","6712fc1608041fe311ca2221","67949641171f97c04e14fb34","679c24917c35a6a9109d898d","","null","<img  src='G_1.jpg' height='90'> <img   src='G_7.jpg' height='90'> <img id='selected'  src='G_3.jpg' height='90'> <img src='G_9.jpg' height='90'> <img src='G_5.jpg' height='90'>","null","Animation0",""
"","","","","","html-keyboard-response","36","902296","0.0-17.0","71","1","2025-01-31 01:42:05","af8d355d56820e421d246a7037deb6e6","154.7.225.221","Mozilla/5.0 (Windows NT 10.0; Win64; x64) AppleWebKit/537.36 (KHTML, like Gecko) Chrome/132.0.0.0 Safari/537.36","WebKit","Chrome","132.0.0.0","Windows","10.0","https://app.prolific.com/","en-US,en;q=0.9","6712fc1608041fe311ca2221","67949641171f97c04e14fb34","679c24917c35a6a9109d898d","","null","<img  src='G_1.jpg' height='90'> <img   src='G_7.jpg' height='90'> <img id='selected'  src='G_3.jpg' height='90'> <img id='selected' src='G_9.jpg' height='90'> <img src='G_5.jpg' height='90'>","null","Animation0",""
"","","","","","html-keyboard-response","37","903288","0.0-18.0","71","1","2025-01-31 01:42:05","af8d355d56820e421d246a7037deb6e6","154.7.225.221","Mozilla/5.0 (Windows NT 10.0; Win64; x64) AppleWebKit/537.36 (KHTML, like Gecko) Chrome/132.0.0.0 Safari/537.36","WebKit","Chrome","132.0.0.0","Windows","10.0","https://app.prolific.com/","en-US,en;q=0.9","6712fc1608041fe311ca2221","67949641171f97c04e14fb34","679c24917c35a6a9109d898d","","null","<img  src='G_1.jpg' height='90'> <img   src='G_7.jpg' height='90'> <img id='selected'  src='G_3.jpg' height='90'> <img id='selected' src='G_9.jpg' height='90'> <img src='G_5.jpg' height='90'>","null","Animation0",""
"","","","","","html-keyboard-response","38","904290","0.0-19.0","71","1","2025-01-31 01:42:05","af8d355d56820e421d246a7037deb6e6","154.7.225.221","Mozilla/5.0 (Windows NT 10.0; Win64; x64) AppleWebKit/537.36 (KHTML, like Gecko) Chrome/132.0.0.0 Safari/537.36","WebKit","Chrome","132.0.0.0","Windows","10.0","https://app.prolific.com/","en-US,en;q=0.9","6712fc1608041fe311ca2221","67949641171f97c04e14fb34","679c24917c35a6a9109d898d","","null","<img  src='G_1.jpg' height='90'> <img   src='G_7.jpg' height='90'> <img   src='G_3.jpg' height='90'> <img  src='G_9.jpg' height='90'> <img src='G_5.jpg' height='90'>","null","Animation0",""
"","","","","","html-keyboard-response","39","905290","0.0-20.0","71","1","2025-01-31 01:42:05","af8d355d56820e421d246a7037deb6e6","154.7.225.221","Mozilla/5.0 (Windows NT 10.0; Win64; x64) AppleWebKit/537.36 (KHTML, like Gecko) Chrome/132.0.0.0 Safari/537.36","WebKit","Chrome","132.0.0.0","Windows","10.0","https://app.prolific.com/","en-US,en;q=0.9","6712fc1608041fe311ca2221","67949641171f97c04e14fb34","679c24917c35a6a9109d898d","","null","<img  src='G_1.jpg' height='90'> <img   src='G_7.jpg' height='90'> <img   src='G_3.jpg' height='90'> <img id='selected'  src='G_9.jpg' height='90'> <img src='G_5.jpg' height='90'>","null","Animation0",""
"","","","","","html-keyboard-response","40","906295","0.0-21.0","71","1","2025-01-31 01:42:05","af8d355d56820e421d246a7037deb6e6","154.7.225.221","Mozilla/5.0 (Windows NT 10.0; Win64; x64) AppleWebKit/537.36 (KHTML, like Gecko) Chrome/132.0.0.0 Safari/537.36","WebKit","Chrome","132.0.0.0","Windows","10.0","https://app.prolific.com/","en-US,en;q=0.9","6712fc1608041fe311ca2221","67949641171f97c04e14fb34","679c24917c35a6a9109d898d","","null","<img  src='G_1.jpg' height='90'> <img   src='G_7.jpg' height='90'> <img   src='G_3.jpg' height='90'> <img id='selected'  src='G_9.jpg' height='90'> <img id='selected' src='G_5.jpg' height='90'>","null","Animation0",""
"","","","","","html-keyboard-response","41","907293","0.0-22.0","71","1","2025-01-31 01:42:05","af8d355d56820e421d246a7037deb6e6","154.7.225.221","Mozilla/5.0 (Windows NT 10.0; Win64; x64) AppleWebKit/537.36 (KHTML, like Gecko) Chrome/132.0.0.0 Safari/537.36","WebKit","Chrome","132.0.0.0","Windows","10.0","https://app.prolific.com/","en-US,en;q=0.9","6712fc1608041fe311ca2221","67949641171f97c04e14fb34","679c24917c35a6a9109d898d","","null","<img  src='G_1.jpg' height='90'> <img   src='G_7.jpg' height='90'> <img   src='G_3.jpg' height='90'> <img id='selected'  src='G_9.jpg' height='90'> <img id='selected' src='G_5.jpg' height='90'>","null","Animation0",""
"","","","","","html-keyboard-response","42","908284","0.0-23.0","71","1","2025-01-31 01:42:05","af8d355d56820e421d246a7037deb6e6","154.7.225.221","Mozilla/5.0 (Windows NT 10.0; Win64; x64) AppleWebKit/537.36 (KHTML, like Gecko) Chrome/132.0.0.0 Safari/537.36","WebKit","Chrome","132.0.0.0","Windows","10.0","https://app.prolific.com/","en-US,en;q=0.9","6712fc1608041fe311ca2221","67949641171f97c04e14fb34","679c24917c35a6a9109d898d","","null","<img  src='G_1.jpg' height='90'> <img   src='G_7.jpg' height='90'> <img   src='G_3.jpg' height='90'> <img   src='G_9.jpg' height='90'> <img  src='G_5.jpg' height='90'>","null","Animation0",""
"","","","","","html-keyboard-response","43","3550917","0.0-24.0","71","1","2025-01-31 01:42:05","af8d355d56820e421d246a7037deb6e6","154.7.225.221","Mozilla/5.0 (Windows NT 10.0; Win64; x64) AppleWebKit/537.36 (KHTML, like Gecko) Chrome/132.0.0.0 Safari/537.36","WebKit","Chrome","132.0.0.0","Windows","10.0","https://app.prolific.com/","en-US,en;q=0.9","6712fc1608041fe311ca2221","67949641171f97c04e14fb34","679c24917c35a6a9109d898d","","2642627","[""Did you notice any patterns? <br><br>Press Enter to watch that example again and follow the steps of Omgne Sort.""]","enter","",""
"","","","","","html-button-response","44","3551327","0.0-25.0","71","1","2025-01-31 01:42:05","af8d355d56820e421d246a7037deb6e6","154.7.225.221","Mozilla/5.0 (Windows NT 10.0; Win64; x64) AppleWebKit/537.36 (KHTML, like Gecko) Chrome/132.0.0.0 Safari/537.36","WebKit","Chrome","132.0.0.0","Windows","10.0","https://app.prolific.com/","en-US,en;q=0.9","6712fc1608041fe311ca2221","67949641171f97c04e14fb34","679c24917c35a6a9109d898d","","null","<img id='selected' src='G_7.jpg' height='90'> <img src='G_1.jpg' height='90'> <img src='G_3.jpg' height='90'> <img src='G_9.jpg' height='90'> <img src='G_5.jpg' height='90'>","null","Learning example 0",""
"","","","","","html-button-response","45","3551646","0.0-26.0","71","1","2025-01-31 01:42:05","af8d355d56820e421d246a7037deb6e6","154.7.225.221","Mozilla/5.0 (Windows NT 10.0; Win64; x64) AppleWebKit/537.36 (KHTML, like Gecko) Chrome/132.0.0.0 Safari/537.36","WebKit","Chrome","132.0.0.0","Windows","10.0","https://app.prolific.com/","en-US,en;q=0.9","6712fc1608041fe311ca2221","67949641171f97c04e14fb34","679c24917c35a6a9109d898d","","null","<img id='selected' src='G_7.jpg' height='90'> <img id='selected' src='G_1.jpg' height='90'> <img src='G_3.jpg' height='90'> <img src='G_9.jpg' height='90'> <img src='G_5.jpg' height='90'>","null","Learning example 0",""
"","","","","","html-button-response","46","3551959","0.0-27.0","71","1","2025-01-31 01:42:05","af8d355d56820e421d246a7037deb6e6","154.7.225.221","Mozilla/5.0 (Windows NT 10.0; Win64; x64) AppleWebKit/537.36 (KHTML, like Gecko) Chrome/132.0.0.0 Safari/537.36","WebKit","Chrome","132.0.0.0","Windows","10.0","https://app.prolific.com/","en-US,en;q=0.9","6712fc1608041fe311ca2221","67949641171f97c04e14fb34","679c24917c35a6a9109d898d","","null","<img id='swapped' src='G_1.jpg' height='90'> <img id='swapped' src='G_7.jpg' height='90'> <img src='G_3.jpg' height='90'> <img src='G_9.jpg' height='90'> <img src='G_5.jpg' height='90'>","null","Learning example 0",""
"","","","","","html-button-response","47","3557667","0.0-28.0-0.0-0.0","71","1","2025-01-31 01:42:05","af8d355d56820e421d246a7037deb6e6","154.7.225.221","Mozilla/5.0 (Windows NT 10.0; Win64; x64) AppleWebKit/537.36 (KHTML, like Gecko) Chrome/132.0.0.0 Safari/537.36","WebKit","Chrome","132.0.0.0","Windows","10.0","https://app.prolific.com/","en-US,en;q=0.9","6712fc1608041fe311ca2221","67949641171f97c04e14fb34","679c24917c35a6a9109d898d","","5700","<img id='swapped' src='G_1.jpg' height='90'> <img id='swapped' src='G_7.jpg' height='90'> <img src='G_3.jpg' height='90'> <img src='G_9.jpg' height='90'> <img src='G_5.jpg' height='90'>","1","Learning example 0",""
"","","","","","html-button-response","48","3557919","0.0-28.1-0.1-0.1","71","1","2025-01-31 01:42:05","af8d355d56820e421d246a7037deb6e6","154.7.225.221","Mozilla/5.0 (Windows NT 10.0; Win64; x64) AppleWebKit/537.36 (KHTML, like Gecko) Chrome/132.0.0.0 Safari/537.36","WebKit","Chrome","132.0.0.0","Windows","10.0","https://app.prolific.com/","en-US,en;q=0.9","6712fc1608041fe311ca2221","67949641171f97c04e14fb34","679c24917c35a6a9109d898d","","245","<img id='swapped' src='G_1.jpg' height='90'> <img id='swapped' src='G_7.jpg' height='90'> <img src='G_3.jpg' height='90'> <img src='G_9.jpg' height='90'> <img src='G_5.jpg' height='90'>","0","Learning example 0",""
"","","","","","html-button-response","49","3558134","0.0-29.0","71","1","2025-01-31 01:42:05","af8d355d56820e421d246a7037deb6e6","154.7.225.221","Mozilla/5.0 (Windows NT 10.0; Win64; x64) AppleWebKit/537.36 (KHTML, like Gecko) Chrome/132.0.0.0 Safari/537.36","WebKit","Chrome","132.0.0.0","Windows","10.0","https://app.prolific.com/","en-US,en;q=0.9","6712fc1608041fe311ca2221","67949641171f97c04e14fb34","679c24917c35a6a9109d898d","","null","<img  src='G_1.jpg' height='90'> <img  src='G_7.jpg' height='90'> <img src='G_3.jpg' height='90'> <img src='G_9.jpg' height='90'> <img src='G_5.jpg' height='90'>","null","Learning example 0",""
"","","","","","html-button-response","50","3558553","0.0-30.0","71","1","2025-01-31 01:42:05","af8d355d56820e421d246a7037deb6e6","154.7.225.221","Mozilla/5.0 (Windows NT 10.0; Win64; x64) AppleWebKit/537.36 (KHTML, like Gecko) Chrome/132.0.0.0 Safari/537.36","WebKit","Chrome","132.0.0.0","Windows","10.0","https://app.prolific.com/","en-US,en;q=0.9","6712fc1608041fe311ca2221","67949641171f97c04e14fb34","679c24917c35a6a9109d898d","","null","<img  src='G_1.jpg' height='90'> <img id='selected'  src='G_7.jpg' height='90'> <img src='G_3.jpg' height='90'> <img src='G_9.jpg' height='90'> <img src='G_5.jpg' height='90'>","null","Learning example 0",""
"","","","","","html-button-response","51","3558874","0.0-31.0","71","1","2025-01-31 01:42:05","af8d355d56820e421d246a7037deb6e6","154.7.225.221","Mozilla/5.0 (Windows NT 10.0; Win64; x64) AppleWebKit/537.36 (KHTML, like Gecko) Chrome/132.0.0.0 Safari/537.36","WebKit","Chrome","132.0.0.0","Windows","10.0","https://app.prolific.com/","en-US,en;q=0.9","6712fc1608041fe311ca2221","67949641171f97c04e14fb34","679c24917c35a6a9109d898d","","null","<img  src='G_1.jpg' height='90'> <img id='selected'  src='G_7.jpg' height='90'> <img id='selected' src='G_3.jpg' height='90'> <img src='G_9.jpg' height='90'> <img src='G_5.jpg' height='90'>","null","Learning example 0",""
"","","","","","html-button-response","52","3559191","0.0-32.0","71","1","2025-01-31 01:42:05","af8d355d56820e421d246a7037deb6e6","154.7.225.221","Mozilla/5.0 (Windows NT 10.0; Win64; x64) AppleWebKit/537.36 (KHTML, like Gecko) Chrome/132.0.0.0 Safari/537.36","WebKit","Chrome","132.0.0.0","Windows","10.0","https://app.prolific.com/","en-US,en;q=0.9","6712fc1608041fe311ca2221","67949641171f97c04e14fb34","679c24917c35a6a9109d898d","","null","<img  src='G_1.jpg' height='90'> <img id='selected'  src='G_7.jpg' height='90'> <img id='selected' src='G_3.jpg' height='90'> <img src='G_9.jpg' height='90'> <img src='G_5.jpg' height='90'>","null","Learning example 0",""
"","","","","","html-button-response","53","3563675","0.0-33.0-0.0-0.0","71","1","2025-01-31 01:42:05","af8d355d56820e421d246a7037deb6e6","154.7.225.221","Mozilla/5.0 (Windows NT 10.0; Win64; x64) AppleWebKit/537.36 (KHTML, like Gecko) Chrome/132.0.0.0 Safari/537.36","WebKit","Chrome","132.0.0.0","Windows","10.0","https://app.prolific.com/","en-US,en;q=0.9","6712fc1608041fe311ca2221","67949641171f97c04e14fb34","679c24917c35a6a9109d898d","","4479","<img  src='G_1.jpg' height='90'> <img id='selected'  src='G_7.jpg' height='90'> <img id='selected' src='G_3.jpg' height='90'> <img src='G_9.jpg' height='90'> <img src='G_5.jpg' height='90'>","2","Learning example 0",""
"","","","","","html-button-response","54","3564039","0.0-33.1-0.1-0.1","71","1","2025-01-31 01:42:05","af8d355d56820e421d246a7037deb6e6","154.7.225.221","Mozilla/5.0 (Windows NT 10.0; Win64; x64) AppleWebKit/537.36 (KHTML, like Gecko) Chrome/132.0.0.0 Safari/537.36","WebKit","Chrome","132.0.0.0","Windows","10.0","https://app.prolific.com/","en-US,en;q=0.9","6712fc1608041fe311ca2221","67949641171f97c04e14fb34","679c24917c35a6a9109d898d","","358","<img  src='G_1.jpg' height='90'> <img id='selected'  src='G_7.jpg' height='90'> <img id='selected' src='G_3.jpg' height='90'> <img src='G_9.jpg' height='90'> <img src='G_5.jpg' height='90'>","1","Learning example 0",""
"","","","","","html-button-response","55","3564254","0.0-34.0","71","1","2025-01-31 01:42:05","af8d355d56820e421d246a7037deb6e6","154.7.225.221","Mozilla/5.0 (Windows NT 10.0; Win64; x64) AppleWebKit/537.36 (KHTML, like Gecko) Chrome/132.0.0.0 Safari/537.36","WebKit","Chrome","132.0.0.0","Windows","10.0","https://app.prolific.com/","en-US,en;q=0.9","6712fc1608041fe311ca2221","67949641171f97c04e14fb34","679c24917c35a6a9109d898d","","null","<img  src='G_1.jpg' height='90'> <img   src='G_7.jpg' height='90'> <img  src='G_3.jpg' height='90'> <img src='G_9.jpg' height='90'> <img src='G_5.jpg' height='90'>","null","Learning example 0",""
"","","","","","html-button-response","56","3564661","0.0-35.0","71","1","2025-01-31 01:42:05","af8d355d56820e421d246a7037deb6e6","154.7.225.221","Mozilla/5.0 (Windows NT 10.0; Win64; x64) AppleWebKit/537.36 (KHTML, like Gecko) Chrome/132.0.0.0 Safari/537.36","WebKit","Chrome","132.0.0.0","Windows","10.0","https://app.prolific.com/","en-US,en;q=0.9","6712fc1608041fe311ca2221","67949641171f97c04e14fb34","679c24917c35a6a9109d898d","","null","<img  src='G_1.jpg' height='90'> <img   src='G_7.jpg' height='90'> <img id='selected'  src='G_3.jpg' height='90'> <img src='G_9.jpg' height='90'> <img src='G_5.jpg' height='90'>","null","Learning example 0",""
"","","","","","html-button-response","57","3564973","0.0-36.0","71","1","2025-01-31 01:42:05","af8d355d56820e421d246a7037deb6e6","154.7.225.221","Mozilla/5.0 (Windows NT 10.0; Win64; x64) AppleWebKit/537.36 (KHTML, like Gecko) Chrome/132.0.0.0 Safari/537.36","WebKit","Chrome","132.0.0.0","Windows","10.0","https://app.prolific.com/","en-US,en;q=0.9","6712fc1608041fe311ca2221","67949641171f97c04e14fb34","679c24917c35a6a9109d898d","","null","<img  src='G_1.jpg' height='90'> <img   src='G_7.jpg' height='90'> <img id='selected'  src='G_3.jpg' height='90'> <img id='selected' src='G_9.jpg' height='90'> <img src='G_5.jpg' height='90'>","null","Learning example 0",""
"","","","","","html-button-response","58","3565290","0.0-37.0","71","1","2025-01-31 01:42:05","af8d355d56820e421d246a7037deb6e6","154.7.225.221","Mozilla/5.0 (Windows NT 10.0; Win64; x64) AppleWebKit/537.36 (KHTML, like Gecko) Chrome/132.0.0.0 Safari/537.36","WebKit","Chrome","132.0.0.0","Windows","10.0","https://app.prolific.com/","en-US,en;q=0.9","6712fc1608041fe311ca2221","67949641171f97c04e14fb34","679c24917c35a6a9109d898d","","null","<img  src='G_1.jpg' height='90'> <img   src='G_7.jpg' height='90'> <img id='selected'  src='G_3.jpg' height='90'> <img id='selected' src='G_9.jpg' height='90'> <img src='G_5.jpg' height='90'>","null","Learning example 0",""
"","","","","","html-button-response","59","3565687","0.0-38.0-0.0-0.0","71","1","2025-01-31 01:42:05","af8d355d56820e421d246a7037deb6e6","154.7.225.221","Mozilla/5.0 (Windows NT 10.0; Win64; x64) AppleWebKit/537.36 (KHTML, like Gecko) Chrome/132.0.0.0 Safari/537.36","WebKit","Chrome","132.0.0.0","Windows","10.0","https://app.prolific.com/","en-US,en;q=0.9","6712fc1608041fe311ca2221","67949641171f97c04e14fb34","679c24917c35a6a9109d898d","","389","<img  src='G_1.jpg' height='90'> <img   src='G_7.jpg' height='90'> <img id='selected'  src='G_3.jpg' height='90'> <img id='selected' src='G_9.jpg' height='90'> <img src='G_5.jpg' height='90'>","3","Learning example 0",""
"","","","","","html-button-response","60","3565908","0.0-38.1-0.1-0.1","71","1","2025-01-31 01:42:05","af8d355d56820e421d246a7037deb6e6","154.7.225.221","Mozilla/5.0 (Windows NT 10.0; Win64; x64) AppleWebKit/537.36 (KHTML, like Gecko) Chrome/132.0.0.0 Safari/537.36","WebKit","Chrome","132.0.0.0","Windows","10.0","https://app.prolific.com/","en-US,en;q=0.9","6712fc1608041fe311ca2221","67949641171f97c04e14fb34","679c24917c35a6a9109d898d","","217","<img  src='G_1.jpg' height='90'> <img   src='G_7.jpg' height='90'> <img id='selected'  src='G_3.jpg' height='90'> <img id='selected' src='G_9.jpg' height='90'> <img src='G_5.jpg' height='90'>","2","Learning example 0",""
"","","","","","html-button-response","61","3566122","0.0-39.0","71","1","2025-01-31 01:42:05","af8d355d56820e421d246a7037deb6e6","154.7.225.221","Mozilla/5.0 (Windows NT 10.0; Win64; x64) AppleWebKit/537.36 (KHTML, like Gecko) Chrome/132.0.0.0 Safari/537.36","WebKit","Chrome","132.0.0.0","Windows","10.0","https://app.prolific.com/","en-US,en;q=0.9","6712fc1608041fe311ca2221","67949641171f97c04e14fb34","679c24917c35a6a9109d898d","","null","<img  src='G_1.jpg' height='90'> <img   src='G_7.jpg' height='90'> <img   src='G_3.jpg' height='90'> <img  src='G_9.jpg' height='90'> <img src='G_5.jpg' height='90'>","null","Learning example 0",""
"","","","","","html-button-response","62","3566535","0.0-40.0","71","1","2025-01-31 01:42:05","af8d355d56820e421d246a7037deb6e6","154.7.225.221","Mozilla/5.0 (Windows NT 10.0; Win64; x64) AppleWebKit/537.36 (KHTML, like Gecko) Chrome/132.0.0.0 Safari/537.36","WebKit","Chrome","132.0.0.0","Windows","10.0","https://app.prolific.com/","en-US,en;q=0.9","6712fc1608041fe311ca2221","67949641171f97c04e14fb34","679c24917c35a6a9109d898d","","null","<img  src='G_1.jpg' height='90'> <img   src='G_7.jpg' height='90'> <img   src='G_3.jpg' height='90'> <img id='selected'  src='G_9.jpg' height='90'> <img src='G_5.jpg' height='90'>","null","Learning example 0",""
"","","","","","html-button-response","63","3566854","0.0-41.0","71","1","2025-01-31 01:42:05","af8d355d56820e421d246a7037deb6e6","154.7.225.221","Mozilla/5.0 (Windows NT 10.0; Win64; x64) AppleWebKit/537.36 (KHTML, like Gecko) Chrome/132.0.0.0 Safari/537.36","WebKit","Chrome","132.0.0.0","Windows","10.0","https://app.prolific.com/","en-US,en;q=0.9","6712fc1608041fe311ca2221","67949641171f97c04e14fb34","679c24917c35a6a9109d898d","","null","<img  src='G_1.jpg' height='90'> <img   src='G_7.jpg' height='90'> <img   src='G_3.jpg' height='90'> <img id='selected'  src='G_9.jpg' height='90'> <img id='selected' src='G_5.jpg' height='90'>","null","Learning example 0",""
"","","","","","html-button-response","64","3567164","0.0-42.0","71","1","2025-01-31 01:42:05","af8d355d56820e421d246a7037deb6e6","154.7.225.221","Mozilla/5.0 (Windows NT 10.0; Win64; x64) AppleWebKit/537.36 (KHTML, like Gecko) Chrome/132.0.0.0 Safari/537.36","WebKit","Chrome","132.0.0.0","Windows","10.0","https://app.prolific.com/","en-US,en;q=0.9","6712fc1608041fe311ca2221","67949641171f97c04e14fb34","679c24917c35a6a9109d898d","","null","<img  src='G_1.jpg' height='90'> <img   src='G_7.jpg' height='90'> <img   src='G_3.jpg' height='90'> <img id='selected'  src='G_9.jpg' height='90'> <img id='selected' src='G_5.jpg' height='90'>","null","Learning example 0",""
"","","","","","html-button-response","65","3567807","0.0-43.0-0.0-0.0","71","1","2025-01-31 01:42:05","af8d355d56820e421d246a7037deb6e6","154.7.225.221","Mozilla/5.0 (Windows NT 10.0; Win64; x64) AppleWebKit/537.36 (KHTML, like Gecko) Chrome/132.0.0.0 Safari/537.36","WebKit","Chrome","132.0.0.0","Windows","10.0","https://app.prolific.com/","en-US,en;q=0.9","6712fc1608041fe311ca2221","67949641171f97c04e14fb34","679c24917c35a6a9109d898d","","637","<img  src='G_1.jpg' height='90'> <img   src='G_7.jpg' height='90'> <img   src='G_3.jpg' height='90'> <img id='selected'  src='G_9.jpg' height='90'> <img id='selected' src='G_5.jpg' height='90'>","3","Learning example 0",""
"","","","","","html-button-response","66","3568101","0.0-43.1-0.1-0.1","71","1","2025-01-31 01:42:05","af8d355d56820e421d246a7037deb6e6","154.7.225.221","Mozilla/5.0 (Windows NT 10.0; Win64; x64) AppleWebKit/537.36 (KHTML, like Gecko) Chrome/132.0.0.0 Safari/537.36","WebKit","Chrome","132.0.0.0","Windows","10.0","https://app.prolific.com/","en-US,en;q=0.9","6712fc1608041fe311ca2221","67949641171f97c04e14fb34","679c24917c35a6a9109d898d","","287","<img  src='G_1.jpg' height='90'> <img   src='G_7.jpg' height='90'> <img   src='G_3.jpg' height='90'> <img id='selected'  src='G_9.jpg' height='90'> <img id='selected' src='G_5.jpg' height='90'>","4","Learning example 0",""
"","","","","","html-button-response","67","3568325","0.0-44.0","71","1","2025-01-31 01:42:05","af8d355d56820e421d246a7037deb6e6","154.7.225.221","Mozilla/5.0 (Windows NT 10.0; Win64; x64) AppleWebKit/537.36 (KHTML, like Gecko) Chrome/132.0.0.0 Safari/537.36","WebKit","Chrome","132.0.0.0","Windows","10.0","https://app.prolific.com/","en-US,en;q=0.9","6712fc1608041fe311ca2221","67949641171f97c04e14fb34","679c24917c35a6a9109d898d","","null","<img  src='G_1.jpg' height='90'> <img   src='G_7.jpg' height='90'> <img   src='G_3.jpg' height='90'> <img   src='G_9.jpg' height='90'> <img  src='G_5.jpg' height='90'>","null","Learning example 0",""
"","","","","","html-keyboard-response","68","3569971","0.0-45.0","71","1","2025-01-31 01:42:05","af8d355d56820e421d246a7037deb6e6","154.7.225.221","Mozilla/5.0 (Windows NT 10.0; Win64; x64) AppleWebKit/537.36 (KHTML, like Gecko) Chrome/132.0.0.0 Safari/537.36","WebKit","Chrome","132.0.0.0","Windows","10.0","https://app.prolific.com/","en-US,en;q=0.9","6712fc1608041fe311ca2221","67949641171f97c04e14fb34","679c24917c35a6a9109d898d","","1641","[""Final order was 1,2,3,4,5. The initial order was 2,1,3,4,5.<br>It took 1 swaps to sort it correctly with Omgne Sort. <br><br>Press Enter to continue.""]","enter","",""
"","","","","","html-keyboard-response","69","3570902","0.0-46.0","71","1","2025-01-31 01:42:05","af8d355d56820e421d246a7037deb6e6","154.7.225.221","Mozilla/5.0 (Windows NT 10.0; Win64; x64) AppleWebKit/537.36 (KHTML, like Gecko) Chrome/132.0.0.0 Safari/537.36","WebKit","Chrome","132.0.0.0","Windows","10.0","https://app.prolific.com/","en-US,en;q=0.9","6712fc1608041fe311ca2221","67949641171f97c04e14fb34","679c24917c35a6a9109d898d","","927","[""Example 2<br><br>You will watch Omnge Sort in action. Try to identify any patterns in the comparisons made by this method. <br><br>Press Enter to continue.""]","enter","",""
"","","","","","html-keyboard-response","70","3571412","0.0-47.0","71","1","2025-01-31 01:42:05","af8d355d56820e421d246a7037deb6e6","154.7.225.221","Mozilla/5.0 (Windows NT 10.0; Win64; x64) AppleWebKit/537.36 (KHTML, like Gecko) Chrome/132.0.0.0 Safari/537.36","WebKit","Chrome","132.0.0.0","Windows","10.0","https://app.prolific.com/","en-US,en;q=0.9","6712fc1608041fe311ca2221","67949641171f97c04e14fb34","679c24917c35a6a9109d898d","","null","<img id='selected' src='G_4.jpg' height='90'> <img src='G_5.jpg' height='90'> <img src='G_1.jpg' height='90'> <img src='G_3.jpg' height='90'> <img src='G_8.jpg' height='90'> <img src='G_7.jpg' height='90'> <img src='G_2.jpg' height='90'> <img src='G_6.jpg' height='90'>","null","Animation1",""
"","","","","","html-keyboard-response","71","3571935","0.0-48.0","71","1","2025-01-31 01:42:05","af8d355d56820e421d246a7037deb6e6","154.7.225.221","Mozilla/5.0 (Windows NT 10.0; Win64; x64) AppleWebKit/537.36 (KHTML, like Gecko) Chrome/132.0.0.0 Safari/537.36","WebKit","Chrome","132.0.0.0","Windows","10.0","https://app.prolific.com/","en-US,en;q=0.9","6712fc1608041fe311ca2221","67949641171f97c04e14fb34","679c24917c35a6a9109d898d","","null","<img id='selected' src='G_4.jpg' height='90'> <img id='selected' src='G_5.jpg' height='90'> <img src='G_1.jpg' height='90'> <img src='G_3.jpg' height='90'> <img src='G_8.jpg' height='90'> <img src='G_7.jpg' height='90'> <img src='G_2.jpg' height='90'> <img src='G_6.jpg' height='90'>","null","Animation1",""
"","","","","","html-keyboard-response","72","3572444","0.0-49.0","71","1","2025-01-31 01:42:05","af8d355d56820e421d246a7037deb6e6","154.7.225.221","Mozilla/5.0 (Windows NT 10.0; Win64; x64) AppleWebKit/537.36 (KHTML, like Gecko) Chrome/132.0.0.0 Safari/537.36","WebKit","Chrome","132.0.0.0","Windows","10.0","https://app.prolific.com/","en-US,en;q=0.9","6712fc1608041fe311ca2221","67949641171f97c04e14fb34","679c24917c35a6a9109d898d","","null","<img id='selected' src='G_4.jpg' height='90'> <img id='selected' src='G_5.jpg' height='90'> <img src='G_1.jpg' height='90'> <img src='G_3.jpg' height='90'> <img src='G_8.jpg' height='90'> <img src='G_7.jpg' height='90'> <img src='G_2.jpg' height='90'> <img src='G_6.jpg' height='90'>","null","Animation1",""
"","","","","","html-keyboard-response","73","3572758","0.0-50.0","71","1","2025-01-31 01:42:05","af8d355d56820e421d246a7037deb6e6","154.7.225.221","Mozilla/5.0 (Windows NT 10.0; Win64; x64) AppleWebKit/537.36 (KHTML, like Gecko) Chrome/132.0.0.0 Safari/537.36","WebKit","Chrome","132.0.0.0","Windows","10.0","https://app.prolific.com/","en-US,en;q=0.9","6712fc1608041fe311ca2221","67949641171f97c04e14fb34","679c24917c35a6a9109d898d","","null","<img  src='G_4.jpg' height='90'> <img  src='G_5.jpg' height='90'> <img src='G_1.jpg' height='90'> <img src='G_3.jpg' height='90'> <img src='G_8.jpg' height='90'> <img src='G_7.jpg' height='90'> <img src='G_2.jpg' height='90'> <img src='G_6.jpg' height='90'>","null","Animation1",""
"","","","","","html-keyboard-response","74","3573265","0.0-51.0","71","1","2025-01-31 01:42:05","af8d355d56820e421d246a7037deb6e6","154.7.225.221","Mozilla/5.0 (Windows NT 10.0; Win64; x64) AppleWebKit/537.36 (KHTML, like Gecko) Chrome/132.0.0.0 Safari/537.36","WebKit","Chrome","132.0.0.0","Windows","10.0","https://app.prolific.com/","en-US,en;q=0.9","6712fc1608041fe311ca2221","67949641171f97c04e14fb34","679c24917c35a6a9109d898d","","null","<img  src='G_4.jpg' height='90'> <img id='selected'  src='G_5.jpg' height='90'> <img src='G_1.jpg' height='90'> <img src='G_3.jpg' height='90'> <img src='G_8.jpg' height='90'> <img src='G_7.jpg' height='90'> <img src='G_2.jpg' height='90'> <img src='G_6.jpg' height='90'>","null","Animation1",""
"","","","","","html-keyboard-response","75","3573781","0.0-52.0","71","1","2025-01-31 01:42:05","af8d355d56820e421d246a7037deb6e6","154.7.225.221","Mozilla/5.0 (Windows NT 10.0; Win64; x64) AppleWebKit/537.36 (KHTML, like Gecko) Chrome/132.0.0.0 Safari/537.36","WebKit","Chrome","132.0.0.0","Windows","10.0","https://app.prolific.com/","en-US,en;q=0.9","6712fc1608041fe311ca2221","67949641171f97c04e14fb34","679c24917c35a6a9109d898d","","null","<img  src='G_4.jpg' height='90'> <img id='selected'  src='G_5.jpg' height='90'> <img id='selected' src='G_1.jpg' height='90'> <img src='G_3.jpg' height='90'> <img src='G_8.jpg' height='90'> <img src='G_7.jpg' height='90'> <img src='G_2.jpg' height='90'> <img src='G_6.jpg' height='90'>","null","Animation1",""
"","","","","","html-keyboard-response","76","3574296","0.0-53.0","71","1","2025-01-31 01:42:05","af8d355d56820e421d246a7037deb6e6","154.7.225.221","Mozilla/5.0 (Windows NT 10.0; Win64; x64) AppleWebKit/537.36 (KHTML, like Gecko) Chrome/132.0.0.0 Safari/537.36","WebKit","Chrome","132.0.0.0","Windows","10.0","https://app.prolific.com/","en-US,en;q=0.9","6712fc1608041fe311ca2221","67949641171f97c04e14fb34","679c24917c35a6a9109d898d","","null","<img  src='G_4.jpg' height='90'> <img id='swapped' src='G_1.jpg' height='90'> <img id='swapped'  src='G_5.jpg' height='90'> <img src='G_3.jpg' height='90'> <img src='G_8.jpg' height='90'> <img src='G_7.jpg' height='90'> <img src='G_2.jpg' height='90'> <img src='G_6.jpg' height='90'>","null","Animation1",""
"","","","","","html-keyboard-response","77","3574611","0.0-54.0","71","1","2025-01-31 01:42:05","af8d355d56820e421d246a7037deb6e6","154.7.225.221","Mozilla/5.0 (Windows NT 10.0; Win64; x64) AppleWebKit/537.36 (KHTML, like Gecko) Chrome/132.0.0.0 Safari/537.36","WebKit","Chrome","132.0.0.0","Windows","10.0","https://app.prolific.com/","en-US,en;q=0.9","6712fc1608041fe311ca2221","67949641171f97c04e14fb34","679c24917c35a6a9109d898d","","null","<img  src='G_4.jpg' height='90'> <img  src='G_1.jpg' height='90'> <img   src='G_5.jpg' height='90'> <img src='G_3.jpg' height='90'> <img src='G_8.jpg' height='90'> <img src='G_7.jpg' height='90'> <img src='G_2.jpg' height='90'> <img src='G_6.jpg' height='90'>","null","Animation1",""
"","","","","","html-keyboard-response","78","3575131","0.0-55.0","71","1","2025-01-31 01:42:05","af8d355d56820e421d246a7037deb6e6","154.7.225.221","Mozilla/5.0 (Windows NT 10.0; Win64; x64) AppleWebKit/537.36 (KHTML, like Gecko) Chrome/132.0.0.0 Safari/537.36","WebKit","Chrome","132.0.0.0","Windows","10.0","https://app.prolific.com/","en-US,en;q=0.9","6712fc1608041fe311ca2221","67949641171f97c04e14fb34","679c24917c35a6a9109d898d","","null","<img id='selected'  src='G_4.jpg' height='90'> <img  src='G_1.jpg' height='90'> <img   src='G_5.jpg' height='90'> <img src='G_3.jpg' height='90'> <img src='G_8.jpg' height='90'> <img src='G_7.jpg' height='90'> <img src='G_2.jpg' height='90'> <img src='G_6.jpg' height='90'>","null","Animation1",""
"","","","","","html-keyboard-response","79","3575654","0.0-56.0","71","1","2025-01-31 01:42:05","af8d355d56820e421d246a7037deb6e6","154.7.225.221","Mozilla/5.0 (Windows NT 10.0; Win64; x64) AppleWebKit/537.36 (KHTML, like Gecko) Chrome/132.0.0.0 Safari/537.36","WebKit","Chrome","132.0.0.0","Windows","10.0","https://app.prolific.com/","en-US,en;q=0.9","6712fc1608041fe311ca2221","67949641171f97c04e14fb34","679c24917c35a6a9109d898d","","null","<img id='selected'  src='G_4.jpg' height='90'> <img id='selected'  src='G_1.jpg' height='90'> <img   src='G_5.jpg' height='90'> <img src='G_3.jpg' height='90'> <img src='G_8.jpg' height='90'> <img src='G_7.jpg' height='90'> <img src='G_2.jpg' height='90'> <img src='G_6.jpg' height='90'>","null","Animation1",""
"","","","","","html-keyboard-response","80","3576174","0.0-57.0","71","1","2025-01-31 01:42:05","af8d355d56820e421d246a7037deb6e6","154.7.225.221","Mozilla/5.0 (Windows NT 10.0; Win64; x64) AppleWebKit/537.36 (KHTML, like Gecko) Chrome/132.0.0.0 Safari/537.36","WebKit","Chrome","132.0.0.0","Windows","10.0","https://app.prolific.com/","en-US,en;q=0.9","6712fc1608041fe311ca2221","67949641171f97c04e14fb34","679c24917c35a6a9109d898d","","null","<img id='swapped'  src='G_1.jpg' height='90'> <img id='swapped'  src='G_4.jpg' height='90'> <img   src='G_5.jpg' height='90'> <img src='G_3.jpg' height='90'> <img src='G_8.jpg' height='90'> <img src='G_7.jpg' height='90'> <img src='G_2.jpg' height='90'> <img src='G_6.jpg' height='90'>","null","Animation1",""
"","","","","","html-keyboard-response","81","3576485","0.0-58.0","71","1","2025-01-31 01:42:05","af8d355d56820e421d246a7037deb6e6","154.7.225.221","Mozilla/5.0 (Windows NT 10.0; Win64; x64) AppleWebKit/537.36 (KHTML, like Gecko) Chrome/132.0.0.0 Safari/537.36","WebKit","Chrome","132.0.0.0","Windows","10.0","https://app.prolific.com/","en-US,en;q=0.9","6712fc1608041fe311ca2221","67949641171f97c04e14fb34","679c24917c35a6a9109d898d","","null","<img   src='G_1.jpg' height='90'> <img   src='G_4.jpg' height='90'> <img   src='G_5.jpg' height='90'> <img src='G_3.jpg' height='90'> <img src='G_8.jpg' height='90'> <img src='G_7.jpg' height='90'> <img src='G_2.jpg' height='90'> <img src='G_6.jpg' height='90'>","null","Animation1",""
"","","","","","html-keyboard-response","82","3576992","0.0-59.0","71","1","2025-01-31 01:42:05","af8d355d56820e421d246a7037deb6e6","154.7.225.221","Mozilla/5.0 (Windows NT 10.0; Win64; x64) AppleWebKit/537.36 (KHTML, like Gecko) Chrome/132.0.0.0 Safari/537.36","WebKit","Chrome","132.0.0.0","Windows","10.0","https://app.prolific.com/","en-US,en;q=0.9","6712fc1608041fe311ca2221","67949641171f97c04e14fb34","679c24917c35a6a9109d898d","","null","<img   src='G_1.jpg' height='90'> <img   src='G_4.jpg' height='90'> <img id='selected'   src='G_5.jpg' height='90'> <img src='G_3.jpg' height='90'> <img src='G_8.jpg' height='90'> <img src='G_7.jpg' height='90'> <img src='G_2.jpg' height='90'> <img src='G_6.jpg' height='90'>","null","Animation1",""
"","","","","","html-keyboard-response","83","3577503","0.0-60.0","71","1","2025-01-31 01:42:05","af8d355d56820e421d246a7037deb6e6","154.7.225.221","Mozilla/5.0 (Windows NT 10.0; Win64; x64) AppleWebKit/537.36 (KHTML, like Gecko) Chrome/132.0.0.0 Safari/537.36","WebKit","Chrome","132.0.0.0","Windows","10.0","https://app.prolific.com/","en-US,en;q=0.9","6712fc1608041fe311ca2221","67949641171f97c04e14fb34","679c24917c35a6a9109d898d","","null","<img   src='G_1.jpg' height='90'> <img   src='G_4.jpg' height='90'> <img id='selected'   src='G_5.jpg' height='90'> <img id='selected' src='G_3.jpg' height='90'> <img src='G_8.jpg' height='90'> <img src='G_7.jpg' height='90'> <img src='G_2.jpg' height='90'> <img src='G_6.jpg' height='90'>","null","Animation1",""
"","","","","","html-keyboard-response","84","3578009","0.0-61.0","71","1","2025-01-31 01:42:05","af8d355d56820e421d246a7037deb6e6","154.7.225.221","Mozilla/5.0 (Windows NT 10.0; Win64; x64) AppleWebKit/537.36 (KHTML, like Gecko) Chrome/132.0.0.0 Safari/537.36","WebKit","Chrome","132.0.0.0","Windows","10.0","https://app.prolific.com/","en-US,en;q=0.9","6712fc1608041fe311ca2221","67949641171f97c04e14fb34","679c24917c35a6a9109d898d","","null","<img   src='G_1.jpg' height='90'> <img   src='G_4.jpg' height='90'> <img id='swapped' src='G_3.jpg' height='90'> <img id='swapped'   src='G_5.jpg' height='90'> <img src='G_8.jpg' height='90'> <img src='G_7.jpg' height='90'> <img src='G_2.jpg' height='90'> <img src='G_6.jpg' height='90'>","null","Animation1",""
"","","","","","html-keyboard-response","85","3578322","0.0-62.0","71","1","2025-01-31 01:42:05","af8d355d56820e421d246a7037deb6e6","154.7.225.221","Mozilla/5.0 (Windows NT 10.0; Win64; x64) AppleWebKit/537.36 (KHTML, like Gecko) Chrome/132.0.0.0 Safari/537.36","WebKit","Chrome","132.0.0.0","Windows","10.0","https://app.prolific.com/","en-US,en;q=0.9","6712fc1608041fe311ca2221","67949641171f97c04e14fb34","679c24917c35a6a9109d898d","","null","<img   src='G_1.jpg' height='90'> <img   src='G_4.jpg' height='90'> <img  src='G_3.jpg' height='90'> <img    src='G_5.jpg' height='90'> <img src='G_8.jpg' height='90'> <img src='G_7.jpg' height='90'> <img src='G_2.jpg' height='90'> <img src='G_6.jpg' height='90'>","null","Animation1",""
"","","","","","html-keyboard-response","86","3578845","0.0-63.0","71","1","2025-01-31 01:42:05","af8d355d56820e421d246a7037deb6e6","154.7.225.221","Mozilla/5.0 (Windows NT 10.0; Win64; x64) AppleWebKit/537.36 (KHTML, like Gecko) Chrome/132.0.0.0 Safari/537.36","WebKit","Chrome","132.0.0.0","Windows","10.0","https://app.prolific.com/","en-US,en;q=0.9","6712fc1608041fe311ca2221","67949641171f97c04e14fb34","679c24917c35a6a9109d898d","","null","<img   src='G_1.jpg' height='90'> <img id='selected'   src='G_4.jpg' height='90'> <img  src='G_3.jpg' height='90'> <img    src='G_5.jpg' height='90'> <img src='G_8.jpg' height='90'> <img src='G_7.jpg' height='90'> <img src='G_2.jpg' height='90'> <img src='G_6.jpg' height='90'>","null","Animation1",""
"","","","","","html-keyboard-response","87","3579354","0.0-64.0","71","1","2025-01-31 01:42:05","af8d355d56820e421d246a7037deb6e6","154.7.225.221","Mozilla/5.0 (Windows NT 10.0; Win64; x64) AppleWebKit/537.36 (KHTML, like Gecko) Chrome/132.0.0.0 Safari/537.36","WebKit","Chrome","132.0.0.0","Windows","10.0","https://app.prolific.com/","en-US,en;q=0.9","6712fc1608041fe311ca2221","67949641171f97c04e14fb34","679c24917c35a6a9109d898d","","null","<img   src='G_1.jpg' height='90'> <img id='selected'   src='G_4.jpg' height='90'> <img id='selected'  src='G_3.jpg' height='90'> <img    src='G_5.jpg' height='90'> <img src='G_8.jpg' height='90'> <img src='G_7.jpg' height='90'> <img src='G_2.jpg' height='90'> <img src='G_6.jpg' height='90'>","null","Animation1",""
"","","","","","html-keyboard-response","88","3579872","0.0-65.0","71","1","2025-01-31 01:42:05","af8d355d56820e421d246a7037deb6e6","154.7.225.221","Mozilla/5.0 (Windows NT 10.0; Win64; x64) AppleWebKit/537.36 (KHTML, like Gecko) Chrome/132.0.0.0 Safari/537.36","WebKit","Chrome","132.0.0.0","Windows","10.0","https://app.prolific.com/","en-US,en;q=0.9","6712fc1608041fe311ca2221","67949641171f97c04e14fb34","679c24917c35a6a9109d898d","","null","<img   src='G_1.jpg' height='90'> <img id='swapped'  src='G_3.jpg' height='90'> <img id='swapped'   src='G_4.jpg' height='90'> <img    src='G_5.jpg' height='90'> <img src='G_8.jpg' height='90'> <img src='G_7.jpg' height='90'> <img src='G_2.jpg' height='90'> <img src='G_6.jpg' height='90'>","null","Animation1",""
"","","","","","html-keyboard-response","89","3580193","0.0-66.0","71","1","2025-01-31 01:42:05","af8d355d56820e421d246a7037deb6e6","154.7.225.221","Mozilla/5.0 (Windows NT 10.0; Win64; x64) AppleWebKit/537.36 (KHTML, like Gecko) Chrome/132.0.0.0 Safari/537.36","WebKit","Chrome","132.0.0.0","Windows","10.0","https://app.prolific.com/","en-US,en;q=0.9","6712fc1608041fe311ca2221","67949641171f97c04e14fb34","679c24917c35a6a9109d898d","","null","<img   src='G_1.jpg' height='90'> <img   src='G_3.jpg' height='90'> <img    src='G_4.jpg' height='90'> <img    src='G_5.jpg' height='90'> <img src='G_8.jpg' height='90'> <img src='G_7.jpg' height='90'> <img src='G_2.jpg' height='90'> <img src='G_6.jpg' height='90'>","null","Animation1",""
"","","","","","html-keyboard-response","90","3580706","0.0-67.0","71","1","2025-01-31 01:42:05","af8d355d56820e421d246a7037deb6e6","154.7.225.221","Mozilla/5.0 (Windows NT 10.0; Win64; x64) AppleWebKit/537.36 (KHTML, like Gecko) Chrome/132.0.0.0 Safari/537.36","WebKit","Chrome","132.0.0.0","Windows","10.0","https://app.prolific.com/","en-US,en;q=0.9","6712fc1608041fe311ca2221","67949641171f97c04e14fb34","679c24917c35a6a9109d898d","","null","<img id='selected'   src='G_1.jpg' height='90'> <img   src='G_3.jpg' height='90'> <img    src='G_4.jpg' height='90'> <img    src='G_5.jpg' height='90'> <img src='G_8.jpg' height='90'> <img src='G_7.jpg' height='90'> <img src='G_2.jpg' height='90'> <img src='G_6.jpg' height='90'>","null","Animation1",""
"","","","","","html-keyboard-response","91","3581224","0.0-68.0","71","1","2025-01-31 01:42:05","af8d355d56820e421d246a7037deb6e6","154.7.225.221","Mozilla/5.0 (Windows NT 10.0; Win64; x64) AppleWebKit/537.36 (KHTML, like Gecko) Chrome/132.0.0.0 Safari/537.36","WebKit","Chrome","132.0.0.0","Windows","10.0","https://app.prolific.com/","en-US,en;q=0.9","6712fc1608041fe311ca2221","67949641171f97c04e14fb34","679c24917c35a6a9109d898d","","null","<img id='selected'   src='G_1.jpg' height='90'> <img id='selected'   src='G_3.jpg' height='90'> <img    src='G_4.jpg' height='90'> <img    src='G_5.jpg' height='90'> <img src='G_8.jpg' height='90'> <img src='G_7.jpg' height='90'> <img src='G_2.jpg' height='90'> <img src='G_6.jpg' height='90'>","null","Animation1",""
"","","","","","html-keyboard-response","92","3581745","0.0-69.0","71","1","2025-01-31 01:42:05","af8d355d56820e421d246a7037deb6e6","154.7.225.221","Mozilla/5.0 (Windows NT 10.0; Win64; x64) AppleWebKit/537.36 (KHTML, like Gecko) Chrome/132.0.0.0 Safari/537.36","WebKit","Chrome","132.0.0.0","Windows","10.0","https://app.prolific.com/","en-US,en;q=0.9","6712fc1608041fe311ca2221","67949641171f97c04e14fb34","679c24917c35a6a9109d898d","","null","<img id='swapped'   src='G_3.jpg' height='90'> <img id='swapped'   src='G_1.jpg' height='90'> <img    src='G_4.jpg' height='90'> <img    src='G_5.jpg' height='90'> <img src='G_8.jpg' height='90'> <img src='G_7.jpg' height='90'> <img src='G_2.jpg' height='90'> <img src='G_6.jpg' height='90'>","null","Animation1",""
"","","","","","html-keyboard-response","93","3582063","0.0-70.0","71","1","2025-01-31 01:42:05","af8d355d56820e421d246a7037deb6e6","154.7.225.221","Mozilla/5.0 (Windows NT 10.0; Win64; x64) AppleWebKit/537.36 (KHTML, like Gecko) Chrome/132.0.0.0 Safari/537.36","WebKit","Chrome","132.0.0.0","Windows","10.0","https://app.prolific.com/","en-US,en;q=0.9","6712fc1608041fe311ca2221","67949641171f97c04e14fb34","679c24917c35a6a9109d898d","","null","<img    src='G_3.jpg' height='90'> <img    src='G_1.jpg' height='90'> <img    src='G_4.jpg' height='90'> <img    src='G_5.jpg' height='90'> <img src='G_8.jpg' height='90'> <img src='G_7.jpg' height='90'> <img src='G_2.jpg' height='90'> <img src='G_6.jpg' height='90'>","null","Animation1",""
"","","","","","html-keyboard-response","94","3582570","0.0-71.0","71","1","2025-01-31 01:42:05","af8d355d56820e421d246a7037deb6e6","154.7.225.221","Mozilla/5.0 (Windows NT 10.0; Win64; x64) AppleWebKit/537.36 (KHTML, like Gecko) Chrome/132.0.0.0 Safari/537.36","WebKit","Chrome","132.0.0.0","Windows","10.0","https://app.prolific.com/","en-US,en;q=0.9","6712fc1608041fe311ca2221","67949641171f97c04e14fb34","679c24917c35a6a9109d898d","","null","<img    src='G_3.jpg' height='90'> <img    src='G_1.jpg' height='90'> <img    src='G_4.jpg' height='90'> <img id='selected'    src='G_5.jpg' height='90'> <img src='G_8.jpg' height='90'> <img src='G_7.jpg' height='90'> <img src='G_2.jpg' height='90'> <img src='G_6.jpg' height='90'>","null","Animation1",""
"","","","","","html-keyboard-response","95","3583081","0.0-72.0","71","1","2025-01-31 01:42:05","af8d355d56820e421d246a7037deb6e6","154.7.225.221","Mozilla/5.0 (Windows NT 10.0; Win64; x64) AppleWebKit/537.36 (KHTML, like Gecko) Chrome/132.0.0.0 Safari/537.36","WebKit","Chrome","132.0.0.0","Windows","10.0","https://app.prolific.com/","en-US,en;q=0.9","6712fc1608041fe311ca2221","67949641171f97c04e14fb34","679c24917c35a6a9109d898d","","null","<img    src='G_3.jpg' height='90'> <img    src='G_1.jpg' height='90'> <img    src='G_4.jpg' height='90'> <img id='selected'    src='G_5.jpg' height='90'> <img id='selected' src='G_8.jpg' height='90'> <img src='G_7.jpg' height='90'> <img src='G_2.jpg' height='90'> <img src='G_6.jpg' height='90'>","null","Animation1",""
"","","","","","html-keyboard-response","96","3583603","0.0-73.0","71","1","2025-01-31 01:42:05","af8d355d56820e421d246a7037deb6e6","154.7.225.221","Mozilla/5.0 (Windows NT 10.0; Win64; x64) AppleWebKit/537.36 (KHTML, like Gecko) Chrome/132.0.0.0 Safari/537.36","WebKit","Chrome","132.0.0.0","Windows","10.0","https://app.prolific.com/","en-US,en;q=0.9","6712fc1608041fe311ca2221","67949641171f97c04e14fb34","679c24917c35a6a9109d898d","","null","<img    src='G_3.jpg' height='90'> <img    src='G_1.jpg' height='90'> <img    src='G_4.jpg' height='90'> <img id='swapped' src='G_8.jpg' height='90'> <img id='swapped'    src='G_5.jpg' height='90'> <img src='G_7.jpg' height='90'> <img src='G_2.jpg' height='90'> <img src='G_6.jpg' height='90'>","null","Animation1",""
"","","","","","html-keyboard-response","97","3583915","0.0-74.0","71","1","2025-01-31 01:42:05","af8d355d56820e421d246a7037deb6e6","154.7.225.221","Mozilla/5.0 (Windows NT 10.0; Win64; x64) AppleWebKit/537.36 (KHTML, like Gecko) Chrome/132.0.0.0 Safari/537.36","WebKit","Chrome","132.0.0.0","Windows","10.0","https://app.prolific.com/","en-US,en;q=0.9","6712fc1608041fe311ca2221","67949641171f97c04e14fb34","679c24917c35a6a9109d898d","","null","<img    src='G_3.jpg' height='90'> <img    src='G_1.jpg' height='90'> <img    src='G_4.jpg' height='90'> <img  src='G_8.jpg' height='90'> <img     src='G_5.jpg' height='90'> <img src='G_7.jpg' height='90'> <img src='G_2.jpg' height='90'> <img src='G_6.jpg' height='90'>","null","Animation1",""
"","","","","","html-keyboard-response","98","3584425","0.0-75.0","71","1","2025-01-31 01:42:05","af8d355d56820e421d246a7037deb6e6","154.7.225.221","Mozilla/5.0 (Windows NT 10.0; Win64; x64) AppleWebKit/537.36 (KHTML, like Gecko) Chrome/132.0.0.0 Safari/537.36","WebKit","Chrome","132.0.0.0","Windows","10.0","https://app.prolific.com/","en-US,en;q=0.9","6712fc1608041fe311ca2221","67949641171f97c04e14fb34","679c24917c35a6a9109d898d","","null","<img    src='G_3.jpg' height='90'> <img    src='G_1.jpg' height='90'> <img id='selected'    src='G_4.jpg' height='90'> <img  src='G_8.jpg' height='90'> <img     src='G_5.jpg' height='90'> <img src='G_7.jpg' height='90'> <img src='G_2.jpg' height='90'> <img src='G_6.jpg' height='90'>","null","Animation1",""
"","","","","","html-keyboard-response","99","3584932","0.0-76.0","71","1","2025-01-31 01:42:05","af8d355d56820e421d246a7037deb6e6","154.7.225.221","Mozilla/5.0 (Windows NT 10.0; Win64; x64) AppleWebKit/537.36 (KHTML, like Gecko) Chrome/132.0.0.0 Safari/537.36","WebKit","Chrome","132.0.0.0","Windows","10.0","https://app.prolific.com/","en-US,en;q=0.9","6712fc1608041fe311ca2221","67949641171f97c04e14fb34","679c24917c35a6a9109d898d","","null","<img    src='G_3.jpg' height='90'> <img    src='G_1.jpg' height='90'> <img id='selected'    src='G_4.jpg' height='90'> <img id='selected'  src='G_8.jpg' height='90'> <img     src='G_5.jpg' height='90'> <img src='G_7.jpg' height='90'> <img src='G_2.jpg' height='90'> <img src='G_6.jpg' height='90'>","null","Animation1",""
"","","","","","html-keyboard-response","100","3585446","0.0-77.0","71","1","2025-01-31 01:42:05","af8d355d56820e421d246a7037deb6e6","154.7.225.221","Mozilla/5.0 (Windows NT 10.0; Win64; x64) AppleWebKit/537.36 (KHTML, like Gecko) Chrome/132.0.0.0 Safari/537.36","WebKit","Chrome","132.0.0.0","Windows","10.0","https://app.prolific.com/","en-US,en;q=0.9","6712fc1608041fe311ca2221","67949641171f97c04e14fb34","679c24917c35a6a9109d898d","","null","<img    src='G_3.jpg' height='90'> <img    src='G_1.jpg' height='90'> <img id='swapped'  src='G_8.jpg' height='90'> <img id='swapped'    src='G_4.jpg' height='90'> <img     src='G_5.jpg' height='90'> <img src='G_7.jpg' height='90'> <img src='G_2.jpg' height='90'> <img src='G_6.jpg' height='90'>","null","Animation1",""
"","","","","","html-keyboard-response","101","3585763","0.0-78.0","71","1","2025-01-31 01:42:05","af8d355d56820e421d246a7037deb6e6","154.7.225.221","Mozilla/5.0 (Windows NT 10.0; Win64; x64) AppleWebKit/537.36 (KHTML, like Gecko) Chrome/132.0.0.0 Safari/537.36","WebKit","Chrome","132.0.0.0","Windows","10.0","https://app.prolific.com/","en-US,en;q=0.9","6712fc1608041fe311ca2221","67949641171f97c04e14fb34","679c24917c35a6a9109d898d","","null","<img    src='G_3.jpg' height='90'> <img    src='G_1.jpg' height='90'> <img   src='G_8.jpg' height='90'> <img     src='G_4.jpg' height='90'> <img     src='G_5.jpg' height='90'> <img src='G_7.jpg' height='90'> <img src='G_2.jpg' height='90'> <img src='G_6.jpg' height='90'>","null","Animation1",""
"","","","","","html-keyboard-response","102","3586282","0.0-79.0","71","1","2025-01-31 01:42:05","af8d355d56820e421d246a7037deb6e6","154.7.225.221","Mozilla/5.0 (Windows NT 10.0; Win64; x64) AppleWebKit/537.36 (KHTML, like Gecko) Chrome/132.0.0.0 Safari/537.36","WebKit","Chrome","132.0.0.0","Windows","10.0","https://app.prolific.com/","en-US,en;q=0.9","6712fc1608041fe311ca2221","67949641171f97c04e14fb34","679c24917c35a6a9109d898d","","null","<img    src='G_3.jpg' height='90'> <img id='selected'    src='G_1.jpg' height='90'> <img   src='G_8.jpg' height='90'> <img     src='G_4.jpg' height='90'> <img     src='G_5.jpg' height='90'> <img src='G_7.jpg' height='90'> <img src='G_2.jpg' height='90'> <img src='G_6.jpg' height='90'>","null","Animation1",""
"","","","","","html-keyboard-response","103","3586792","0.0-80.0","71","1","2025-01-31 01:42:05","af8d355d56820e421d246a7037deb6e6","154.7.225.221","Mozilla/5.0 (Windows NT 10.0; Win64; x64) AppleWebKit/537.36 (KHTML, like Gecko) Chrome/132.0.0.0 Safari/537.36","WebKit","Chrome","132.0.0.0","Windows","10.0","https://app.prolific.com/","en-US,en;q=0.9","6712fc1608041fe311ca2221","67949641171f97c04e14fb34","679c24917c35a6a9109d898d","","null","<img    src='G_3.jpg' height='90'> <img id='selected'    src='G_1.jpg' height='90'> <img id='selected'   src='G_8.jpg' height='90'> <img     src='G_4.jpg' height='90'> <img     src='G_5.jpg' height='90'> <img src='G_7.jpg' height='90'> <img src='G_2.jpg' height='90'> <img src='G_6.jpg' height='90'>","null","Animation1",""
"","","","","","html-keyboard-response","104","3587298","0.0-81.0","71","1","2025-01-31 01:42:05","af8d355d56820e421d246a7037deb6e6","154.7.225.221","Mozilla/5.0 (Windows NT 10.0; Win64; x64) AppleWebKit/537.36 (KHTML, like Gecko) Chrome/132.0.0.0 Safari/537.36","WebKit","Chrome","132.0.0.0","Windows","10.0","https://app.prolific.com/","en-US,en;q=0.9","6712fc1608041fe311ca2221","67949641171f97c04e14fb34","679c24917c35a6a9109d898d","","null","<img    src='G_3.jpg' height='90'> <img id='swapped'   src='G_8.jpg' height='90'> <img id='swapped'    src='G_1.jpg' height='90'> <img     src='G_4.jpg' height='90'> <img     src='G_5.jpg' height='90'> <img src='G_7.jpg' height='90'> <img src='G_2.jpg' height='90'> <img src='G_6.jpg' height='90'>","null","Animation1",""
"","","","","","html-keyboard-response","105","3587605","0.0-82.0","71","1","2025-01-31 01:42:05","af8d355d56820e421d246a7037deb6e6","154.7.225.221","Mozilla/5.0 (Windows NT 10.0; Win64; x64) AppleWebKit/537.36 (KHTML, like Gecko) Chrome/132.0.0.0 Safari/537.36","WebKit","Chrome","132.0.0.0","Windows","10.0","https://app.prolific.com/","en-US,en;q=0.9","6712fc1608041fe311ca2221","67949641171f97c04e14fb34","679c24917c35a6a9109d898d","","null","<img    src='G_3.jpg' height='90'> <img    src='G_8.jpg' height='90'> <img     src='G_1.jpg' height='90'> <img     src='G_4.jpg' height='90'> <img     src='G_5.jpg' height='90'> <img src='G_7.jpg' height='90'> <img src='G_2.jpg' height='90'> <img src='G_6.jpg' height='90'>","null","Animation1",""
"","","","","","html-keyboard-response","106","3588115","0.0-83.0","71","1","2025-01-31 01:42:05","af8d355d56820e421d246a7037deb6e6","154.7.225.221","Mozilla/5.0 (Windows NT 10.0; Win64; x64) AppleWebKit/537.36 (KHTML, like Gecko) Chrome/132.0.0.0 Safari/537.36","WebKit","Chrome","132.0.0.0","Windows","10.0","https://app.prolific.com/","en-US,en;q=0.9","6712fc1608041fe311ca2221","67949641171f97c04e14fb34","679c24917c35a6a9109d898d","","null","<img id='selected'    src='G_3.jpg' height='90'> <img    src='G_8.jpg' height='90'> <img     src='G_1.jpg' height='90'> <img     src='G_4.jpg' height='90'> <img     src='G_5.jpg' height='90'> <img src='G_7.jpg' height='90'> <img src='G_2.jpg' height='90'> <img src='G_6.jpg' height='90'>","null","Animation1",""
"","","","","","html-keyboard-response","107","3588630","0.0-84.0","71","1","2025-01-31 01:42:05","af8d355d56820e421d246a7037deb6e6","154.7.225.221","Mozilla/5.0 (Windows NT 10.0; Win64; x64) AppleWebKit/537.36 (KHTML, like Gecko) Chrome/132.0.0.0 Safari/537.36","WebKit","Chrome","132.0.0.0","Windows","10.0","https://app.prolific.com/","en-US,en;q=0.9","6712fc1608041fe311ca2221","67949641171f97c04e14fb34","679c24917c35a6a9109d898d","","null","<img id='selected'    src='G_3.jpg' height='90'> <img id='selected'    src='G_8.jpg' height='90'> <img     src='G_1.jpg' height='90'> <img     src='G_4.jpg' height='90'> <img     src='G_5.jpg' height='90'> <img src='G_7.jpg' height='90'> <img src='G_2.jpg' height='90'> <img src='G_6.jpg' height='90'>","null","Animation1",""
"","","","","","html-keyboard-response","108","3589148","0.0-85.0","71","1","2025-01-31 01:42:05","af8d355d56820e421d246a7037deb6e6","154.7.225.221","Mozilla/5.0 (Windows NT 10.0; Win64; x64) AppleWebKit/537.36 (KHTML, like Gecko) Chrome/132.0.0.0 Safari/537.36","WebKit","Chrome","132.0.0.0","Windows","10.0","https://app.prolific.com/","en-US,en;q=0.9","6712fc1608041fe311ca2221","67949641171f97c04e14fb34","679c24917c35a6a9109d898d","","null","<img id='selected'    src='G_3.jpg' height='90'> <img id='selected'    src='G_8.jpg' height='90'> <img     src='G_1.jpg' height='90'> <img     src='G_4.jpg' height='90'> <img     src='G_5.jpg' height='90'> <img src='G_7.jpg' height='90'> <img src='G_2.jpg' height='90'> <img src='G_6.jpg' height='90'>","null","Animation1",""
"","","","","","html-keyboard-response","109","3589460","0.0-86.0","71","1","2025-01-31 01:42:05","af8d355d56820e421d246a7037deb6e6","154.7.225.221","Mozilla/5.0 (Windows NT 10.0; Win64; x64) AppleWebKit/537.36 (KHTML, like Gecko) Chrome/132.0.0.0 Safari/537.36","WebKit","Chrome","132.0.0.0","Windows","10.0","https://app.prolific.com/","en-US,en;q=0.9","6712fc1608041fe311ca2221","67949641171f97c04e14fb34","679c24917c35a6a9109d898d","","null","<img     src='G_3.jpg' height='90'> <img     src='G_8.jpg' height='90'> <img     src='G_1.jpg' height='90'> <img     src='G_4.jpg' height='90'> <img     src='G_5.jpg' height='90'> <img src='G_7.jpg' height='90'> <img src='G_2.jpg' height='90'> <img src='G_6.jpg' height='90'>","null","Animation1",""
"","","","","","html-keyboard-response","110","3589981","0.0-87.0","71","1","2025-01-31 01:42:05","af8d355d56820e421d246a7037deb6e6","154.7.225.221","Mozilla/5.0 (Windows NT 10.0; Win64; x64) AppleWebKit/537.36 (KHTML, like Gecko) Chrome/132.0.0.0 Safari/537.36","WebKit","Chrome","132.0.0.0","Windows","10.0","https://app.prolific.com/","en-US,en;q=0.9","6712fc1608041fe311ca2221","67949641171f97c04e14fb34","679c24917c35a6a9109d898d","","null","<img     src='G_3.jpg' height='90'> <img     src='G_8.jpg' height='90'> <img     src='G_1.jpg' height='90'> <img     src='G_4.jpg' height='90'> <img id='selected'     src='G_5.jpg' height='90'> <img src='G_7.jpg' height='90'> <img src='G_2.jpg' height='90'> <img src='G_6.jpg' height='90'>","null","Animation1",""
"","","","","","html-keyboard-response","111","3590495","0.0-88.0","71","1","2025-01-31 01:42:05","af8d355d56820e421d246a7037deb6e6","154.7.225.221","Mozilla/5.0 (Windows NT 10.0; Win64; x64) AppleWebKit/537.36 (KHTML, like Gecko) Chrome/132.0.0.0 Safari/537.36","WebKit","Chrome","132.0.0.0","Windows","10.0","https://app.prolific.com/","en-US,en;q=0.9","6712fc1608041fe311ca2221","67949641171f97c04e14fb34","679c24917c35a6a9109d898d","","null","<img     src='G_3.jpg' height='90'> <img     src='G_8.jpg' height='90'> <img     src='G_1.jpg' height='90'> <img     src='G_4.jpg' height='90'> <img id='selected'     src='G_5.jpg' height='90'> <img id='selected' src='G_7.jpg' height='90'> <img src='G_2.jpg' height='90'> <img src='G_6.jpg' height='90'>","null","Animation1",""
"","","","","","html-keyboard-response","112","3591012","0.0-89.0","71","1","2025-01-31 01:42:05","af8d355d56820e421d246a7037deb6e6","154.7.225.221","Mozilla/5.0 (Windows NT 10.0; Win64; x64) AppleWebKit/537.36 (KHTML, like Gecko) Chrome/132.0.0.0 Safari/537.36","WebKit","Chrome","132.0.0.0","Windows","10.0","https://app.prolific.com/","en-US,en;q=0.9","6712fc1608041fe311ca2221","67949641171f97c04e14fb34","679c24917c35a6a9109d898d","","null","<img     src='G_3.jpg' height='90'> <img     src='G_8.jpg' height='90'> <img     src='G_1.jpg' height='90'> <img     src='G_4.jpg' height='90'> <img id='swapped' src='G_7.jpg' height='90'> <img id='swapped'     src='G_5.jpg' height='90'> <img src='G_2.jpg' height='90'> <img src='G_6.jpg' height='90'>","null","Animation1",""
"","","","","","html-keyboard-response","113","3591326","0.0-90.0","71","1","2025-01-31 01:42:05","af8d355d56820e421d246a7037deb6e6","154.7.225.221","Mozilla/5.0 (Windows NT 10.0; Win64; x64) AppleWebKit/537.36 (KHTML, like Gecko) Chrome/132.0.0.0 Safari/537.36","WebKit","Chrome","132.0.0.0","Windows","10.0","https://app.prolific.com/","en-US,en;q=0.9","6712fc1608041fe311ca2221","67949641171f97c04e14fb34","679c24917c35a6a9109d898d","","null","<img     src='G_3.jpg' height='90'> <img     src='G_8.jpg' height='90'> <img     src='G_1.jpg' height='90'> <img     src='G_4.jpg' height='90'> <img  src='G_7.jpg' height='90'> <img      src='G_5.jpg' height='90'> <img src='G_2.jpg' height='90'> <img src='G_6.jpg' height='90'>","null","Animation1",""
"","","","","","html-keyboard-response","114","3591837","0.0-91.0","71","1","2025-01-31 01:42:05","af8d355d56820e421d246a7037deb6e6","154.7.225.221","Mozilla/5.0 (Windows NT 10.0; Win64; x64) AppleWebKit/537.36 (KHTML, like Gecko) Chrome/132.0.0.0 Safari/537.36","WebKit","Chrome","132.0.0.0","Windows","10.0","https://app.prolific.com/","en-US,en;q=0.9","6712fc1608041fe311ca2221","67949641171f97c04e14fb34","679c24917c35a6a9109d898d","","null","<img     src='G_3.jpg' height='90'> <img     src='G_8.jpg' height='90'> <img     src='G_1.jpg' height='90'> <img id='selected'     src='G_4.jpg' height='90'> <img  src='G_7.jpg' height='90'> <img      src='G_5.jpg' height='90'> <img src='G_2.jpg' height='90'> <img src='G_6.jpg' height='90'>","null","Animation1",""
"","","","","","html-keyboard-response","115","3592343","0.0-92.0","71","1","2025-01-31 01:42:05","af8d355d56820e421d246a7037deb6e6","154.7.225.221","Mozilla/5.0 (Windows NT 10.0; Win64; x64) AppleWebKit/537.36 (KHTML, like Gecko) Chrome/132.0.0.0 Safari/537.36","WebKit","Chrome","132.0.0.0","Windows","10.0","https://app.prolific.com/","en-US,en;q=0.9","6712fc1608041fe311ca2221","67949641171f97c04e14fb34","679c24917c35a6a9109d898d","","null","<img     src='G_3.jpg' height='90'> <img     src='G_8.jpg' height='90'> <img     src='G_1.jpg' height='90'> <img id='selected'     src='G_4.jpg' height='90'> <img id='selected'  src='G_7.jpg' height='90'> <img      src='G_5.jpg' height='90'> <img src='G_2.jpg' height='90'> <img src='G_6.jpg' height='90'>","null","Animation1",""
"","","","","","html-keyboard-response","116","3592854","0.0-93.0","71","1","2025-01-31 01:42:05","af8d355d56820e421d246a7037deb6e6","154.7.225.221","Mozilla/5.0 (Windows NT 10.0; Win64; x64) AppleWebKit/537.36 (KHTML, like Gecko) Chrome/132.0.0.0 Safari/537.36","WebKit","Chrome","132.0.0.0","Windows","10.0","https://app.prolific.com/","en-US,en;q=0.9","6712fc1608041fe311ca2221","67949641171f97c04e14fb34","679c24917c35a6a9109d898d","","null","<img     src='G_3.jpg' height='90'> <img     src='G_8.jpg' height='90'> <img     src='G_1.jpg' height='90'> <img id='selected'     src='G_4.jpg' height='90'> <img id='selected'  src='G_7.jpg' height='90'> <img      src='G_5.jpg' height='90'> <img src='G_2.jpg' height='90'> <img src='G_6.jpg' height='90'>","null","Animation1",""
"","","","","","html-keyboard-response","117","3593174","0.0-94.0","71","1","2025-01-31 01:42:05","af8d355d56820e421d246a7037deb6e6","154.7.225.221","Mozilla/5.0 (Windows NT 10.0; Win64; x64) AppleWebKit/537.36 (KHTML, like Gecko) Chrome/132.0.0.0 Safari/537.36","WebKit","Chrome","132.0.0.0","Windows","10.0","https://app.prolific.com/","en-US,en;q=0.9","6712fc1608041fe311ca2221","67949641171f97c04e14fb34","679c24917c35a6a9109d898d","","null","<img     src='G_3.jpg' height='90'> <img     src='G_8.jpg' height='90'> <img     src='G_1.jpg' height='90'> <img      src='G_4.jpg' height='90'> <img   src='G_7.jpg' height='90'> <img      src='G_5.jpg' height='90'> <img src='G_2.jpg' height='90'> <img src='G_6.jpg' height='90'>","null","Animation1",""
"","","","","","html-keyboard-response","118","3593694","0.0-95.0","71","1","2025-01-31 01:42:05","af8d355d56820e421d246a7037deb6e6","154.7.225.221","Mozilla/5.0 (Windows NT 10.0; Win64; x64) AppleWebKit/537.36 (KHTML, like Gecko) Chrome/132.0.0.0 Safari/537.36","WebKit","Chrome","132.0.0.0","Windows","10.0","https://app.prolific.com/","en-US,en;q=0.9","6712fc1608041fe311ca2221","67949641171f97c04e14fb34","679c24917c35a6a9109d898d","","null","<img     src='G_3.jpg' height='90'> <img     src='G_8.jpg' height='90'> <img     src='G_1.jpg' height='90'> <img      src='G_4.jpg' height='90'> <img   src='G_7.jpg' height='90'> <img id='selected'      src='G_5.jpg' height='90'> <img src='G_2.jpg' height='90'> <img src='G_6.jpg' height='90'>","null","Animation1",""
"","","","","","html-keyboard-response","119","3594209","0.0-96.0","71","1","2025-01-31 01:42:05","af8d355d56820e421d246a7037deb6e6","154.7.225.221","Mozilla/5.0 (Windows NT 10.0; Win64; x64) AppleWebKit/537.36 (KHTML, like Gecko) Chrome/132.0.0.0 Safari/537.36","WebKit","Chrome","132.0.0.0","Windows","10.0","https://app.prolific.com/","en-US,en;q=0.9","6712fc1608041fe311ca2221","67949641171f97c04e14fb34","679c24917c35a6a9109d898d","","null","<img     src='G_3.jpg' height='90'> <img     src='G_8.jpg' height='90'> <img     src='G_1.jpg' height='90'> <img      src='G_4.jpg' height='90'> <img   src='G_7.jpg' height='90'> <img id='selected'      src='G_5.jpg' height='90'> <img id='selected' src='G_2.jpg' height='90'> <img src='G_6.jpg' height='90'>","null","Animation1",""
"","","","","","html-keyboard-response","120","3594728","0.0-97.0","71","1","2025-01-31 01:42:05","af8d355d56820e421d246a7037deb6e6","154.7.225.221","Mozilla/5.0 (Windows NT 10.0; Win64; x64) AppleWebKit/537.36 (KHTML, like Gecko) Chrome/132.0.0.0 Safari/537.36","WebKit","Chrome","132.0.0.0","Windows","10.0","https://app.prolific.com/","en-US,en;q=0.9","6712fc1608041fe311ca2221","67949641171f97c04e14fb34","679c24917c35a6a9109d898d","","null","<img     src='G_3.jpg' height='90'> <img     src='G_8.jpg' height='90'> <img     src='G_1.jpg' height='90'> <img      src='G_4.jpg' height='90'> <img   src='G_7.jpg' height='90'> <img id='selected'      src='G_5.jpg' height='90'> <img id='selected' src='G_2.jpg' height='90'> <img src='G_6.jpg' height='90'>","null","Animation1",""
"","","","","","html-keyboard-response","121","3595041","0.0-98.0","71","1","2025-01-31 01:42:05","af8d355d56820e421d246a7037deb6e6","154.7.225.221","Mozilla/5.0 (Windows NT 10.0; Win64; x64) AppleWebKit/537.36 (KHTML, like Gecko) Chrome/132.0.0.0 Safari/537.36","WebKit","Chrome","132.0.0.0","Windows","10.0","https://app.prolific.com/","en-US,en;q=0.9","6712fc1608041fe311ca2221","67949641171f97c04e14fb34","679c24917c35a6a9109d898d","","null","<img     src='G_3.jpg' height='90'> <img     src='G_8.jpg' height='90'> <img     src='G_1.jpg' height='90'> <img      src='G_4.jpg' height='90'> <img   src='G_7.jpg' height='90'> <img       src='G_5.jpg' height='90'> <img  src='G_2.jpg' height='90'> <img src='G_6.jpg' height='90'>","null","Animation1",""
"","","","","","html-keyboard-response","122","3595548","0.0-99.0","71","1","2025-01-31 01:42:05","af8d355d56820e421d246a7037deb6e6","154.7.225.221","Mozilla/5.0 (Windows NT 10.0; Win64; x64) AppleWebKit/537.36 (KHTML, like Gecko) Chrome/132.0.0.0 Safari/537.36","WebKit","Chrome","132.0.0.0","Windows","10.0","https://app.prolific.com/","en-US,en;q=0.9","6712fc1608041fe311ca2221","67949641171f97c04e14fb34","679c24917c35a6a9109d898d","","null","<img     src='G_3.jpg' height='90'> <img     src='G_8.jpg' height='90'> <img     src='G_1.jpg' height='90'> <img      src='G_4.jpg' height='90'> <img   src='G_7.jpg' height='90'> <img       src='G_5.jpg' height='90'> <img id='selected'  src='G_2.jpg' height='90'> <img src='G_6.jpg' height='90'>","null","Animation1",""
"","","","","","html-keyboard-response","123","3596059","0.0-100.0","71","1","2025-01-31 01:42:05","af8d355d56820e421d246a7037deb6e6","154.7.225.221","Mozilla/5.0 (Windows NT 10.0; Win64; x64) AppleWebKit/537.36 (KHTML, like Gecko) Chrome/132.0.0.0 Safari/537.36","WebKit","Chrome","132.0.0.0","Windows","10.0","https://app.prolific.com/","en-US,en;q=0.9","6712fc1608041fe311ca2221","67949641171f97c04e14fb34","679c24917c35a6a9109d898d","","null","<img     src='G_3.jpg' height='90'> <img     src='G_8.jpg' height='90'> <img     src='G_1.jpg' height='90'> <img      src='G_4.jpg' height='90'> <img   src='G_7.jpg' height='90'> <img       src='G_5.jpg' height='90'> <img id='selected'  src='G_2.jpg' height='90'> <img id='selected' src='G_6.jpg' height='90'>","null","Animation1",""
"","","","","","html-keyboard-response","124","3596579","0.0-101.0","71","1","2025-01-31 01:42:05","af8d355d56820e421d246a7037deb6e6","154.7.225.221","Mozilla/5.0 (Windows NT 10.0; Win64; x64) AppleWebKit/537.36 (KHTML, like Gecko) Chrome/132.0.0.0 Safari/537.36","WebKit","Chrome","132.0.0.0","Windows","10.0","https://app.prolific.com/","en-US,en;q=0.9","6712fc1608041fe311ca2221","67949641171f97c04e14fb34","679c24917c35a6a9109d898d","","null","<img     src='G_3.jpg' height='90'> <img     src='G_8.jpg' height='90'> <img     src='G_1.jpg' height='90'> <img      src='G_4.jpg' height='90'> <img   src='G_7.jpg' height='90'> <img       src='G_5.jpg' height='90'> <img id='swapped' src='G_6.jpg' height='90'> <img id='swapped'  src='G_2.jpg' height='90'>","null","Animation1",""
"","","","","","html-keyboard-response","125","3596902","0.0-102.0","71","1","2025-01-31 01:42:05","af8d355d56820e421d246a7037deb6e6","154.7.225.221","Mozilla/5.0 (Windows NT 10.0; Win64; x64) AppleWebKit/537.36 (KHTML, like Gecko) Chrome/132.0.0.0 Safari/537.36","WebKit","Chrome","132.0.0.0","Windows","10.0","https://app.prolific.com/","en-US,en;q=0.9","6712fc1608041fe311ca2221","67949641171f97c04e14fb34","679c24917c35a6a9109d898d","","null","<img     src='G_3.jpg' height='90'> <img     src='G_8.jpg' height='90'> <img     src='G_1.jpg' height='90'> <img      src='G_4.jpg' height='90'> <img   src='G_7.jpg' height='90'> <img       src='G_5.jpg' height='90'> <img  src='G_6.jpg' height='90'> <img   src='G_2.jpg' height='90'>","null","Animation1",""
"","","","","","html-keyboard-response","126","3597424","0.0-103.0","71","1","2025-01-31 01:42:05","af8d355d56820e421d246a7037deb6e6","154.7.225.221","Mozilla/5.0 (Windows NT 10.0; Win64; x64) AppleWebKit/537.36 (KHTML, like Gecko) Chrome/132.0.0.0 Safari/537.36","WebKit","Chrome","132.0.0.0","Windows","10.0","https://app.prolific.com/","en-US,en;q=0.9","6712fc1608041fe311ca2221","67949641171f97c04e14fb34","679c24917c35a6a9109d898d","","null","<img     src='G_3.jpg' height='90'> <img     src='G_8.jpg' height='90'> <img     src='G_1.jpg' height='90'> <img      src='G_4.jpg' height='90'> <img   src='G_7.jpg' height='90'> <img id='selected'       src='G_5.jpg' height='90'> <img  src='G_6.jpg' height='90'> <img   src='G_2.jpg' height='90'>","null","Animation1",""
"","","","","","html-keyboard-response","127","3597936","0.0-104.0","71","1","2025-01-31 01:42:05","af8d355d56820e421d246a7037deb6e6","154.7.225.221","Mozilla/5.0 (Windows NT 10.0; Win64; x64) AppleWebKit/537.36 (KHTML, like Gecko) Chrome/132.0.0.0 Safari/537.36","WebKit","Chrome","132.0.0.0","Windows","10.0","https://app.prolific.com/","en-US,en;q=0.9","6712fc1608041fe311ca2221","67949641171f97c04e14fb34","679c24917c35a6a9109d898d","","null","<img     src='G_3.jpg' height='90'> <img     src='G_8.jpg' height='90'> <img     src='G_1.jpg' height='90'> <img      src='G_4.jpg' height='90'> <img   src='G_7.jpg' height='90'> <img id='selected'       src='G_5.jpg' height='90'> <img id='selected'  src='G_6.jpg' height='90'> <img   src='G_2.jpg' height='90'>","null","Animation1",""
"","","","","","html-keyboard-response","128","3598447","0.0-105.0","71","1","2025-01-31 01:42:05","af8d355d56820e421d246a7037deb6e6","154.7.225.221","Mozilla/5.0 (Windows NT 10.0; Win64; x64) AppleWebKit/537.36 (KHTML, like Gecko) Chrome/132.0.0.0 Safari/537.36","WebKit","Chrome","132.0.0.0","Windows","10.0","https://app.prolific.com/","en-US,en;q=0.9","6712fc1608041fe311ca2221","67949641171f97c04e14fb34","679c24917c35a6a9109d898d","","null","<img     src='G_3.jpg' height='90'> <img     src='G_8.jpg' height='90'> <img     src='G_1.jpg' height='90'> <img      src='G_4.jpg' height='90'> <img   src='G_7.jpg' height='90'> <img id='selected'       src='G_5.jpg' height='90'> <img id='selected'  src='G_6.jpg' height='90'> <img   src='G_2.jpg' height='90'>","null","Animation1",""
"","","","","","html-keyboard-response","129","3598770","0.0-106.0","71","1","2025-01-31 01:42:05","af8d355d56820e421d246a7037deb6e6","154.7.225.221","Mozilla/5.0 (Windows NT 10.0; Win64; x64) AppleWebKit/537.36 (KHTML, like Gecko) Chrome/132.0.0.0 Safari/537.36","WebKit","Chrome","132.0.0.0","Windows","10.0","https://app.prolific.com/","en-US,en;q=0.9","6712fc1608041fe311ca2221","67949641171f97c04e14fb34","679c24917c35a6a9109d898d","","null","<img     src='G_3.jpg' height='90'> <img     src='G_8.jpg' height='90'> <img     src='G_1.jpg' height='90'> <img      src='G_4.jpg' height='90'> <img   src='G_7.jpg' height='90'> <img        src='G_5.jpg' height='90'> <img   src='G_6.jpg' height='90'> <img   src='G_2.jpg' height='90'>","null","Animation1",""
"","","","","","html-keyboard-response","130","3600641","0.0-107.0","71","1","2025-01-31 01:42:05","af8d355d56820e421d246a7037deb6e6","154.7.225.221","Mozilla/5.0 (Windows NT 10.0; Win64; x64) AppleWebKit/537.36 (KHTML, like Gecko) Chrome/132.0.0.0 Safari/537.36","WebKit","Chrome","132.0.0.0","Windows","10.0","https://app.prolific.com/","en-US,en;q=0.9","6712fc1608041fe311ca2221","67949641171f97c04e14fb34","679c24917c35a6a9109d898d","","1866","[""Did you notice any patterns? <br><br>Press Enter to watch that example again and follow the steps of Omgne Sort.""]","enter","",""
"","","","","","html-button-response","131","3601055","0.0-108.0","71","1","2025-01-31 01:42:05","af8d355d56820e421d246a7037deb6e6","154.7.225.221","Mozilla/5.0 (Windows NT 10.0; Win64; x64) AppleWebKit/537.36 (KHTML, like Gecko) Chrome/132.0.0.0 Safari/537.36","WebKit","Chrome","132.0.0.0","Windows","10.0","https://app.prolific.com/","en-US,en;q=0.9","6712fc1608041fe311ca2221","67949641171f97c04e14fb34","679c24917c35a6a9109d898d","","null","<img id='selected' src='G_4.jpg' height='90'> <img src='G_5.jpg' height='90'> <img src='G_1.jpg' height='90'> <img src='G_3.jpg' height='90'> <img src='G_8.jpg' height='90'> <img src='G_7.jpg' height='90'> <img src='G_2.jpg' height='90'> <img src='G_6.jpg' height='90'>","null","Learning example 1",""
"","","","","","html-button-response","132","3601378","0.0-109.0","71","1","2025-01-31 01:42:05","af8d355d56820e421d246a7037deb6e6","154.7.225.221","Mozilla/5.0 (Windows NT 10.0; Win64; x64) AppleWebKit/537.36 (KHTML, like Gecko) Chrome/132.0.0.0 Safari/537.36","WebKit","Chrome","132.0.0.0","Windows","10.0","https://app.prolific.com/","en-US,en;q=0.9","6712fc1608041fe311ca2221","67949641171f97c04e14fb34","679c24917c35a6a9109d898d","","null","<img id='selected' src='G_4.jpg' height='90'> <img id='selected' src='G_5.jpg' height='90'> <img src='G_1.jpg' height='90'> <img src='G_3.jpg' height='90'> <img src='G_8.jpg' height='90'> <img src='G_7.jpg' height='90'> <img src='G_2.jpg' height='90'> <img src='G_6.jpg' height='90'>","null","Learning example 1",""
"","","","","","html-button-response","133","3601703","0.0-110.0","71","1","2025-01-31 01:42:05","af8d355d56820e421d246a7037deb6e6","154.7.225.221","Mozilla/5.0 (Windows NT 10.0; Win64; x64) AppleWebKit/537.36 (KHTML, like Gecko) Chrome/132.0.0.0 Safari/537.36","WebKit","Chrome","132.0.0.0","Windows","10.0","https://app.prolific.com/","en-US,en;q=0.9","6712fc1608041fe311ca2221","67949641171f97c04e14fb34","679c24917c35a6a9109d898d","","null","<img id='selected' src='G_4.jpg' height='90'> <img id='selected' src='G_5.jpg' height='90'> <img src='G_1.jpg' height='90'> <img src='G_3.jpg' height='90'> <img src='G_8.jpg' height='90'> <img src='G_7.jpg' height='90'> <img src='G_2.jpg' height='90'> <img src='G_6.jpg' height='90'>","null","Learning example 1",""
"","","","","","html-button-response","134","3601982","0.0-111.0-0.0-0.0","71","1","2025-01-31 01:42:05","af8d355d56820e421d246a7037deb6e6","154.7.225.221","Mozilla/5.0 (Windows NT 10.0; Win64; x64) AppleWebKit/537.36 (KHTML, like Gecko) Chrome/132.0.0.0 Safari/537.36","WebKit","Chrome","132.0.0.0","Windows","10.0","https://app.prolific.com/","en-US,en;q=0.9","6712fc1608041fe311ca2221","67949641171f97c04e14fb34","679c24917c35a6a9109d898d","","272","<img id='selected' src='G_4.jpg' height='90'> <img id='selected' src='G_5.jpg' height='90'> <img src='G_1.jpg' height='90'> <img src='G_3.jpg' height='90'> <img src='G_8.jpg' height='90'> <img src='G_7.jpg' height='90'> <img src='G_2.jpg' height='90'> <img src='G_6.jpg' height='90'>","1","Learning example 1",""
"","","","","","html-button-response","135","3602244","0.0-111.1-0.1-0.1","71","1","2025-01-31 01:42:05","af8d355d56820e421d246a7037deb6e6","154.7.225.221","Mozilla/5.0 (Windows NT 10.0; Win64; x64) AppleWebKit/537.36 (KHTML, like Gecko) Chrome/132.0.0.0 Safari/537.36","WebKit","Chrome","132.0.0.0","Windows","10.0","https://app.prolific.com/","en-US,en;q=0.9","6712fc1608041fe311ca2221","67949641171f97c04e14fb34","679c24917c35a6a9109d898d","","252","<img id='selected' src='G_4.jpg' height='90'> <img id='selected' src='G_5.jpg' height='90'> <img src='G_1.jpg' height='90'> <img src='G_3.jpg' height='90'> <img src='G_8.jpg' height='90'> <img src='G_7.jpg' height='90'> <img src='G_2.jpg' height='90'> <img src='G_6.jpg' height='90'>","0","Learning example 1",""
"","","","","","html-button-response","136","3602458","0.0-112.0","71","1","2025-01-31 01:42:05","af8d355d56820e421d246a7037deb6e6","154.7.225.221","Mozilla/5.0 (Windows NT 10.0; Win64; x64) AppleWebKit/537.36 (KHTML, like Gecko) Chrome/132.0.0.0 Safari/537.36","WebKit","Chrome","132.0.0.0","Windows","10.0","https://app.prolific.com/","en-US,en;q=0.9","6712fc1608041fe311ca2221","67949641171f97c04e14fb34","679c24917c35a6a9109d898d","","null","<img  src='G_4.jpg' height='90'> <img  src='G_5.jpg' height='90'> <img src='G_1.jpg' height='90'> <img src='G_3.jpg' height='90'> <img src='G_8.jpg' height='90'> <img src='G_7.jpg' height='90'> <img src='G_2.jpg' height='90'> <img src='G_6.jpg' height='90'>","null","Learning example 1",""
"","","","","","html-button-response","137","3602876","0.0-113.0","71","1","2025-01-31 01:42:05","af8d355d56820e421d246a7037deb6e6","154.7.225.221","Mozilla/5.0 (Windows NT 10.0; Win64; x64) AppleWebKit/537.36 (KHTML, like Gecko) Chrome/132.0.0.0 Safari/537.36","WebKit","Chrome","132.0.0.0","Windows","10.0","https://app.prolific.com/","en-US,en;q=0.9","6712fc1608041fe311ca2221","67949641171f97c04e14fb34","679c24917c35a6a9109d898d","","null","<img  src='G_4.jpg' height='90'> <img id='selected'  src='G_5.jpg' height='90'> <img src='G_1.jpg' height='90'> <img src='G_3.jpg' height='90'> <img src='G_8.jpg' height='90'> <img src='G_7.jpg' height='90'> <img src='G_2.jpg' height='90'> <img src='G_6.jpg' height='90'>","null","Learning example 1",""
"","","","","","html-button-response","138","3603165","0.0-114.0","71","1","2025-01-31 01:42:05","af8d355d56820e421d246a7037deb6e6","154.7.225.221","Mozilla/5.0 (Windows NT 10.0; Win64; x64) AppleWebKit/537.36 (KHTML, like Gecko) Chrome/132.0.0.0 Safari/537.36","WebKit","Chrome","132.0.0.0","Windows","10.0","https://app.prolific.com/","en-US,en;q=0.9","6712fc1608041fe311ca2221","67949641171f97c04e14fb34","679c24917c35a6a9109d898d","","280","<img  src='G_4.jpg' height='90'> <img id='selected'  src='G_5.jpg' height='90'> <img id='selected' src='G_1.jpg' height='90'> <img src='G_3.jpg' height='90'> <img src='G_8.jpg' height='90'> <img src='G_7.jpg' height='90'> <img src='G_2.jpg' height='90'> <img src='G_6.jpg' height='90'>","2","Learning example 1",""
"","","","","","html-button-response","139","3603419","0.0-115.0","71","1","2025-01-31 01:42:05","af8d355d56820e421d246a7037deb6e6","154.7.225.221","Mozilla/5.0 (Windows NT 10.0; Win64; x64) AppleWebKit/537.36 (KHTML, like Gecko) Chrome/132.0.0.0 Safari/537.36","WebKit","Chrome","132.0.0.0","Windows","10.0","https://app.prolific.com/","en-US,en;q=0.9","6712fc1608041fe311ca2221","67949641171f97c04e14fb34","679c24917c35a6a9109d898d","","245","<img  src='G_4.jpg' height='90'> <img id='swapped' src='G_1.jpg' height='90'> <img id='swapped'  src='G_5.jpg' height='90'> <img src='G_3.jpg' height='90'> <img src='G_8.jpg' height='90'> <img src='G_7.jpg' height='90'> <img src='G_2.jpg' height='90'> <img src='G_6.jpg' height='90'>","1","Learning example 1",""
"","","","","","html-button-response","140","3603635","0.0-117.0","71","1","2025-01-31 01:42:05","af8d355d56820e421d246a7037deb6e6","154.7.225.221","Mozilla/5.0 (Windows NT 10.0; Win64; x64) AppleWebKit/537.36 (KHTML, like Gecko) Chrome/132.0.0.0 Safari/537.36","WebKit","Chrome","132.0.0.0","Windows","10.0","https://app.prolific.com/","en-US,en;q=0.9","6712fc1608041fe311ca2221","67949641171f97c04e14fb34","679c24917c35a6a9109d898d","","null","<img  src='G_4.jpg' height='90'> <img  src='G_1.jpg' height='90'> <img   src='G_5.jpg' height='90'> <img src='G_3.jpg' height='90'> <img src='G_8.jpg' height='90'> <img src='G_7.jpg' height='90'> <img src='G_2.jpg' height='90'> <img src='G_6.jpg' height='90'>","null","Learning example 1",""
"","","","","","html-button-response","141","3604057","0.0-118.0","71","1","2025-01-31 01:42:05","af8d355d56820e421d246a7037deb6e6","154.7.225.221","Mozilla/5.0 (Windows NT 10.0; Win64; x64) AppleWebKit/537.36 (KHTML, like Gecko) Chrome/132.0.0.0 Safari/537.36","WebKit","Chrome","132.0.0.0","Windows","10.0","https://app.prolific.com/","en-US,en;q=0.9","6712fc1608041fe311ca2221","67949641171f97c04e14fb34","679c24917c35a6a9109d898d","","null","<img id='selected'  src='G_4.jpg' height='90'> <img  src='G_1.jpg' height='90'> <img   src='G_5.jpg' height='90'> <img src='G_3.jpg' height='90'> <img src='G_8.jpg' height='90'> <img src='G_7.jpg' height='90'> <img src='G_2.jpg' height='90'> <img src='G_6.jpg' height='90'>","null","Learning example 1",""
"","","","","","html-button-response","142","3604393","0.0-119.0","71","1","2025-01-31 01:42:05","af8d355d56820e421d246a7037deb6e6","154.7.225.221","Mozilla/5.0 (Windows NT 10.0; Win64; x64) AppleWebKit/537.36 (KHTML, like Gecko) Chrome/132.0.0.0 Safari/537.36","WebKit","Chrome","132.0.0.0","Windows","10.0","https://app.prolific.com/","en-US,en;q=0.9","6712fc1608041fe311ca2221","67949641171f97c04e14fb34","679c24917c35a6a9109d898d","","null","<img id='selected'  src='G_4.jpg' height='90'> <img id='selected'  src='G_1.jpg' height='90'> <img   src='G_5.jpg' height='90'> <img src='G_3.jpg' height='90'> <img src='G_8.jpg' height='90'> <img src='G_7.jpg' height='90'> <img src='G_2.jpg' height='90'> <img src='G_6.jpg' height='90'>","null","Learning example 1",""
"","","","","","html-button-response","143","3604413","0.0-120.0","71","1","2025-01-31 01:42:05","af8d355d56820e421d246a7037deb6e6","154.7.225.221","Mozilla/5.0 (Windows NT 10.0; Win64; x64) AppleWebKit/537.36 (KHTML, like Gecko) Chrome/132.0.0.0 Safari/537.36","WebKit","Chrome","132.0.0.0","Windows","10.0","https://app.prolific.com/","en-US,en;q=0.9","6712fc1608041fe311ca2221","67949641171f97c04e14fb34","679c24917c35a6a9109d898d","","6","<img id='swapped'  src='G_1.jpg' height='90'> <img id='swapped'  src='G_4.jpg' height='90'> <img   src='G_5.jpg' height='90'> <img src='G_3.jpg' height='90'> <img src='G_8.jpg' height='90'> <img src='G_7.jpg' height='90'> <img src='G_2.jpg' height='90'> <img src='G_6.jpg' height='90'>","3","Learning example 1",""
"","","","","","html-button-response","144","3604625","0.0-121.0-0.0-0.0","71","1","2025-01-31 01:42:05","af8d355d56820e421d246a7037deb6e6","154.7.225.221","Mozilla/5.0 (Windows NT 10.0; Win64; x64) AppleWebKit/537.36 (KHTML, like Gecko) Chrome/132.0.0.0 Safari/537.36","WebKit","Chrome","132.0.0.0","Windows","10.0","https://app.prolific.com/","en-US,en;q=0.9","6712fc1608041fe311ca2221","67949641171f97c04e14fb34","679c24917c35a6a9109d898d","","199","<img id='swapped'  src='G_1.jpg' height='90'> <img id='swapped'  src='G_4.jpg' height='90'> <img   src='G_5.jpg' height='90'> <img src='G_3.jpg' height='90'> <img src='G_8.jpg' height='90'> <img src='G_7.jpg' height='90'> <img src='G_2.jpg' height='90'> <img src='G_6.jpg' height='90'>","2","Learning example 1",""
"","","","","","html-button-response","145","3605342","0.0-121.1-0.1-0.1","71","1","2025-01-31 01:42:05","af8d355d56820e421d246a7037deb6e6","154.7.225.221","Mozilla/5.0 (Windows NT 10.0; Win64; x64) AppleWebKit/537.36 (KHTML, like Gecko) Chrome/132.0.0.0 Safari/537.36","WebKit","Chrome","132.0.0.0","Windows","10.0","https://app.prolific.com/","en-US,en;q=0.9","6712fc1608041fe311ca2221","67949641171f97c04e14fb34","679c24917c35a6a9109d898d","","706","<img id='swapped'  src='G_1.jpg' height='90'> <img id='swapped'  src='G_4.jpg' height='90'> <img   src='G_5.jpg' height='90'> <img src='G_3.jpg' height='90'> <img src='G_8.jpg' height='90'> <img src='G_7.jpg' height='90'> <img src='G_2.jpg' height='90'> <img src='G_6.jpg' height='90'>","2","Learning example 1",""
