"success","timeout","failed_images","failed_audio","failed_video","trial_type","trial_index","time_elapsed","internal_node_id","run_id","condition","recorded_at","source_code_version","ip","user_agent","device","browser","browser_version","platform","platform_version","referer","accept_language","PROLIFIC_PID","STUDY_ID","SESSION_ID","view_history","rt","stimulus","response","phase","question_order"
"true","false","[]","[]","[]","preload","0","261","0.0-0.0","72","1","2025-01-31 01:47:40","af8d355d56820e421d246a7037deb6e6","67.171.141.227","Mozilla/5.0 (X11; Linux x86_64) AppleWebKit/537.36 (KHTML, like Gecko) Chrome/132.0.0.0 Safari/537.36","WebKit","Chrome","132.0.0.0","Linux","","https://app.prolific.com/","en-US,en;q=0.6","6427402d1463cb72eca94b3e","67949641171f97c04e14fb34","679c2bb6f6e1ff6ad253d59f","","","","","",""
"","","","","","instructions","1","5534","0.0-1.0","72","1","2025-01-31 01:47:40","af8d355d56820e421d246a7037deb6e6","67.171.141.227","Mozilla/5.0 (X11; Linux x86_64) AppleWebKit/537.36 (KHTML, like Gecko) Chrome/132.0.0.0 Safari/537.36","WebKit","Chrome","132.0.0.0","Linux","","https://app.prolific.com/","en-US,en;q=0.6","6427402d1463cb72eca94b3e","67949641171f97c04e14fb34","679c2bb6f6e1ff6ad253d59f","[{""page_index"":0,""viewing_time"":5272}]","5272","","","",""
"","","","","","html-keyboard-response","2","6035","0.0-2.0","72","1","2025-01-31 01:47:40","af8d355d56820e421d246a7037deb6e6","67.171.141.227","Mozilla/5.0 (X11; Linux x86_64) AppleWebKit/537.36 (KHTML, like Gecko) Chrome/132.0.0.0 Safari/537.36","WebKit","Chrome","132.0.0.0","Linux","","https://app.prolific.com/","en-US,en;q=0.6","6427402d1463cb72eca94b3e","67949641171f97c04e14fb34","679c2bb6f6e1ff6ad253d59f","","null","<p> + <p/>","null","",""
"","","","","","instructions","3","38039","0.0-3.0","72","1","2025-01-31 01:47:40","af8d355d56820e421d246a7037deb6e6","67.171.141.227","Mozilla/5.0 (X11; Linux x86_64) AppleWebKit/537.36 (KHTML, like Gecko) Chrome/132.0.0.0 Safari/537.36","WebKit","Chrome","132.0.0.0","Linux","","https://app.prolific.com/","en-US,en;q=0.6","6427402d1463cb72eca94b3e","67949641171f97c04e14fb34","679c2bb6f6e1ff6ad253d59f","[{""page_index"":0,""viewing_time"":1547},{""page_index"":1,""viewing_time"":9977},{""page_index"":2,""viewing_time"":8284},{""page_index"":3,""viewing_time"":5201},{""page_index"":4,""viewing_time"":6994}]","32003","","","",""
"","","","","","html-button-response","4","52404","0.0-4.0-0.0-0.0","72","1","2025-01-31 01:47:40","af8d355d56820e421d246a7037deb6e6","67.171.141.227","Mozilla/5.0 (X11; Linux x86_64) AppleWebKit/537.36 (KHTML, like Gecko) Chrome/132.0.0.0 Safari/537.36","WebKit","Chrome","132.0.0.0","Linux","","https://app.prolific.com/","en-US,en;q=0.6","6427402d1463cb72eca94b3e","67949641171f97c04e14fb34","679c2bb6f6e1ff6ad253d59f","","14363","","0","Intro Trial",""
"","","","","","html-button-response","5","53866","0.0-4.1-0.1-0.1","72","1","2025-01-31 01:47:40","af8d355d56820e421d246a7037deb6e6","67.171.141.227","Mozilla/5.0 (X11; Linux x86_64) AppleWebKit/537.36 (KHTML, like Gecko) Chrome/132.0.0.0 Safari/537.36","WebKit","Chrome","132.0.0.0","Linux","","https://app.prolific.com/","en-US,en;q=0.6","6427402d1463cb72eca94b3e","67949641171f97c04e14fb34","679c2bb6f6e1ff6ad253d59f","","1461","","1","Intro Trial",""
"","","","","","html-button-response","6","58247","0.0-4.2-0.2-0.2","72","1","2025-01-31 01:47:40","af8d355d56820e421d246a7037deb6e6","67.171.141.227","Mozilla/5.0 (X11; Linux x86_64) AppleWebKit/537.36 (KHTML, like Gecko) Chrome/132.0.0.0 Safari/537.36","WebKit","Chrome","132.0.0.0","Linux","","https://app.prolific.com/","en-US,en;q=0.6","6427402d1463cb72eca94b3e","67949641171f97c04e14fb34","679c2bb6f6e1ff6ad253d59f","","4380","","1","Intro Trial",""
"","","","","","html-button-response","7","58813","0.0-4.3-0.3-0.3","72","1","2025-01-31 01:47:40","af8d355d56820e421d246a7037deb6e6","67.171.141.227","Mozilla/5.0 (X11; Linux x86_64) AppleWebKit/537.36 (KHTML, like Gecko) Chrome/132.0.0.0 Safari/537.36","WebKit","Chrome","132.0.0.0","Linux","","https://app.prolific.com/","en-US,en;q=0.6","6427402d1463cb72eca94b3e","67949641171f97c04e14fb34","679c2bb6f6e1ff6ad253d59f","","565","","0","Intro Trial",""
"","","","","","html-button-response","8","59627","0.0-4.4-0.4-0.4","72","1","2025-01-31 01:47:40","af8d355d56820e421d246a7037deb6e6","67.171.141.227","Mozilla/5.0 (X11; Linux x86_64) AppleWebKit/537.36 (KHTML, like Gecko) Chrome/132.0.0.0 Safari/537.36","WebKit","Chrome","132.0.0.0","Linux","","https://app.prolific.com/","en-US,en;q=0.6","6427402d1463cb72eca94b3e","67949641171f97c04e14fb34","679c2bb6f6e1ff6ad253d59f","","813","","0","Intro Trial",""
"","","","","","html-button-response","9","60187","0.0-4.5-0.5-0.5","72","1","2025-01-31 01:47:40","af8d355d56820e421d246a7037deb6e6","67.171.141.227","Mozilla/5.0 (X11; Linux x86_64) AppleWebKit/537.36 (KHTML, like Gecko) Chrome/132.0.0.0 Safari/537.36","WebKit","Chrome","132.0.0.0","Linux","","https://app.prolific.com/","en-US,en;q=0.6","6427402d1463cb72eca94b3e","67949641171f97c04e14fb34","679c2bb6f6e1ff6ad253d59f","","558","","1","Intro Trial",""
"","","","","","html-button-response","10","60974","0.0-4.6-0.6-0.6","72","1","2025-01-31 01:47:40","af8d355d56820e421d246a7037deb6e6","67.171.141.227","Mozilla/5.0 (X11; Linux x86_64) AppleWebKit/537.36 (KHTML, like Gecko) Chrome/132.0.0.0 Safari/537.36","WebKit","Chrome","132.0.0.0","Linux","","https://app.prolific.com/","en-US,en;q=0.6","6427402d1463cb72eca94b3e","67949641171f97c04e14fb34","679c2bb6f6e1ff6ad253d59f","","786","","1","Intro Trial",""
"","","","","","html-button-response","11","61283","0.0-4.7-0.7-0.7","72","1","2025-01-31 01:47:40","af8d355d56820e421d246a7037deb6e6","67.171.141.227","Mozilla/5.0 (X11; Linux x86_64) AppleWebKit/537.36 (KHTML, like Gecko) Chrome/132.0.0.0 Safari/537.36","WebKit","Chrome","132.0.0.0","Linux","","https://app.prolific.com/","en-US,en;q=0.6","6427402d1463cb72eca94b3e","67949641171f97c04e14fb34","679c2bb6f6e1ff6ad253d59f","","308","","1","Intro Trial",""
"","","","","","html-button-response","12","62147","0.0-4.8-0.8-0.8","72","1","2025-01-31 01:47:40","af8d355d56820e421d246a7037deb6e6","67.171.141.227","Mozilla/5.0 (X11; Linux x86_64) AppleWebKit/537.36 (KHTML, like Gecko) Chrome/132.0.0.0 Safari/537.36","WebKit","Chrome","132.0.0.0","Linux","","https://app.prolific.com/","en-US,en;q=0.6","6427402d1463cb72eca94b3e","67949641171f97c04e14fb34","679c2bb6f6e1ff6ad253d59f","","863","","0","Intro Trial",""
"","","","","","html-button-response","13","62374","0.0-4.9-0.9-0.9","72","1","2025-01-31 01:47:40","af8d355d56820e421d246a7037deb6e6","67.171.141.227","Mozilla/5.0 (X11; Linux x86_64) AppleWebKit/537.36 (KHTML, like Gecko) Chrome/132.0.0.0 Safari/537.36","WebKit","Chrome","132.0.0.0","Linux","","https://app.prolific.com/","en-US,en;q=0.6","6427402d1463cb72eca94b3e","67949641171f97c04e14fb34","679c2bb6f6e1ff6ad253d59f","","226","","0","Intro Trial",""
"","","","","","html-button-response","14","64279","0.0-4.10-0.10-0.10","72","1","2025-01-31 01:47:40","af8d355d56820e421d246a7037deb6e6","67.171.141.227","Mozilla/5.0 (X11; Linux x86_64) AppleWebKit/537.36 (KHTML, like Gecko) Chrome/132.0.0.0 Safari/537.36","WebKit","Chrome","132.0.0.0","Linux","","https://app.prolific.com/","en-US,en;q=0.6","6427402d1463cb72eca94b3e","67949641171f97c04e14fb34","679c2bb6f6e1ff6ad253d59f","","1903","","0","Intro Trial",""
"","","","","","html-button-response","15","64776","0.0-4.11-0.11-0.11","72","1","2025-01-31 01:47:40","af8d355d56820e421d246a7037deb6e6","67.171.141.227","Mozilla/5.0 (X11; Linux x86_64) AppleWebKit/537.36 (KHTML, like Gecko) Chrome/132.0.0.0 Safari/537.36","WebKit","Chrome","132.0.0.0","Linux","","https://app.prolific.com/","en-US,en;q=0.6","6427402d1463cb72eca94b3e","67949641171f97c04e14fb34","679c2bb6f6e1ff6ad253d59f","","496","","2","Intro Trial",""
"","","","","","html-button-response","16","65604","0.0-4.12-0.12-0.12","72","1","2025-01-31 01:47:40","af8d355d56820e421d246a7037deb6e6","67.171.141.227","Mozilla/5.0 (X11; Linux x86_64) AppleWebKit/537.36 (KHTML, like Gecko) Chrome/132.0.0.0 Safari/537.36","WebKit","Chrome","132.0.0.0","Linux","","https://app.prolific.com/","en-US,en;q=0.6","6427402d1463cb72eca94b3e","67949641171f97c04e14fb34","679c2bb6f6e1ff6ad253d59f","","826","","0","Intro Trial",""
"","","","","","html-button-response","17","66108","0.0-4.13-0.13-0.13","72","1","2025-01-31 01:47:40","af8d355d56820e421d246a7037deb6e6","67.171.141.227","Mozilla/5.0 (X11; Linux x86_64) AppleWebKit/537.36 (KHTML, like Gecko) Chrome/132.0.0.0 Safari/537.36","WebKit","Chrome","132.0.0.0","Linux","","https://app.prolific.com/","en-US,en;q=0.6","6427402d1463cb72eca94b3e","67949641171f97c04e14fb34","679c2bb6f6e1ff6ad253d59f","","502","","3","Intro Trial",""
"","","","","","html-button-response","18","66653","0.0-4.14-0.14-0.14","72","1","2025-01-31 01:47:40","af8d355d56820e421d246a7037deb6e6","67.171.141.227","Mozilla/5.0 (X11; Linux x86_64) AppleWebKit/537.36 (KHTML, like Gecko) Chrome/132.0.0.0 Safari/537.36","WebKit","Chrome","132.0.0.0","Linux","","https://app.prolific.com/","en-US,en;q=0.6","6427402d1463cb72eca94b3e","67949641171f97c04e14fb34","679c2bb6f6e1ff6ad253d59f","","544","","0","Intro Trial",""
"","","","","","html-button-response","19","67239","0.0-4.15-0.15-0.15","72","1","2025-01-31 01:47:40","af8d355d56820e421d246a7037deb6e6","67.171.141.227","Mozilla/5.0 (X11; Linux x86_64) AppleWebKit/537.36 (KHTML, like Gecko) Chrome/132.0.0.0 Safari/537.36","WebKit","Chrome","132.0.0.0","Linux","","https://app.prolific.com/","en-US,en;q=0.6","6427402d1463cb72eca94b3e","67949641171f97c04e14fb34","679c2bb6f6e1ff6ad253d59f","","585","","4","Intro Trial",""
"","","","","","html-button-response","20","73803","0.0-4.16-0.16-0.16","72","1","2025-01-31 01:47:40","af8d355d56820e421d246a7037deb6e6","67.171.141.227","Mozilla/5.0 (X11; Linux x86_64) AppleWebKit/537.36 (KHTML, like Gecko) Chrome/132.0.0.0 Safari/537.36","WebKit","Chrome","132.0.0.0","Linux","","https://app.prolific.com/","en-US,en;q=0.6","6427402d1463cb72eca94b3e","67949641171f97c04e14fb34","679c2bb6f6e1ff6ad253d59f","","6562","","5","Intro Trial",""
"","","","","","html-keyboard-response","21","82962","0.0-5.0","72","1","2025-01-31 01:47:40","af8d355d56820e421d246a7037deb6e6","67.171.141.227","Mozilla/5.0 (X11; Linux x86_64) AppleWebKit/537.36 (KHTML, like Gecko) Chrome/132.0.0.0 Safari/537.36","WebKit","Chrome","132.0.0.0","Linux","","https://app.prolific.com/","en-US,en;q=0.6","6427402d1463cb72eca94b3e","67949641171f97c04e14fb34","679c2bb6f6e1ff6ad253d59f","","9158","[""You sorted incorrectly by using the balance 6 times. <br><br> <img src='G_5.jpg' height='90'><img src='G_1.jpg' height='90'><img src='G_3.jpg' height='90'><img src='G_4.jpg' height='90'><img src='G_2.jpg' height='90'><br><br> Your final order is 1,4,3,5,2<br><br><br>Omgne Sort in this game will allow you to sort correctly by using the balance 8 times. Press Enter to learn it!""]","enter","",""
"","","","","","html-keyboard-response","22","86974","0.0-6.0","72","1","2025-01-31 01:47:40","af8d355d56820e421d246a7037deb6e6","67.171.141.227","Mozilla/5.0 (X11; Linux x86_64) AppleWebKit/537.36 (KHTML, like Gecko) Chrome/132.0.0.0 Safari/537.36","WebKit","Chrome","132.0.0.0","Linux","","https://app.prolific.com/","en-US,en;q=0.6","6427402d1463cb72eca94b3e","67949641171f97c04e14fb34","679c2bb6f6e1ff6ad253d59f","","4011","<p>Welcome to the learning phase! <br><br> You will learn by six examples. The following learning trials will not be used to calculate your performance. <br><br> Press Enter to continue.<p/>","enter","",""
"","","","","","html-keyboard-response","23","90566","0.0-7.0","72","1","2025-01-31 01:47:40","af8d355d56820e421d246a7037deb6e6","67.171.141.227","Mozilla/5.0 (X11; Linux x86_64) AppleWebKit/537.36 (KHTML, like Gecko) Chrome/132.0.0.0 Safari/537.36","WebKit","Chrome","132.0.0.0","Linux","","https://app.prolific.com/","en-US,en;q=0.6","6427402d1463cb72eca94b3e","67949641171f97c04e14fb34","679c2bb6f6e1ff6ad253d59f","","3591","[""Example 1<br><br>You will watch Omnge Sort in action. Try to identify any patterns in the comparisons made by this method. <br><br>Press Enter to continue.""]","enter","",""
"","","","","","html-keyboard-response","24","91067","0.0-8.0","72","1","2025-01-31 01:47:40","af8d355d56820e421d246a7037deb6e6","67.171.141.227","Mozilla/5.0 (X11; Linux x86_64) AppleWebKit/537.36 (KHTML, like Gecko) Chrome/132.0.0.0 Safari/537.36","WebKit","Chrome","132.0.0.0","Linux","","https://app.prolific.com/","en-US,en;q=0.6","6427402d1463cb72eca94b3e","67949641171f97c04e14fb34","679c2bb6f6e1ff6ad253d59f","","null","<img id='selected' src='G_9.jpg' height='90'> <img src='G_7.jpg' height='90'> <img src='G_3.jpg' height='90'> <img src='G_1.jpg' height='90'> <img src='G_5.jpg' height='90'>","null","Animation0",""
"","","","","","html-keyboard-response","25","91568","0.0-9.0","72","1","2025-01-31 01:47:40","af8d355d56820e421d246a7037deb6e6","67.171.141.227","Mozilla/5.0 (X11; Linux x86_64) AppleWebKit/537.36 (KHTML, like Gecko) Chrome/132.0.0.0 Safari/537.36","WebKit","Chrome","132.0.0.0","Linux","","https://app.prolific.com/","en-US,en;q=0.6","6427402d1463cb72eca94b3e","67949641171f97c04e14fb34","679c2bb6f6e1ff6ad253d59f","","null","<img id='selected' src='G_9.jpg' height='90'> <img id='selected' src='G_7.jpg' height='90'> <img src='G_3.jpg' height='90'> <img src='G_1.jpg' height='90'> <img src='G_5.jpg' height='90'>","null","Animation0",""
"","","","","","html-keyboard-response","26","92070","0.0-10.0","72","1","2025-01-31 01:47:40","af8d355d56820e421d246a7037deb6e6","67.171.141.227","Mozilla/5.0 (X11; Linux x86_64) AppleWebKit/537.36 (KHTML, like Gecko) Chrome/132.0.0.0 Safari/537.36","WebKit","Chrome","132.0.0.0","Linux","","https://app.prolific.com/","en-US,en;q=0.6","6427402d1463cb72eca94b3e","67949641171f97c04e14fb34","679c2bb6f6e1ff6ad253d59f","","null","<img id='swapped' src='G_7.jpg' height='90'> <img id='swapped' src='G_9.jpg' height='90'> <img src='G_3.jpg' height='90'> <img src='G_1.jpg' height='90'> <img src='G_5.jpg' height='90'>","null","Animation0",""
"","","","","","html-keyboard-response","27","92371","0.0-11.0","72","1","2025-01-31 01:47:40","af8d355d56820e421d246a7037deb6e6","67.171.141.227","Mozilla/5.0 (X11; Linux x86_64) AppleWebKit/537.36 (KHTML, like Gecko) Chrome/132.0.0.0 Safari/537.36","WebKit","Chrome","132.0.0.0","Linux","","https://app.prolific.com/","en-US,en;q=0.6","6427402d1463cb72eca94b3e","67949641171f97c04e14fb34","679c2bb6f6e1ff6ad253d59f","","null","<img  src='G_7.jpg' height='90'> <img  src='G_9.jpg' height='90'> <img src='G_3.jpg' height='90'> <img src='G_1.jpg' height='90'> <img src='G_5.jpg' height='90'>","null","Animation0",""
"","","","","","html-keyboard-response","28","92872","0.0-12.0","72","1","2025-01-31 01:47:40","af8d355d56820e421d246a7037deb6e6","67.171.141.227","Mozilla/5.0 (X11; Linux x86_64) AppleWebKit/537.36 (KHTML, like Gecko) Chrome/132.0.0.0 Safari/537.36","WebKit","Chrome","132.0.0.0","Linux","","https://app.prolific.com/","en-US,en;q=0.6","6427402d1463cb72eca94b3e","67949641171f97c04e14fb34","679c2bb6f6e1ff6ad253d59f","","null","<img  src='G_7.jpg' height='90'> <img id='selected'  src='G_9.jpg' height='90'> <img src='G_3.jpg' height='90'> <img src='G_1.jpg' height='90'> <img src='G_5.jpg' height='90'>","null","Animation0",""
"","","","","","html-keyboard-response","29","93373","0.0-13.0","72","1","2025-01-31 01:47:40","af8d355d56820e421d246a7037deb6e6","67.171.141.227","Mozilla/5.0 (X11; Linux x86_64) AppleWebKit/537.36 (KHTML, like Gecko) Chrome/132.0.0.0 Safari/537.36","WebKit","Chrome","132.0.0.0","Linux","","https://app.prolific.com/","en-US,en;q=0.6","6427402d1463cb72eca94b3e","67949641171f97c04e14fb34","679c2bb6f6e1ff6ad253d59f","","null","<img  src='G_7.jpg' height='90'> <img id='selected'  src='G_9.jpg' height='90'> <img id='selected' src='G_3.jpg' height='90'> <img src='G_1.jpg' height='90'> <img src='G_5.jpg' height='90'>","null","Animation0",""
"","","","","","html-keyboard-response","30","93875","0.0-14.0","72","1","2025-01-31 01:47:40","af8d355d56820e421d246a7037deb6e6","67.171.141.227","Mozilla/5.0 (X11; Linux x86_64) AppleWebKit/537.36 (KHTML, like Gecko) Chrome/132.0.0.0 Safari/537.36","WebKit","Chrome","132.0.0.0","Linux","","https://app.prolific.com/","en-US,en;q=0.6","6427402d1463cb72eca94b3e","67949641171f97c04e14fb34","679c2bb6f6e1ff6ad253d59f","","null","<img  src='G_7.jpg' height='90'> <img id='selected'  src='G_9.jpg' height='90'> <img id='selected' src='G_3.jpg' height='90'> <img src='G_1.jpg' height='90'> <img src='G_5.jpg' height='90'>","null","Animation0",""
"","","","","","html-keyboard-response","31","94176","0.0-15.0","72","1","2025-01-31 01:47:40","af8d355d56820e421d246a7037deb6e6","67.171.141.227","Mozilla/5.0 (X11; Linux x86_64) AppleWebKit/537.36 (KHTML, like Gecko) Chrome/132.0.0.0 Safari/537.36","WebKit","Chrome","132.0.0.0","Linux","","https://app.prolific.com/","en-US,en;q=0.6","6427402d1463cb72eca94b3e","67949641171f97c04e14fb34","679c2bb6f6e1ff6ad253d59f","","null","<img  src='G_7.jpg' height='90'> <img   src='G_9.jpg' height='90'> <img  src='G_3.jpg' height='90'> <img src='G_1.jpg' height='90'> <img src='G_5.jpg' height='90'>","null","Animation0",""
"","","","","","html-keyboard-response","32","94678","0.0-16.0","72","1","2025-01-31 01:47:40","af8d355d56820e421d246a7037deb6e6","67.171.141.227","Mozilla/5.0 (X11; Linux x86_64) AppleWebKit/537.36 (KHTML, like Gecko) Chrome/132.0.0.0 Safari/537.36","WebKit","Chrome","132.0.0.0","Linux","","https://app.prolific.com/","en-US,en;q=0.6","6427402d1463cb72eca94b3e","67949641171f97c04e14fb34","679c2bb6f6e1ff6ad253d59f","","null","<img  src='G_7.jpg' height='90'> <img   src='G_9.jpg' height='90'> <img id='selected'  src='G_3.jpg' height='90'> <img src='G_1.jpg' height='90'> <img src='G_5.jpg' height='90'>","null","Animation0",""
"","","","","","html-keyboard-response","33","95179","0.0-17.0","72","1","2025-01-31 01:47:40","af8d355d56820e421d246a7037deb6e6","67.171.141.227","Mozilla/5.0 (X11; Linux x86_64) AppleWebKit/537.36 (KHTML, like Gecko) Chrome/132.0.0.0 Safari/537.36","WebKit","Chrome","132.0.0.0","Linux","","https://app.prolific.com/","en-US,en;q=0.6","6427402d1463cb72eca94b3e","67949641171f97c04e14fb34","679c2bb6f6e1ff6ad253d59f","","null","<img  src='G_7.jpg' height='90'> <img   src='G_9.jpg' height='90'> <img id='selected'  src='G_3.jpg' height='90'> <img id='selected' src='G_1.jpg' height='90'> <img src='G_5.jpg' height='90'>","null","Animation0",""
"","","","","","html-keyboard-response","34","95681","0.0-18.0","72","1","2025-01-31 01:47:40","af8d355d56820e421d246a7037deb6e6","67.171.141.227","Mozilla/5.0 (X11; Linux x86_64) AppleWebKit/537.36 (KHTML, like Gecko) Chrome/132.0.0.0 Safari/537.36","WebKit","Chrome","132.0.0.0","Linux","","https://app.prolific.com/","en-US,en;q=0.6","6427402d1463cb72eca94b3e","67949641171f97c04e14fb34","679c2bb6f6e1ff6ad253d59f","","null","<img  src='G_7.jpg' height='90'> <img   src='G_9.jpg' height='90'> <img id='selected'  src='G_3.jpg' height='90'> <img id='selected' src='G_1.jpg' height='90'> <img src='G_5.jpg' height='90'>","null","Animation0",""
"","","","","","html-keyboard-response","35","95982","0.0-19.0","72","1","2025-01-31 01:47:40","af8d355d56820e421d246a7037deb6e6","67.171.141.227","Mozilla/5.0 (X11; Linux x86_64) AppleWebKit/537.36 (KHTML, like Gecko) Chrome/132.0.0.0 Safari/537.36","WebKit","Chrome","132.0.0.0","Linux","","https://app.prolific.com/","en-US,en;q=0.6","6427402d1463cb72eca94b3e","67949641171f97c04e14fb34","679c2bb6f6e1ff6ad253d59f","","null","<img  src='G_7.jpg' height='90'> <img   src='G_9.jpg' height='90'> <img   src='G_3.jpg' height='90'> <img  src='G_1.jpg' height='90'> <img src='G_5.jpg' height='90'>","null","Animation0",""
"","","","","","html-keyboard-response","36","96484","0.0-20.0","72","1","2025-01-31 01:47:40","af8d355d56820e421d246a7037deb6e6","67.171.141.227","Mozilla/5.0 (X11; Linux x86_64) AppleWebKit/537.36 (KHTML, like Gecko) Chrome/132.0.0.0 Safari/537.36","WebKit","Chrome","132.0.0.0","Linux","","https://app.prolific.com/","en-US,en;q=0.6","6427402d1463cb72eca94b3e","67949641171f97c04e14fb34","679c2bb6f6e1ff6ad253d59f","","null","<img  src='G_7.jpg' height='90'> <img   src='G_9.jpg' height='90'> <img   src='G_3.jpg' height='90'> <img id='selected'  src='G_1.jpg' height='90'> <img src='G_5.jpg' height='90'>","null","Animation0",""
"","","","","","html-keyboard-response","37","96986","0.0-21.0","72","1","2025-01-31 01:47:40","af8d355d56820e421d246a7037deb6e6","67.171.141.227","Mozilla/5.0 (X11; Linux x86_64) AppleWebKit/537.36 (KHTML, like Gecko) Chrome/132.0.0.0 Safari/537.36","WebKit","Chrome","132.0.0.0","Linux","","https://app.prolific.com/","en-US,en;q=0.6","6427402d1463cb72eca94b3e","67949641171f97c04e14fb34","679c2bb6f6e1ff6ad253d59f","","null","<img  src='G_7.jpg' height='90'> <img   src='G_9.jpg' height='90'> <img   src='G_3.jpg' height='90'> <img id='selected'  src='G_1.jpg' height='90'> <img id='selected' src='G_5.jpg' height='90'>","null","Animation0",""
"","","","","","html-keyboard-response","38","97487","0.0-22.0","72","1","2025-01-31 01:47:40","af8d355d56820e421d246a7037deb6e6","67.171.141.227","Mozilla/5.0 (X11; Linux x86_64) AppleWebKit/537.36 (KHTML, like Gecko) Chrome/132.0.0.0 Safari/537.36","WebKit","Chrome","132.0.0.0","Linux","","https://app.prolific.com/","en-US,en;q=0.6","6427402d1463cb72eca94b3e","67949641171f97c04e14fb34","679c2bb6f6e1ff6ad253d59f","","null","<img  src='G_7.jpg' height='90'> <img   src='G_9.jpg' height='90'> <img   src='G_3.jpg' height='90'> <img id='selected'  src='G_1.jpg' height='90'> <img id='selected' src='G_5.jpg' height='90'>","null","Animation0",""
"","","","","","html-keyboard-response","39","97788","0.0-23.0","72","1","2025-01-31 01:47:40","af8d355d56820e421d246a7037deb6e6","67.171.141.227","Mozilla/5.0 (X11; Linux x86_64) AppleWebKit/537.36 (KHTML, like Gecko) Chrome/132.0.0.0 Safari/537.36","WebKit","Chrome","132.0.0.0","Linux","","https://app.prolific.com/","en-US,en;q=0.6","6427402d1463cb72eca94b3e","67949641171f97c04e14fb34","679c2bb6f6e1ff6ad253d59f","","null","<img  src='G_7.jpg' height='90'> <img   src='G_9.jpg' height='90'> <img   src='G_3.jpg' height='90'> <img   src='G_1.jpg' height='90'> <img  src='G_5.jpg' height='90'>","null","Animation0",""
"","","","","","html-keyboard-response","40","101977","0.0-24.0","72","1","2025-01-31 01:47:40","af8d355d56820e421d246a7037deb6e6","67.171.141.227","Mozilla/5.0 (X11; Linux x86_64) AppleWebKit/537.36 (KHTML, like Gecko) Chrome/132.0.0.0 Safari/537.36","WebKit","Chrome","132.0.0.0","Linux","","https://app.prolific.com/","en-US,en;q=0.6","6427402d1463cb72eca94b3e","67949641171f97c04e14fb34","679c2bb6f6e1ff6ad253d59f","","4187","[""Did you notice any patterns? <br><br>Press Enter to watch that example again and follow the steps of Omgne Sort.""]","enter","",""
"","","","","","html-button-response","41","102379","0.0-25.0","72","1","2025-01-31 01:47:40","af8d355d56820e421d246a7037deb6e6","67.171.141.227","Mozilla/5.0 (X11; Linux x86_64) AppleWebKit/537.36 (KHTML, like Gecko) Chrome/132.0.0.0 Safari/537.36","WebKit","Chrome","132.0.0.0","Linux","","https://app.prolific.com/","en-US,en;q=0.6","6427402d1463cb72eca94b3e","67949641171f97c04e14fb34","679c2bb6f6e1ff6ad253d59f","","null","<img id='selected' src='G_9.jpg' height='90'> <img src='G_7.jpg' height='90'> <img src='G_3.jpg' height='90'> <img src='G_1.jpg' height='90'> <img src='G_5.jpg' height='90'>","null","Learning example 0",""
"","","","","","html-button-response","42","102680","0.0-26.0","72","1","2025-01-31 01:47:40","af8d355d56820e421d246a7037deb6e6","67.171.141.227","Mozilla/5.0 (X11; Linux x86_64) AppleWebKit/537.36 (KHTML, like Gecko) Chrome/132.0.0.0 Safari/537.36","WebKit","Chrome","132.0.0.0","Linux","","https://app.prolific.com/","en-US,en;q=0.6","6427402d1463cb72eca94b3e","67949641171f97c04e14fb34","679c2bb6f6e1ff6ad253d59f","","null","<img id='selected' src='G_9.jpg' height='90'> <img id='selected' src='G_7.jpg' height='90'> <img src='G_3.jpg' height='90'> <img src='G_1.jpg' height='90'> <img src='G_5.jpg' height='90'>","null","Learning example 0",""
"","","","","","html-button-response","43","102982","0.0-27.0","72","1","2025-01-31 01:47:40","af8d355d56820e421d246a7037deb6e6","67.171.141.227","Mozilla/5.0 (X11; Linux x86_64) AppleWebKit/537.36 (KHTML, like Gecko) Chrome/132.0.0.0 Safari/537.36","WebKit","Chrome","132.0.0.0","Linux","","https://app.prolific.com/","en-US,en;q=0.6","6427402d1463cb72eca94b3e","67949641171f97c04e14fb34","679c2bb6f6e1ff6ad253d59f","","null","<img id='swapped' src='G_7.jpg' height='90'> <img id='swapped' src='G_9.jpg' height='90'> <img src='G_3.jpg' height='90'> <img src='G_1.jpg' height='90'> <img src='G_5.jpg' height='90'>","null","Learning example 0",""
"","","","","","html-button-response","44","105134","0.0-28.0-0.0-0.0","72","1","2025-01-31 01:47:40","af8d355d56820e421d246a7037deb6e6","67.171.141.227","Mozilla/5.0 (X11; Linux x86_64) AppleWebKit/537.36 (KHTML, like Gecko) Chrome/132.0.0.0 Safari/537.36","WebKit","Chrome","132.0.0.0","Linux","","https://app.prolific.com/","en-US,en;q=0.6","6427402d1463cb72eca94b3e","67949641171f97c04e14fb34","679c2bb6f6e1ff6ad253d59f","","2150","<img id='swapped' src='G_7.jpg' height='90'> <img id='swapped' src='G_9.jpg' height='90'> <img src='G_3.jpg' height='90'> <img src='G_1.jpg' height='90'> <img src='G_5.jpg' height='90'>","0","Learning example 0",""
"","","","","","html-button-response","45","105742","0.0-28.1-0.1-0.1","72","1","2025-01-31 01:47:40","af8d355d56820e421d246a7037deb6e6","67.171.141.227","Mozilla/5.0 (X11; Linux x86_64) AppleWebKit/537.36 (KHTML, like Gecko) Chrome/132.0.0.0 Safari/537.36","WebKit","Chrome","132.0.0.0","Linux","","https://app.prolific.com/","en-US,en;q=0.6","6427402d1463cb72eca94b3e","67949641171f97c04e14fb34","679c2bb6f6e1ff6ad253d59f","","606","<img id='swapped' src='G_7.jpg' height='90'> <img id='swapped' src='G_9.jpg' height='90'> <img src='G_3.jpg' height='90'> <img src='G_1.jpg' height='90'> <img src='G_5.jpg' height='90'>","1","Learning example 0",""
"","","","","","html-button-response","46","105944","0.0-29.0","72","1","2025-01-31 01:47:40","af8d355d56820e421d246a7037deb6e6","67.171.141.227","Mozilla/5.0 (X11; Linux x86_64) AppleWebKit/537.36 (KHTML, like Gecko) Chrome/132.0.0.0 Safari/537.36","WebKit","Chrome","132.0.0.0","Linux","","https://app.prolific.com/","en-US,en;q=0.6","6427402d1463cb72eca94b3e","67949641171f97c04e14fb34","679c2bb6f6e1ff6ad253d59f","","null","<img  src='G_7.jpg' height='90'> <img  src='G_9.jpg' height='90'> <img src='G_3.jpg' height='90'> <img src='G_1.jpg' height='90'> <img src='G_5.jpg' height='90'>","null","Learning example 0",""
"","","","","","html-button-response","47","106345","0.0-30.0","72","1","2025-01-31 01:47:40","af8d355d56820e421d246a7037deb6e6","67.171.141.227","Mozilla/5.0 (X11; Linux x86_64) AppleWebKit/537.36 (KHTML, like Gecko) Chrome/132.0.0.0 Safari/537.36","WebKit","Chrome","132.0.0.0","Linux","","https://app.prolific.com/","en-US,en;q=0.6","6427402d1463cb72eca94b3e","67949641171f97c04e14fb34","679c2bb6f6e1ff6ad253d59f","","null","<img  src='G_7.jpg' height='90'> <img id='selected'  src='G_9.jpg' height='90'> <img src='G_3.jpg' height='90'> <img src='G_1.jpg' height='90'> <img src='G_5.jpg' height='90'>","null","Learning example 0",""
"","","","","","html-button-response","48","106647","0.0-31.0","72","1","2025-01-31 01:47:40","af8d355d56820e421d246a7037deb6e6","67.171.141.227","Mozilla/5.0 (X11; Linux x86_64) AppleWebKit/537.36 (KHTML, like Gecko) Chrome/132.0.0.0 Safari/537.36","WebKit","Chrome","132.0.0.0","Linux","","https://app.prolific.com/","en-US,en;q=0.6","6427402d1463cb72eca94b3e","67949641171f97c04e14fb34","679c2bb6f6e1ff6ad253d59f","","null","<img  src='G_7.jpg' height='90'> <img id='selected'  src='G_9.jpg' height='90'> <img id='selected' src='G_3.jpg' height='90'> <img src='G_1.jpg' height='90'> <img src='G_5.jpg' height='90'>","null","Learning example 0",""
"","","","","","html-button-response","49","106949","0.0-32.0","72","1","2025-01-31 01:47:40","af8d355d56820e421d246a7037deb6e6","67.171.141.227","Mozilla/5.0 (X11; Linux x86_64) AppleWebKit/537.36 (KHTML, like Gecko) Chrome/132.0.0.0 Safari/537.36","WebKit","Chrome","132.0.0.0","Linux","","https://app.prolific.com/","en-US,en;q=0.6","6427402d1463cb72eca94b3e","67949641171f97c04e14fb34","679c2bb6f6e1ff6ad253d59f","","null","<img  src='G_7.jpg' height='90'> <img id='selected'  src='G_9.jpg' height='90'> <img id='selected' src='G_3.jpg' height='90'> <img src='G_1.jpg' height='90'> <img src='G_5.jpg' height='90'>","null","Learning example 0",""
"","","","","","html-button-response","50","109160","0.0-33.0-0.0-0.0","72","1","2025-01-31 01:47:40","af8d355d56820e421d246a7037deb6e6","67.171.141.227","Mozilla/5.0 (X11; Linux x86_64) AppleWebKit/537.36 (KHTML, like Gecko) Chrome/132.0.0.0 Safari/537.36","WebKit","Chrome","132.0.0.0","Linux","","https://app.prolific.com/","en-US,en;q=0.6","6427402d1463cb72eca94b3e","67949641171f97c04e14fb34","679c2bb6f6e1ff6ad253d59f","","2209","<img  src='G_7.jpg' height='90'> <img id='selected'  src='G_9.jpg' height='90'> <img id='selected' src='G_3.jpg' height='90'> <img src='G_1.jpg' height='90'> <img src='G_5.jpg' height='90'>","1","Learning example 0",""
"","","","","","html-button-response","51","110051","0.0-33.1-0.1-0.1","72","1","2025-01-31 01:47:40","af8d355d56820e421d246a7037deb6e6","67.171.141.227","Mozilla/5.0 (X11; Linux x86_64) AppleWebKit/537.36 (KHTML, like Gecko) Chrome/132.0.0.0 Safari/537.36","WebKit","Chrome","132.0.0.0","Linux","","https://app.prolific.com/","en-US,en;q=0.6","6427402d1463cb72eca94b3e","67949641171f97c04e14fb34","679c2bb6f6e1ff6ad253d59f","","889","<img  src='G_7.jpg' height='90'> <img id='selected'  src='G_9.jpg' height='90'> <img id='selected' src='G_3.jpg' height='90'> <img src='G_1.jpg' height='90'> <img src='G_5.jpg' height='90'>","2","Learning example 0",""
"","","","","","html-button-response","52","110252","0.0-34.0","72","1","2025-01-31 01:47:40","af8d355d56820e421d246a7037deb6e6","67.171.141.227","Mozilla/5.0 (X11; Linux x86_64) AppleWebKit/537.36 (KHTML, like Gecko) Chrome/132.0.0.0 Safari/537.36","WebKit","Chrome","132.0.0.0","Linux","","https://app.prolific.com/","en-US,en;q=0.6","6427402d1463cb72eca94b3e","67949641171f97c04e14fb34","679c2bb6f6e1ff6ad253d59f","","null","<img  src='G_7.jpg' height='90'> <img   src='G_9.jpg' height='90'> <img  src='G_3.jpg' height='90'> <img src='G_1.jpg' height='90'> <img src='G_5.jpg' height='90'>","null","Learning example 0",""
"","","","","","html-button-response","53","110654","0.0-35.0","72","1","2025-01-31 01:47:40","af8d355d56820e421d246a7037deb6e6","67.171.141.227","Mozilla/5.0 (X11; Linux x86_64) AppleWebKit/537.36 (KHTML, like Gecko) Chrome/132.0.0.0 Safari/537.36","WebKit","Chrome","132.0.0.0","Linux","","https://app.prolific.com/","en-US,en;q=0.6","6427402d1463cb72eca94b3e","67949641171f97c04e14fb34","679c2bb6f6e1ff6ad253d59f","","null","<img  src='G_7.jpg' height='90'> <img   src='G_9.jpg' height='90'> <img id='selected'  src='G_3.jpg' height='90'> <img src='G_1.jpg' height='90'> <img src='G_5.jpg' height='90'>","null","Learning example 0",""
"","","","","","html-button-response","54","110956","0.0-36.0","72","1","2025-01-31 01:47:40","af8d355d56820e421d246a7037deb6e6","67.171.141.227","Mozilla/5.0 (X11; Linux x86_64) AppleWebKit/537.36 (KHTML, like Gecko) Chrome/132.0.0.0 Safari/537.36","WebKit","Chrome","132.0.0.0","Linux","","https://app.prolific.com/","en-US,en;q=0.6","6427402d1463cb72eca94b3e","67949641171f97c04e14fb34","679c2bb6f6e1ff6ad253d59f","","null","<img  src='G_7.jpg' height='90'> <img   src='G_9.jpg' height='90'> <img id='selected'  src='G_3.jpg' height='90'> <img id='selected' src='G_1.jpg' height='90'> <img src='G_5.jpg' height='90'>","null","Learning example 0",""
"","","","","","html-button-response","55","111257","0.0-37.0","72","1","2025-01-31 01:47:40","af8d355d56820e421d246a7037deb6e6","67.171.141.227","Mozilla/5.0 (X11; Linux x86_64) AppleWebKit/537.36 (KHTML, like Gecko) Chrome/132.0.0.0 Safari/537.36","WebKit","Chrome","132.0.0.0","Linux","","https://app.prolific.com/","en-US,en;q=0.6","6427402d1463cb72eca94b3e","67949641171f97c04e14fb34","679c2bb6f6e1ff6ad253d59f","","null","<img  src='G_7.jpg' height='90'> <img   src='G_9.jpg' height='90'> <img id='selected'  src='G_3.jpg' height='90'> <img id='selected' src='G_1.jpg' height='90'> <img src='G_5.jpg' height='90'>","null","Learning example 0",""
"","","","","","html-button-response","56","133851","0.0-38.0-0.0-0.0","72","1","2025-01-31 01:47:40","af8d355d56820e421d246a7037deb6e6","67.171.141.227","Mozilla/5.0 (X11; Linux x86_64) AppleWebKit/537.36 (KHTML, like Gecko) Chrome/132.0.0.0 Safari/537.36","WebKit","Chrome","132.0.0.0","Linux","","https://app.prolific.com/","en-US,en;q=0.6","6427402d1463cb72eca94b3e","67949641171f97c04e14fb34","679c2bb6f6e1ff6ad253d59f","","22592","<img  src='G_7.jpg' height='90'> <img   src='G_9.jpg' height='90'> <img id='selected'  src='G_3.jpg' height='90'> <img id='selected' src='G_1.jpg' height='90'> <img src='G_5.jpg' height='90'>","2","Learning example 0",""
"","","","","","html-button-response","57","134859","0.0-38.1-0.1-0.1","72","1","2025-01-31 01:47:40","af8d355d56820e421d246a7037deb6e6","67.171.141.227","Mozilla/5.0 (X11; Linux x86_64) AppleWebKit/537.36 (KHTML, like Gecko) Chrome/132.0.0.0 Safari/537.36","WebKit","Chrome","132.0.0.0","Linux","","https://app.prolific.com/","en-US,en;q=0.6","6427402d1463cb72eca94b3e","67949641171f97c04e14fb34","679c2bb6f6e1ff6ad253d59f","","1007","<img  src='G_7.jpg' height='90'> <img   src='G_9.jpg' height='90'> <img id='selected'  src='G_3.jpg' height='90'> <img id='selected' src='G_1.jpg' height='90'> <img src='G_5.jpg' height='90'>","3","Learning example 0",""
"","","","","","html-button-response","58","135061","0.0-39.0","72","1","2025-01-31 01:47:40","af8d355d56820e421d246a7037deb6e6","67.171.141.227","Mozilla/5.0 (X11; Linux x86_64) AppleWebKit/537.36 (KHTML, like Gecko) Chrome/132.0.0.0 Safari/537.36","WebKit","Chrome","132.0.0.0","Linux","","https://app.prolific.com/","en-US,en;q=0.6","6427402d1463cb72eca94b3e","67949641171f97c04e14fb34","679c2bb6f6e1ff6ad253d59f","","null","<img  src='G_7.jpg' height='90'> <img   src='G_9.jpg' height='90'> <img   src='G_3.jpg' height='90'> <img  src='G_1.jpg' height='90'> <img src='G_5.jpg' height='90'>","null","Learning example 0",""
"","","","","","html-button-response","59","135463","0.0-40.0","72","1","2025-01-31 01:47:40","af8d355d56820e421d246a7037deb6e6","67.171.141.227","Mozilla/5.0 (X11; Linux x86_64) AppleWebKit/537.36 (KHTML, like Gecko) Chrome/132.0.0.0 Safari/537.36","WebKit","Chrome","132.0.0.0","Linux","","https://app.prolific.com/","en-US,en;q=0.6","6427402d1463cb72eca94b3e","67949641171f97c04e14fb34","679c2bb6f6e1ff6ad253d59f","","null","<img  src='G_7.jpg' height='90'> <img   src='G_9.jpg' height='90'> <img   src='G_3.jpg' height='90'> <img id='selected'  src='G_1.jpg' height='90'> <img src='G_5.jpg' height='90'>","null","Learning example 0",""
"","","","","","html-button-response","60","135765","0.0-41.0","72","1","2025-01-31 01:47:40","af8d355d56820e421d246a7037deb6e6","67.171.141.227","Mozilla/5.0 (X11; Linux x86_64) AppleWebKit/537.36 (KHTML, like Gecko) Chrome/132.0.0.0 Safari/537.36","WebKit","Chrome","132.0.0.0","Linux","","https://app.prolific.com/","en-US,en;q=0.6","6427402d1463cb72eca94b3e","67949641171f97c04e14fb34","679c2bb6f6e1ff6ad253d59f","","null","<img  src='G_7.jpg' height='90'> <img   src='G_9.jpg' height='90'> <img   src='G_3.jpg' height='90'> <img id='selected'  src='G_1.jpg' height='90'> <img id='selected' src='G_5.jpg' height='90'>","null","Learning example 0",""
"","","","","","html-button-response","61","136025","0.0-42.0","72","1","2025-01-31 01:47:40","af8d355d56820e421d246a7037deb6e6","67.171.141.227","Mozilla/5.0 (X11; Linux x86_64) AppleWebKit/537.36 (KHTML, like Gecko) Chrome/132.0.0.0 Safari/537.36","WebKit","Chrome","132.0.0.0","Linux","","https://app.prolific.com/","en-US,en;q=0.6","6427402d1463cb72eca94b3e","67949641171f97c04e14fb34","679c2bb6f6e1ff6ad253d59f","","259","<img  src='G_7.jpg' height='90'> <img   src='G_9.jpg' height='90'> <img   src='G_3.jpg' height='90'> <img id='selected'  src='G_1.jpg' height='90'> <img id='selected' src='G_5.jpg' height='90'>","3","Learning example 0",""
"","","","","","html-button-response","62","136711","0.0-43.0-0.0-0.0","72","1","2025-01-31 01:47:40","af8d355d56820e421d246a7037deb6e6","67.171.141.227","Mozilla/5.0 (X11; Linux x86_64) AppleWebKit/537.36 (KHTML, like Gecko) Chrome/132.0.0.0 Safari/537.36","WebKit","Chrome","132.0.0.0","Linux","","https://app.prolific.com/","en-US,en;q=0.6","6427402d1463cb72eca94b3e","67949641171f97c04e14fb34","679c2bb6f6e1ff6ad253d59f","","684","<img  src='G_7.jpg' height='90'> <img   src='G_9.jpg' height='90'> <img   src='G_3.jpg' height='90'> <img id='selected'  src='G_1.jpg' height='90'> <img id='selected' src='G_5.jpg' height='90'>","3","Learning example 0",""
"","","","","","html-button-response","63","137763","0.0-43.1-0.1-0.1","72","1","2025-01-31 01:47:40","af8d355d56820e421d246a7037deb6e6","67.171.141.227","Mozilla/5.0 (X11; Linux x86_64) AppleWebKit/537.36 (KHTML, like Gecko) Chrome/132.0.0.0 Safari/537.36","WebKit","Chrome","132.0.0.0","Linux","","https://app.prolific.com/","en-US,en;q=0.6","6427402d1463cb72eca94b3e","67949641171f97c04e14fb34","679c2bb6f6e1ff6ad253d59f","","1050","<img  src='G_7.jpg' height='90'> <img   src='G_9.jpg' height='90'> <img   src='G_3.jpg' height='90'> <img id='selected'  src='G_1.jpg' height='90'> <img id='selected' src='G_5.jpg' height='90'>","4","Learning example 0",""
"","","","","","html-button-response","64","137965","0.0-44.0","72","1","2025-01-31 01:47:40","af8d355d56820e421d246a7037deb6e6","67.171.141.227","Mozilla/5.0 (X11; Linux x86_64) AppleWebKit/537.36 (KHTML, like Gecko) Chrome/132.0.0.0 Safari/537.36","WebKit","Chrome","132.0.0.0","Linux","","https://app.prolific.com/","en-US,en;q=0.6","6427402d1463cb72eca94b3e","67949641171f97c04e14fb34","679c2bb6f6e1ff6ad253d59f","","null","<img  src='G_7.jpg' height='90'> <img   src='G_9.jpg' height='90'> <img   src='G_3.jpg' height='90'> <img   src='G_1.jpg' height='90'> <img  src='G_5.jpg' height='90'>","null","Learning example 0",""
"","","","","","html-keyboard-response","65","139638","0.0-45.0","72","1","2025-01-31 01:47:40","af8d355d56820e421d246a7037deb6e6","67.171.141.227","Mozilla/5.0 (X11; Linux x86_64) AppleWebKit/537.36 (KHTML, like Gecko) Chrome/132.0.0.0 Safari/537.36","WebKit","Chrome","132.0.0.0","Linux","","https://app.prolific.com/","en-US,en;q=0.6","6427402d1463cb72eca94b3e","67949641171f97c04e14fb34","679c2bb6f6e1ff6ad253d59f","","1672","[""Final order was 1,2,3,4,5. The initial order was 2,1,3,4,5.<br>It took 1 swaps to sort it correctly with Omgne Sort. <br><br>Press Enter to continue.""]","alt","",""
"","","","","","html-keyboard-response","66","146563","0.0-46.0","72","1","2025-01-31 01:47:40","af8d355d56820e421d246a7037deb6e6","67.171.141.227","Mozilla/5.0 (X11; Linux x86_64) AppleWebKit/537.36 (KHTML, like Gecko) Chrome/132.0.0.0 Safari/537.36","WebKit","Chrome","132.0.0.0","Linux","","https://app.prolific.com/","en-US,en;q=0.6","6427402d1463cb72eca94b3e","67949641171f97c04e14fb34","679c2bb6f6e1ff6ad253d59f","","6923","[""Example 2<br><br>You will watch Omnge Sort in action. Try to identify any patterns in the comparisons made by this method. <br><br>Press Enter to continue.""]","enter","",""
"","","","","","html-keyboard-response","67","147064","0.0-47.0","72","1","2025-01-31 01:47:40","af8d355d56820e421d246a7037deb6e6","67.171.141.227","Mozilla/5.0 (X11; Linux x86_64) AppleWebKit/537.36 (KHTML, like Gecko) Chrome/132.0.0.0 Safari/537.36","WebKit","Chrome","132.0.0.0","Linux","","https://app.prolific.com/","en-US,en;q=0.6","6427402d1463cb72eca94b3e","67949641171f97c04e14fb34","679c2bb6f6e1ff6ad253d59f","","null","<img id='selected' src='G_4.jpg' height='90'> <img src='G_8.jpg' height='90'> <img src='G_7.jpg' height='90'> <img src='G_1.jpg' height='90'> <img src='G_2.jpg' height='90'> <img src='G_3.jpg' height='90'> <img src='G_5.jpg' height='90'> <img src='G_6.jpg' height='90'>","null","Animation1",""
"","","","","","html-keyboard-response","68","147566","0.0-48.0","72","1","2025-01-31 01:47:40","af8d355d56820e421d246a7037deb6e6","67.171.141.227","Mozilla/5.0 (X11; Linux x86_64) AppleWebKit/537.36 (KHTML, like Gecko) Chrome/132.0.0.0 Safari/537.36","WebKit","Chrome","132.0.0.0","Linux","","https://app.prolific.com/","en-US,en;q=0.6","6427402d1463cb72eca94b3e","67949641171f97c04e14fb34","679c2bb6f6e1ff6ad253d59f","","null","<img id='selected' src='G_4.jpg' height='90'> <img id='selected' src='G_8.jpg' height='90'> <img src='G_7.jpg' height='90'> <img src='G_1.jpg' height='90'> <img src='G_2.jpg' height='90'> <img src='G_3.jpg' height='90'> <img src='G_5.jpg' height='90'> <img src='G_6.jpg' height='90'>","null","Animation1",""
"","","","","","html-keyboard-response","69","148068","0.0-49.0","72","1","2025-01-31 01:47:40","af8d355d56820e421d246a7037deb6e6","67.171.141.227","Mozilla/5.0 (X11; Linux x86_64) AppleWebKit/537.36 (KHTML, like Gecko) Chrome/132.0.0.0 Safari/537.36","WebKit","Chrome","132.0.0.0","Linux","","https://app.prolific.com/","en-US,en;q=0.6","6427402d1463cb72eca94b3e","67949641171f97c04e14fb34","679c2bb6f6e1ff6ad253d59f","","null","<img id='selected' src='G_4.jpg' height='90'> <img id='selected' src='G_8.jpg' height='90'> <img src='G_7.jpg' height='90'> <img src='G_1.jpg' height='90'> <img src='G_2.jpg' height='90'> <img src='G_3.jpg' height='90'> <img src='G_5.jpg' height='90'> <img src='G_6.jpg' height='90'>","null","Animation1",""
"","","","","","html-keyboard-response","70","148370","0.0-50.0","72","1","2025-01-31 01:47:40","af8d355d56820e421d246a7037deb6e6","67.171.141.227","Mozilla/5.0 (X11; Linux x86_64) AppleWebKit/537.36 (KHTML, like Gecko) Chrome/132.0.0.0 Safari/537.36","WebKit","Chrome","132.0.0.0","Linux","","https://app.prolific.com/","en-US,en;q=0.6","6427402d1463cb72eca94b3e","67949641171f97c04e14fb34","679c2bb6f6e1ff6ad253d59f","","null","<img  src='G_4.jpg' height='90'> <img  src='G_8.jpg' height='90'> <img src='G_7.jpg' height='90'> <img src='G_1.jpg' height='90'> <img src='G_2.jpg' height='90'> <img src='G_3.jpg' height='90'> <img src='G_5.jpg' height='90'> <img src='G_6.jpg' height='90'>","null","Animation1",""
"","","","","","html-keyboard-response","71","148872","0.0-51.0","72","1","2025-01-31 01:47:40","af8d355d56820e421d246a7037deb6e6","67.171.141.227","Mozilla/5.0 (X11; Linux x86_64) AppleWebKit/537.36 (KHTML, like Gecko) Chrome/132.0.0.0 Safari/537.36","WebKit","Chrome","132.0.0.0","Linux","","https://app.prolific.com/","en-US,en;q=0.6","6427402d1463cb72eca94b3e","67949641171f97c04e14fb34","679c2bb6f6e1ff6ad253d59f","","null","<img  src='G_4.jpg' height='90'> <img id='selected'  src='G_8.jpg' height='90'> <img src='G_7.jpg' height='90'> <img src='G_1.jpg' height='90'> <img src='G_2.jpg' height='90'> <img src='G_3.jpg' height='90'> <img src='G_5.jpg' height='90'> <img src='G_6.jpg' height='90'>","null","Animation1",""
"","","","","","html-keyboard-response","72","149374","0.0-52.0","72","1","2025-01-31 01:47:40","af8d355d56820e421d246a7037deb6e6","67.171.141.227","Mozilla/5.0 (X11; Linux x86_64) AppleWebKit/537.36 (KHTML, like Gecko) Chrome/132.0.0.0 Safari/537.36","WebKit","Chrome","132.0.0.0","Linux","","https://app.prolific.com/","en-US,en;q=0.6","6427402d1463cb72eca94b3e","67949641171f97c04e14fb34","679c2bb6f6e1ff6ad253d59f","","null","<img  src='G_4.jpg' height='90'> <img id='selected'  src='G_8.jpg' height='90'> <img id='selected' src='G_7.jpg' height='90'> <img src='G_1.jpg' height='90'> <img src='G_2.jpg' height='90'> <img src='G_3.jpg' height='90'> <img src='G_5.jpg' height='90'> <img src='G_6.jpg' height='90'>","null","Animation1",""
"","","","","","html-keyboard-response","73","149875","0.0-53.0","72","1","2025-01-31 01:47:40","af8d355d56820e421d246a7037deb6e6","67.171.141.227","Mozilla/5.0 (X11; Linux x86_64) AppleWebKit/537.36 (KHTML, like Gecko) Chrome/132.0.0.0 Safari/537.36","WebKit","Chrome","132.0.0.0","Linux","","https://app.prolific.com/","en-US,en;q=0.6","6427402d1463cb72eca94b3e","67949641171f97c04e14fb34","679c2bb6f6e1ff6ad253d59f","","null","<img  src='G_4.jpg' height='90'> <img id='swapped' src='G_7.jpg' height='90'> <img id='swapped'  src='G_8.jpg' height='90'> <img src='G_1.jpg' height='90'> <img src='G_2.jpg' height='90'> <img src='G_3.jpg' height='90'> <img src='G_5.jpg' height='90'> <img src='G_6.jpg' height='90'>","null","Animation1",""
"","","","","","html-keyboard-response","74","150177","0.0-54.0","72","1","2025-01-31 01:47:40","af8d355d56820e421d246a7037deb6e6","67.171.141.227","Mozilla/5.0 (X11; Linux x86_64) AppleWebKit/537.36 (KHTML, like Gecko) Chrome/132.0.0.0 Safari/537.36","WebKit","Chrome","132.0.0.0","Linux","","https://app.prolific.com/","en-US,en;q=0.6","6427402d1463cb72eca94b3e","67949641171f97c04e14fb34","679c2bb6f6e1ff6ad253d59f","","null","<img  src='G_4.jpg' height='90'> <img  src='G_7.jpg' height='90'> <img   src='G_8.jpg' height='90'> <img src='G_1.jpg' height='90'> <img src='G_2.jpg' height='90'> <img src='G_3.jpg' height='90'> <img src='G_5.jpg' height='90'> <img src='G_6.jpg' height='90'>","null","Animation1",""
"","","","","","html-keyboard-response","75","150679","0.0-55.0","72","1","2025-01-31 01:47:40","af8d355d56820e421d246a7037deb6e6","67.171.141.227","Mozilla/5.0 (X11; Linux x86_64) AppleWebKit/537.36 (KHTML, like Gecko) Chrome/132.0.0.0 Safari/537.36","WebKit","Chrome","132.0.0.0","Linux","","https://app.prolific.com/","en-US,en;q=0.6","6427402d1463cb72eca94b3e","67949641171f97c04e14fb34","679c2bb6f6e1ff6ad253d59f","","null","<img id='selected'  src='G_4.jpg' height='90'> <img  src='G_7.jpg' height='90'> <img   src='G_8.jpg' height='90'> <img src='G_1.jpg' height='90'> <img src='G_2.jpg' height='90'> <img src='G_3.jpg' height='90'> <img src='G_5.jpg' height='90'> <img src='G_6.jpg' height='90'>","null","Animation1",""
"","","","","","html-keyboard-response","76","151181","0.0-56.0","72","1","2025-01-31 01:47:40","af8d355d56820e421d246a7037deb6e6","67.171.141.227","Mozilla/5.0 (X11; Linux x86_64) AppleWebKit/537.36 (KHTML, like Gecko) Chrome/132.0.0.0 Safari/537.36","WebKit","Chrome","132.0.0.0","Linux","","https://app.prolific.com/","en-US,en;q=0.6","6427402d1463cb72eca94b3e","67949641171f97c04e14fb34","679c2bb6f6e1ff6ad253d59f","","null","<img id='selected'  src='G_4.jpg' height='90'> <img id='selected'  src='G_7.jpg' height='90'> <img   src='G_8.jpg' height='90'> <img src='G_1.jpg' height='90'> <img src='G_2.jpg' height='90'> <img src='G_3.jpg' height='90'> <img src='G_5.jpg' height='90'> <img src='G_6.jpg' height='90'>","null","Animation1",""
"","","","","","html-keyboard-response","77","151682","0.0-57.0","72","1","2025-01-31 01:47:40","af8d355d56820e421d246a7037deb6e6","67.171.141.227","Mozilla/5.0 (X11; Linux x86_64) AppleWebKit/537.36 (KHTML, like Gecko) Chrome/132.0.0.0 Safari/537.36","WebKit","Chrome","132.0.0.0","Linux","","https://app.prolific.com/","en-US,en;q=0.6","6427402d1463cb72eca94b3e","67949641171f97c04e14fb34","679c2bb6f6e1ff6ad253d59f","","null","<img id='swapped'  src='G_7.jpg' height='90'> <img id='swapped'  src='G_4.jpg' height='90'> <img   src='G_8.jpg' height='90'> <img src='G_1.jpg' height='90'> <img src='G_2.jpg' height='90'> <img src='G_3.jpg' height='90'> <img src='G_5.jpg' height='90'> <img src='G_6.jpg' height='90'>","null","Animation1",""
"","","","","","html-keyboard-response","78","151984","0.0-58.0","72","1","2025-01-31 01:47:40","af8d355d56820e421d246a7037deb6e6","67.171.141.227","Mozilla/5.0 (X11; Linux x86_64) AppleWebKit/537.36 (KHTML, like Gecko) Chrome/132.0.0.0 Safari/537.36","WebKit","Chrome","132.0.0.0","Linux","","https://app.prolific.com/","en-US,en;q=0.6","6427402d1463cb72eca94b3e","67949641171f97c04e14fb34","679c2bb6f6e1ff6ad253d59f","","null","<img   src='G_7.jpg' height='90'> <img   src='G_4.jpg' height='90'> <img   src='G_8.jpg' height='90'> <img src='G_1.jpg' height='90'> <img src='G_2.jpg' height='90'> <img src='G_3.jpg' height='90'> <img src='G_5.jpg' height='90'> <img src='G_6.jpg' height='90'>","null","Animation1",""
"","","","","","html-keyboard-response","79","152486","0.0-59.0","72","1","2025-01-31 01:47:40","af8d355d56820e421d246a7037deb6e6","67.171.141.227","Mozilla/5.0 (X11; Linux x86_64) AppleWebKit/537.36 (KHTML, like Gecko) Chrome/132.0.0.0 Safari/537.36","WebKit","Chrome","132.0.0.0","Linux","","https://app.prolific.com/","en-US,en;q=0.6","6427402d1463cb72eca94b3e","67949641171f97c04e14fb34","679c2bb6f6e1ff6ad253d59f","","null","<img   src='G_7.jpg' height='90'> <img   src='G_4.jpg' height='90'> <img id='selected'   src='G_8.jpg' height='90'> <img src='G_1.jpg' height='90'> <img src='G_2.jpg' height='90'> <img src='G_3.jpg' height='90'> <img src='G_5.jpg' height='90'> <img src='G_6.jpg' height='90'>","null","Animation1",""
"","","","","","html-keyboard-response","80","152988","0.0-60.0","72","1","2025-01-31 01:47:40","af8d355d56820e421d246a7037deb6e6","67.171.141.227","Mozilla/5.0 (X11; Linux x86_64) AppleWebKit/537.36 (KHTML, like Gecko) Chrome/132.0.0.0 Safari/537.36","WebKit","Chrome","132.0.0.0","Linux","","https://app.prolific.com/","en-US,en;q=0.6","6427402d1463cb72eca94b3e","67949641171f97c04e14fb34","679c2bb6f6e1ff6ad253d59f","","null","<img   src='G_7.jpg' height='90'> <img   src='G_4.jpg' height='90'> <img id='selected'   src='G_8.jpg' height='90'> <img id='selected' src='G_1.jpg' height='90'> <img src='G_2.jpg' height='90'> <img src='G_3.jpg' height='90'> <img src='G_5.jpg' height='90'> <img src='G_6.jpg' height='90'>","null","Animation1",""
"","","","","","html-keyboard-response","81","153490","0.0-61.0","72","1","2025-01-31 01:47:40","af8d355d56820e421d246a7037deb6e6","67.171.141.227","Mozilla/5.0 (X11; Linux x86_64) AppleWebKit/537.36 (KHTML, like Gecko) Chrome/132.0.0.0 Safari/537.36","WebKit","Chrome","132.0.0.0","Linux","","https://app.prolific.com/","en-US,en;q=0.6","6427402d1463cb72eca94b3e","67949641171f97c04e14fb34","679c2bb6f6e1ff6ad253d59f","","null","<img   src='G_7.jpg' height='90'> <img   src='G_4.jpg' height='90'> <img id='swapped' src='G_1.jpg' height='90'> <img id='swapped'   src='G_8.jpg' height='90'> <img src='G_2.jpg' height='90'> <img src='G_3.jpg' height='90'> <img src='G_5.jpg' height='90'> <img src='G_6.jpg' height='90'>","null","Animation1",""
"","","","","","html-keyboard-response","82","153792","0.0-62.0","72","1","2025-01-31 01:47:40","af8d355d56820e421d246a7037deb6e6","67.171.141.227","Mozilla/5.0 (X11; Linux x86_64) AppleWebKit/537.36 (KHTML, like Gecko) Chrome/132.0.0.0 Safari/537.36","WebKit","Chrome","132.0.0.0","Linux","","https://app.prolific.com/","en-US,en;q=0.6","6427402d1463cb72eca94b3e","67949641171f97c04e14fb34","679c2bb6f6e1ff6ad253d59f","","null","<img   src='G_7.jpg' height='90'> <img   src='G_4.jpg' height='90'> <img  src='G_1.jpg' height='90'> <img    src='G_8.jpg' height='90'> <img src='G_2.jpg' height='90'> <img src='G_3.jpg' height='90'> <img src='G_5.jpg' height='90'> <img src='G_6.jpg' height='90'>","null","Animation1",""
"","","","","","html-keyboard-response","83","154295","0.0-63.0","72","1","2025-01-31 01:47:40","af8d355d56820e421d246a7037deb6e6","67.171.141.227","Mozilla/5.0 (X11; Linux x86_64) AppleWebKit/537.36 (KHTML, like Gecko) Chrome/132.0.0.0 Safari/537.36","WebKit","Chrome","132.0.0.0","Linux","","https://app.prolific.com/","en-US,en;q=0.6","6427402d1463cb72eca94b3e","67949641171f97c04e14fb34","679c2bb6f6e1ff6ad253d59f","","null","<img   src='G_7.jpg' height='90'> <img id='selected'   src='G_4.jpg' height='90'> <img  src='G_1.jpg' height='90'> <img    src='G_8.jpg' height='90'> <img src='G_2.jpg' height='90'> <img src='G_3.jpg' height='90'> <img src='G_5.jpg' height='90'> <img src='G_6.jpg' height='90'>","null","Animation1",""
"","","","","","html-keyboard-response","84","154797","0.0-64.0","72","1","2025-01-31 01:47:40","af8d355d56820e421d246a7037deb6e6","67.171.141.227","Mozilla/5.0 (X11; Linux x86_64) AppleWebKit/537.36 (KHTML, like Gecko) Chrome/132.0.0.0 Safari/537.36","WebKit","Chrome","132.0.0.0","Linux","","https://app.prolific.com/","en-US,en;q=0.6","6427402d1463cb72eca94b3e","67949641171f97c04e14fb34","679c2bb6f6e1ff6ad253d59f","","null","<img   src='G_7.jpg' height='90'> <img id='selected'   src='G_4.jpg' height='90'> <img id='selected'  src='G_1.jpg' height='90'> <img    src='G_8.jpg' height='90'> <img src='G_2.jpg' height='90'> <img src='G_3.jpg' height='90'> <img src='G_5.jpg' height='90'> <img src='G_6.jpg' height='90'>","null","Animation1",""
"","","","","","html-keyboard-response","85","155299","0.0-65.0","72","1","2025-01-31 01:47:40","af8d355d56820e421d246a7037deb6e6","67.171.141.227","Mozilla/5.0 (X11; Linux x86_64) AppleWebKit/537.36 (KHTML, like Gecko) Chrome/132.0.0.0 Safari/537.36","WebKit","Chrome","132.0.0.0","Linux","","https://app.prolific.com/","en-US,en;q=0.6","6427402d1463cb72eca94b3e","67949641171f97c04e14fb34","679c2bb6f6e1ff6ad253d59f","","null","<img   src='G_7.jpg' height='90'> <img id='swapped'  src='G_1.jpg' height='90'> <img id='swapped'   src='G_4.jpg' height='90'> <img    src='G_8.jpg' height='90'> <img src='G_2.jpg' height='90'> <img src='G_3.jpg' height='90'> <img src='G_5.jpg' height='90'> <img src='G_6.jpg' height='90'>","null","Animation1",""
"","","","","","html-keyboard-response","86","155600","0.0-66.0","72","1","2025-01-31 01:47:40","af8d355d56820e421d246a7037deb6e6","67.171.141.227","Mozilla/5.0 (X11; Linux x86_64) AppleWebKit/537.36 (KHTML, like Gecko) Chrome/132.0.0.0 Safari/537.36","WebKit","Chrome","132.0.0.0","Linux","","https://app.prolific.com/","en-US,en;q=0.6","6427402d1463cb72eca94b3e","67949641171f97c04e14fb34","679c2bb6f6e1ff6ad253d59f","","null","<img   src='G_7.jpg' height='90'> <img   src='G_1.jpg' height='90'> <img    src='G_4.jpg' height='90'> <img    src='G_8.jpg' height='90'> <img src='G_2.jpg' height='90'> <img src='G_3.jpg' height='90'> <img src='G_5.jpg' height='90'> <img src='G_6.jpg' height='90'>","null","Animation1",""
"","","","","","html-keyboard-response","87","156102","0.0-67.0","72","1","2025-01-31 01:47:40","af8d355d56820e421d246a7037deb6e6","67.171.141.227","Mozilla/5.0 (X11; Linux x86_64) AppleWebKit/537.36 (KHTML, like Gecko) Chrome/132.0.0.0 Safari/537.36","WebKit","Chrome","132.0.0.0","Linux","","https://app.prolific.com/","en-US,en;q=0.6","6427402d1463cb72eca94b3e","67949641171f97c04e14fb34","679c2bb6f6e1ff6ad253d59f","","null","<img id='selected'   src='G_7.jpg' height='90'> <img   src='G_1.jpg' height='90'> <img    src='G_4.jpg' height='90'> <img    src='G_8.jpg' height='90'> <img src='G_2.jpg' height='90'> <img src='G_3.jpg' height='90'> <img src='G_5.jpg' height='90'> <img src='G_6.jpg' height='90'>","null","Animation1",""
"","","","","","html-keyboard-response","88","156605","0.0-68.0","72","1","2025-01-31 01:47:40","af8d355d56820e421d246a7037deb6e6","67.171.141.227","Mozilla/5.0 (X11; Linux x86_64) AppleWebKit/537.36 (KHTML, like Gecko) Chrome/132.0.0.0 Safari/537.36","WebKit","Chrome","132.0.0.0","Linux","","https://app.prolific.com/","en-US,en;q=0.6","6427402d1463cb72eca94b3e","67949641171f97c04e14fb34","679c2bb6f6e1ff6ad253d59f","","null","<img id='selected'   src='G_7.jpg' height='90'> <img id='selected'   src='G_1.jpg' height='90'> <img    src='G_4.jpg' height='90'> <img    src='G_8.jpg' height='90'> <img src='G_2.jpg' height='90'> <img src='G_3.jpg' height='90'> <img src='G_5.jpg' height='90'> <img src='G_6.jpg' height='90'>","null","Animation1",""
"","","","","","html-keyboard-response","89","157107","0.0-69.0","72","1","2025-01-31 01:47:40","af8d355d56820e421d246a7037deb6e6","67.171.141.227","Mozilla/5.0 (X11; Linux x86_64) AppleWebKit/537.36 (KHTML, like Gecko) Chrome/132.0.0.0 Safari/537.36","WebKit","Chrome","132.0.0.0","Linux","","https://app.prolific.com/","en-US,en;q=0.6","6427402d1463cb72eca94b3e","67949641171f97c04e14fb34","679c2bb6f6e1ff6ad253d59f","","null","<img id='swapped'   src='G_1.jpg' height='90'> <img id='swapped'   src='G_7.jpg' height='90'> <img    src='G_4.jpg' height='90'> <img    src='G_8.jpg' height='90'> <img src='G_2.jpg' height='90'> <img src='G_3.jpg' height='90'> <img src='G_5.jpg' height='90'> <img src='G_6.jpg' height='90'>","null","Animation1",""
"","","","","","html-keyboard-response","90","157409","0.0-70.0","72","1","2025-01-31 01:47:40","af8d355d56820e421d246a7037deb6e6","67.171.141.227","Mozilla/5.0 (X11; Linux x86_64) AppleWebKit/537.36 (KHTML, like Gecko) Chrome/132.0.0.0 Safari/537.36","WebKit","Chrome","132.0.0.0","Linux","","https://app.prolific.com/","en-US,en;q=0.6","6427402d1463cb72eca94b3e","67949641171f97c04e14fb34","679c2bb6f6e1ff6ad253d59f","","null","<img    src='G_1.jpg' height='90'> <img    src='G_7.jpg' height='90'> <img    src='G_4.jpg' height='90'> <img    src='G_8.jpg' height='90'> <img src='G_2.jpg' height='90'> <img src='G_3.jpg' height='90'> <img src='G_5.jpg' height='90'> <img src='G_6.jpg' height='90'>","null","Animation1",""
"","","","","","html-keyboard-response","91","157911","0.0-71.0","72","1","2025-01-31 01:47:40","af8d355d56820e421d246a7037deb6e6","67.171.141.227","Mozilla/5.0 (X11; Linux x86_64) AppleWebKit/537.36 (KHTML, like Gecko) Chrome/132.0.0.0 Safari/537.36","WebKit","Chrome","132.0.0.0","Linux","","https://app.prolific.com/","en-US,en;q=0.6","6427402d1463cb72eca94b3e","67949641171f97c04e14fb34","679c2bb6f6e1ff6ad253d59f","","null","<img    src='G_1.jpg' height='90'> <img    src='G_7.jpg' height='90'> <img    src='G_4.jpg' height='90'> <img id='selected'    src='G_8.jpg' height='90'> <img src='G_2.jpg' height='90'> <img src='G_3.jpg' height='90'> <img src='G_5.jpg' height='90'> <img src='G_6.jpg' height='90'>","null","Animation1",""
"","","","","","html-keyboard-response","92","158413","0.0-72.0","72","1","2025-01-31 01:47:40","af8d355d56820e421d246a7037deb6e6","67.171.141.227","Mozilla/5.0 (X11; Linux x86_64) AppleWebKit/537.36 (KHTML, like Gecko) Chrome/132.0.0.0 Safari/537.36","WebKit","Chrome","132.0.0.0","Linux","","https://app.prolific.com/","en-US,en;q=0.6","6427402d1463cb72eca94b3e","67949641171f97c04e14fb34","679c2bb6f6e1ff6ad253d59f","","null","<img    src='G_1.jpg' height='90'> <img    src='G_7.jpg' height='90'> <img    src='G_4.jpg' height='90'> <img id='selected'    src='G_8.jpg' height='90'> <img id='selected' src='G_2.jpg' height='90'> <img src='G_3.jpg' height='90'> <img src='G_5.jpg' height='90'> <img src='G_6.jpg' height='90'>","null","Animation1",""
"","","","","","html-keyboard-response","93","158914","0.0-73.0","72","1","2025-01-31 01:47:40","af8d355d56820e421d246a7037deb6e6","67.171.141.227","Mozilla/5.0 (X11; Linux x86_64) AppleWebKit/537.36 (KHTML, like Gecko) Chrome/132.0.0.0 Safari/537.36","WebKit","Chrome","132.0.0.0","Linux","","https://app.prolific.com/","en-US,en;q=0.6","6427402d1463cb72eca94b3e","67949641171f97c04e14fb34","679c2bb6f6e1ff6ad253d59f","","null","<img    src='G_1.jpg' height='90'> <img    src='G_7.jpg' height='90'> <img    src='G_4.jpg' height='90'> <img id='swapped' src='G_2.jpg' height='90'> <img id='swapped'    src='G_8.jpg' height='90'> <img src='G_3.jpg' height='90'> <img src='G_5.jpg' height='90'> <img src='G_6.jpg' height='90'>","null","Animation1",""
"","","","","","html-keyboard-response","94","159216","0.0-74.0","72","1","2025-01-31 01:47:40","af8d355d56820e421d246a7037deb6e6","67.171.141.227","Mozilla/5.0 (X11; Linux x86_64) AppleWebKit/537.36 (KHTML, like Gecko) Chrome/132.0.0.0 Safari/537.36","WebKit","Chrome","132.0.0.0","Linux","","https://app.prolific.com/","en-US,en;q=0.6","6427402d1463cb72eca94b3e","67949641171f97c04e14fb34","679c2bb6f6e1ff6ad253d59f","","null","<img    src='G_1.jpg' height='90'> <img    src='G_7.jpg' height='90'> <img    src='G_4.jpg' height='90'> <img  src='G_2.jpg' height='90'> <img     src='G_8.jpg' height='90'> <img src='G_3.jpg' height='90'> <img src='G_5.jpg' height='90'> <img src='G_6.jpg' height='90'>","null","Animation1",""
"","","","","","html-keyboard-response","95","159718","0.0-75.0","72","1","2025-01-31 01:47:40","af8d355d56820e421d246a7037deb6e6","67.171.141.227","Mozilla/5.0 (X11; Linux x86_64) AppleWebKit/537.36 (KHTML, like Gecko) Chrome/132.0.0.0 Safari/537.36","WebKit","Chrome","132.0.0.0","Linux","","https://app.prolific.com/","en-US,en;q=0.6","6427402d1463cb72eca94b3e","67949641171f97c04e14fb34","679c2bb6f6e1ff6ad253d59f","","null","<img    src='G_1.jpg' height='90'> <img    src='G_7.jpg' height='90'> <img id='selected'    src='G_4.jpg' height='90'> <img  src='G_2.jpg' height='90'> <img     src='G_8.jpg' height='90'> <img src='G_3.jpg' height='90'> <img src='G_5.jpg' height='90'> <img src='G_6.jpg' height='90'>","null","Animation1",""
"","","","","","html-keyboard-response","96","160221","0.0-76.0","72","1","2025-01-31 01:47:40","af8d355d56820e421d246a7037deb6e6","67.171.141.227","Mozilla/5.0 (X11; Linux x86_64) AppleWebKit/537.36 (KHTML, like Gecko) Chrome/132.0.0.0 Safari/537.36","WebKit","Chrome","132.0.0.0","Linux","","https://app.prolific.com/","en-US,en;q=0.6","6427402d1463cb72eca94b3e","67949641171f97c04e14fb34","679c2bb6f6e1ff6ad253d59f","","null","<img    src='G_1.jpg' height='90'> <img    src='G_7.jpg' height='90'> <img id='selected'    src='G_4.jpg' height='90'> <img id='selected'  src='G_2.jpg' height='90'> <img     src='G_8.jpg' height='90'> <img src='G_3.jpg' height='90'> <img src='G_5.jpg' height='90'> <img src='G_6.jpg' height='90'>","null","Animation1",""
"","","","","","html-keyboard-response","97","160722","0.0-77.0","72","1","2025-01-31 01:47:40","af8d355d56820e421d246a7037deb6e6","67.171.141.227","Mozilla/5.0 (X11; Linux x86_64) AppleWebKit/537.36 (KHTML, like Gecko) Chrome/132.0.0.0 Safari/537.36","WebKit","Chrome","132.0.0.0","Linux","","https://app.prolific.com/","en-US,en;q=0.6","6427402d1463cb72eca94b3e","67949641171f97c04e14fb34","679c2bb6f6e1ff6ad253d59f","","null","<img    src='G_1.jpg' height='90'> <img    src='G_7.jpg' height='90'> <img id='swapped'  src='G_2.jpg' height='90'> <img id='swapped'    src='G_4.jpg' height='90'> <img     src='G_8.jpg' height='90'> <img src='G_3.jpg' height='90'> <img src='G_5.jpg' height='90'> <img src='G_6.jpg' height='90'>","null","Animation1",""
"","","","","","html-keyboard-response","98","161024","0.0-78.0","72","1","2025-01-31 01:47:40","af8d355d56820e421d246a7037deb6e6","67.171.141.227","Mozilla/5.0 (X11; Linux x86_64) AppleWebKit/537.36 (KHTML, like Gecko) Chrome/132.0.0.0 Safari/537.36","WebKit","Chrome","132.0.0.0","Linux","","https://app.prolific.com/","en-US,en;q=0.6","6427402d1463cb72eca94b3e","67949641171f97c04e14fb34","679c2bb6f6e1ff6ad253d59f","","null","<img    src='G_1.jpg' height='90'> <img    src='G_7.jpg' height='90'> <img   src='G_2.jpg' height='90'> <img     src='G_4.jpg' height='90'> <img     src='G_8.jpg' height='90'> <img src='G_3.jpg' height='90'> <img src='G_5.jpg' height='90'> <img src='G_6.jpg' height='90'>","null","Animation1",""
"","","","","","html-keyboard-response","99","161526","0.0-79.0","72","1","2025-01-31 01:47:40","af8d355d56820e421d246a7037deb6e6","67.171.141.227","Mozilla/5.0 (X11; Linux x86_64) AppleWebKit/537.36 (KHTML, like Gecko) Chrome/132.0.0.0 Safari/537.36","WebKit","Chrome","132.0.0.0","Linux","","https://app.prolific.com/","en-US,en;q=0.6","6427402d1463cb72eca94b3e","67949641171f97c04e14fb34","679c2bb6f6e1ff6ad253d59f","","null","<img    src='G_1.jpg' height='90'> <img id='selected'    src='G_7.jpg' height='90'> <img   src='G_2.jpg' height='90'> <img     src='G_4.jpg' height='90'> <img     src='G_8.jpg' height='90'> <img src='G_3.jpg' height='90'> <img src='G_5.jpg' height='90'> <img src='G_6.jpg' height='90'>","null","Animation1",""
"","","","","","html-keyboard-response","100","162028","0.0-80.0","72","1","2025-01-31 01:47:40","af8d355d56820e421d246a7037deb6e6","67.171.141.227","Mozilla/5.0 (X11; Linux x86_64) AppleWebKit/537.36 (KHTML, like Gecko) Chrome/132.0.0.0 Safari/537.36","WebKit","Chrome","132.0.0.0","Linux","","https://app.prolific.com/","en-US,en;q=0.6","6427402d1463cb72eca94b3e","67949641171f97c04e14fb34","679c2bb6f6e1ff6ad253d59f","","null","<img    src='G_1.jpg' height='90'> <img id='selected'    src='G_7.jpg' height='90'> <img id='selected'   src='G_2.jpg' height='90'> <img     src='G_4.jpg' height='90'> <img     src='G_8.jpg' height='90'> <img src='G_3.jpg' height='90'> <img src='G_5.jpg' height='90'> <img src='G_6.jpg' height='90'>","null","Animation1",""
"","","","","","html-keyboard-response","101","162531","0.0-81.0","72","1","2025-01-31 01:47:40","af8d355d56820e421d246a7037deb6e6","67.171.141.227","Mozilla/5.0 (X11; Linux x86_64) AppleWebKit/537.36 (KHTML, like Gecko) Chrome/132.0.0.0 Safari/537.36","WebKit","Chrome","132.0.0.0","Linux","","https://app.prolific.com/","en-US,en;q=0.6","6427402d1463cb72eca94b3e","67949641171f97c04e14fb34","679c2bb6f6e1ff6ad253d59f","","null","<img    src='G_1.jpg' height='90'> <img id='swapped'   src='G_2.jpg' height='90'> <img id='swapped'    src='G_7.jpg' height='90'> <img     src='G_4.jpg' height='90'> <img     src='G_8.jpg' height='90'> <img src='G_3.jpg' height='90'> <img src='G_5.jpg' height='90'> <img src='G_6.jpg' height='90'>","null","Animation1",""
"","","","","","html-keyboard-response","102","162833","0.0-82.0","72","1","2025-01-31 01:47:40","af8d355d56820e421d246a7037deb6e6","67.171.141.227","Mozilla/5.0 (X11; Linux x86_64) AppleWebKit/537.36 (KHTML, like Gecko) Chrome/132.0.0.0 Safari/537.36","WebKit","Chrome","132.0.0.0","Linux","","https://app.prolific.com/","en-US,en;q=0.6","6427402d1463cb72eca94b3e","67949641171f97c04e14fb34","679c2bb6f6e1ff6ad253d59f","","null","<img    src='G_1.jpg' height='90'> <img    src='G_2.jpg' height='90'> <img     src='G_7.jpg' height='90'> <img     src='G_4.jpg' height='90'> <img     src='G_8.jpg' height='90'> <img src='G_3.jpg' height='90'> <img src='G_5.jpg' height='90'> <img src='G_6.jpg' height='90'>","null","Animation1",""
"","","","","","html-keyboard-response","103","163335","0.0-83.0","72","1","2025-01-31 01:47:40","af8d355d56820e421d246a7037deb6e6","67.171.141.227","Mozilla/5.0 (X11; Linux x86_64) AppleWebKit/537.36 (KHTML, like Gecko) Chrome/132.0.0.0 Safari/537.36","WebKit","Chrome","132.0.0.0","Linux","","https://app.prolific.com/","en-US,en;q=0.6","6427402d1463cb72eca94b3e","67949641171f97c04e14fb34","679c2bb6f6e1ff6ad253d59f","","null","<img id='selected'    src='G_1.jpg' height='90'> <img    src='G_2.jpg' height='90'> <img     src='G_7.jpg' height='90'> <img     src='G_4.jpg' height='90'> <img     src='G_8.jpg' height='90'> <img src='G_3.jpg' height='90'> <img src='G_5.jpg' height='90'> <img src='G_6.jpg' height='90'>","null","Animation1",""
"","","","","","html-keyboard-response","104","163837","0.0-84.0","72","1","2025-01-31 01:47:40","af8d355d56820e421d246a7037deb6e6","67.171.141.227","Mozilla/5.0 (X11; Linux x86_64) AppleWebKit/537.36 (KHTML, like Gecko) Chrome/132.0.0.0 Safari/537.36","WebKit","Chrome","132.0.0.0","Linux","","https://app.prolific.com/","en-US,en;q=0.6","6427402d1463cb72eca94b3e","67949641171f97c04e14fb34","679c2bb6f6e1ff6ad253d59f","","null","<img id='selected'    src='G_1.jpg' height='90'> <img id='selected'    src='G_2.jpg' height='90'> <img     src='G_7.jpg' height='90'> <img     src='G_4.jpg' height='90'> <img     src='G_8.jpg' height='90'> <img src='G_3.jpg' height='90'> <img src='G_5.jpg' height='90'> <img src='G_6.jpg' height='90'>","null","Animation1",""
"","","","","","html-keyboard-response","105","164339","0.0-85.0","72","1","2025-01-31 01:47:40","af8d355d56820e421d246a7037deb6e6","67.171.141.227","Mozilla/5.0 (X11; Linux x86_64) AppleWebKit/537.36 (KHTML, like Gecko) Chrome/132.0.0.0 Safari/537.36","WebKit","Chrome","132.0.0.0","Linux","","https://app.prolific.com/","en-US,en;q=0.6","6427402d1463cb72eca94b3e","67949641171f97c04e14fb34","679c2bb6f6e1ff6ad253d59f","","null","<img id='selected'    src='G_1.jpg' height='90'> <img id='selected'    src='G_2.jpg' height='90'> <img     src='G_7.jpg' height='90'> <img     src='G_4.jpg' height='90'> <img     src='G_8.jpg' height='90'> <img src='G_3.jpg' height='90'> <img src='G_5.jpg' height='90'> <img src='G_6.jpg' height='90'>","null","Animation1",""
"","","","","","html-keyboard-response","106","164641","0.0-86.0","72","1","2025-01-31 01:47:40","af8d355d56820e421d246a7037deb6e6","67.171.141.227","Mozilla/5.0 (X11; Linux x86_64) AppleWebKit/537.36 (KHTML, like Gecko) Chrome/132.0.0.0 Safari/537.36","WebKit","Chrome","132.0.0.0","Linux","","https://app.prolific.com/","en-US,en;q=0.6","6427402d1463cb72eca94b3e","67949641171f97c04e14fb34","679c2bb6f6e1ff6ad253d59f","","null","<img     src='G_1.jpg' height='90'> <img     src='G_2.jpg' height='90'> <img     src='G_7.jpg' height='90'> <img     src='G_4.jpg' height='90'> <img     src='G_8.jpg' height='90'> <img src='G_3.jpg' height='90'> <img src='G_5.jpg' height='90'> <img src='G_6.jpg' height='90'>","null","Animation1",""
"","","","","","html-keyboard-response","107","165143","0.0-87.0","72","1","2025-01-31 01:47:40","af8d355d56820e421d246a7037deb6e6","67.171.141.227","Mozilla/5.0 (X11; Linux x86_64) AppleWebKit/537.36 (KHTML, like Gecko) Chrome/132.0.0.0 Safari/537.36","WebKit","Chrome","132.0.0.0","Linux","","https://app.prolific.com/","en-US,en;q=0.6","6427402d1463cb72eca94b3e","67949641171f97c04e14fb34","679c2bb6f6e1ff6ad253d59f","","null","<img     src='G_1.jpg' height='90'> <img     src='G_2.jpg' height='90'> <img     src='G_7.jpg' height='90'> <img     src='G_4.jpg' height='90'> <img id='selected'     src='G_8.jpg' height='90'> <img src='G_3.jpg' height='90'> <img src='G_5.jpg' height='90'> <img src='G_6.jpg' height='90'>","null","Animation1",""
"","","","","","html-keyboard-response","108","165645","0.0-88.0","72","1","2025-01-31 01:47:40","af8d355d56820e421d246a7037deb6e6","67.171.141.227","Mozilla/5.0 (X11; Linux x86_64) AppleWebKit/537.36 (KHTML, like Gecko) Chrome/132.0.0.0 Safari/537.36","WebKit","Chrome","132.0.0.0","Linux","","https://app.prolific.com/","en-US,en;q=0.6","6427402d1463cb72eca94b3e","67949641171f97c04e14fb34","679c2bb6f6e1ff6ad253d59f","","null","<img     src='G_1.jpg' height='90'> <img     src='G_2.jpg' height='90'> <img     src='G_7.jpg' height='90'> <img     src='G_4.jpg' height='90'> <img id='selected'     src='G_8.jpg' height='90'> <img id='selected' src='G_3.jpg' height='90'> <img src='G_5.jpg' height='90'> <img src='G_6.jpg' height='90'>","null","Animation1",""
"","","","","","html-keyboard-response","109","166148","0.0-89.0","72","1","2025-01-31 01:47:40","af8d355d56820e421d246a7037deb6e6","67.171.141.227","Mozilla/5.0 (X11; Linux x86_64) AppleWebKit/537.36 (KHTML, like Gecko) Chrome/132.0.0.0 Safari/537.36","WebKit","Chrome","132.0.0.0","Linux","","https://app.prolific.com/","en-US,en;q=0.6","6427402d1463cb72eca94b3e","67949641171f97c04e14fb34","679c2bb6f6e1ff6ad253d59f","","null","<img     src='G_1.jpg' height='90'> <img     src='G_2.jpg' height='90'> <img     src='G_7.jpg' height='90'> <img     src='G_4.jpg' height='90'> <img id='swapped' src='G_3.jpg' height='90'> <img id='swapped'     src='G_8.jpg' height='90'> <img src='G_5.jpg' height='90'> <img src='G_6.jpg' height='90'>","null","Animation1",""
"","","","","","html-keyboard-response","110","166449","0.0-90.0","72","1","2025-01-31 01:47:40","af8d355d56820e421d246a7037deb6e6","67.171.141.227","Mozilla/5.0 (X11; Linux x86_64) AppleWebKit/537.36 (KHTML, like Gecko) Chrome/132.0.0.0 Safari/537.36","WebKit","Chrome","132.0.0.0","Linux","","https://app.prolific.com/","en-US,en;q=0.6","6427402d1463cb72eca94b3e","67949641171f97c04e14fb34","679c2bb6f6e1ff6ad253d59f","","null","<img     src='G_1.jpg' height='90'> <img     src='G_2.jpg' height='90'> <img     src='G_7.jpg' height='90'> <img     src='G_4.jpg' height='90'> <img  src='G_3.jpg' height='90'> <img      src='G_8.jpg' height='90'> <img src='G_5.jpg' height='90'> <img src='G_6.jpg' height='90'>","null","Animation1",""
"","","","","","html-keyboard-response","111","166951","0.0-91.0","72","1","2025-01-31 01:47:40","af8d355d56820e421d246a7037deb6e6","67.171.141.227","Mozilla/5.0 (X11; Linux x86_64) AppleWebKit/537.36 (KHTML, like Gecko) Chrome/132.0.0.0 Safari/537.36","WebKit","Chrome","132.0.0.0","Linux","","https://app.prolific.com/","en-US,en;q=0.6","6427402d1463cb72eca94b3e","67949641171f97c04e14fb34","679c2bb6f6e1ff6ad253d59f","","null","<img     src='G_1.jpg' height='90'> <img     src='G_2.jpg' height='90'> <img     src='G_7.jpg' height='90'> <img id='selected'     src='G_4.jpg' height='90'> <img  src='G_3.jpg' height='90'> <img      src='G_8.jpg' height='90'> <img src='G_5.jpg' height='90'> <img src='G_6.jpg' height='90'>","null","Animation1",""
"","","","","","html-keyboard-response","112","167454","0.0-92.0","72","1","2025-01-31 01:47:40","af8d355d56820e421d246a7037deb6e6","67.171.141.227","Mozilla/5.0 (X11; Linux x86_64) AppleWebKit/537.36 (KHTML, like Gecko) Chrome/132.0.0.0 Safari/537.36","WebKit","Chrome","132.0.0.0","Linux","","https://app.prolific.com/","en-US,en;q=0.6","6427402d1463cb72eca94b3e","67949641171f97c04e14fb34","679c2bb6f6e1ff6ad253d59f","","null","<img     src='G_1.jpg' height='90'> <img     src='G_2.jpg' height='90'> <img     src='G_7.jpg' height='90'> <img id='selected'     src='G_4.jpg' height='90'> <img id='selected'  src='G_3.jpg' height='90'> <img      src='G_8.jpg' height='90'> <img src='G_5.jpg' height='90'> <img src='G_6.jpg' height='90'>","null","Animation1",""
"","","","","","html-keyboard-response","113","167956","0.0-93.0","72","1","2025-01-31 01:47:40","af8d355d56820e421d246a7037deb6e6","67.171.141.227","Mozilla/5.0 (X11; Linux x86_64) AppleWebKit/537.36 (KHTML, like Gecko) Chrome/132.0.0.0 Safari/537.36","WebKit","Chrome","132.0.0.0","Linux","","https://app.prolific.com/","en-US,en;q=0.6","6427402d1463cb72eca94b3e","67949641171f97c04e14fb34","679c2bb6f6e1ff6ad253d59f","","null","<img     src='G_1.jpg' height='90'> <img     src='G_2.jpg' height='90'> <img     src='G_7.jpg' height='90'> <img id='selected'     src='G_4.jpg' height='90'> <img id='selected'  src='G_3.jpg' height='90'> <img      src='G_8.jpg' height='90'> <img src='G_5.jpg' height='90'> <img src='G_6.jpg' height='90'>","null","Animation1",""
"","","","","","html-keyboard-response","114","168258","0.0-94.0","72","1","2025-01-31 01:47:40","af8d355d56820e421d246a7037deb6e6","67.171.141.227","Mozilla/5.0 (X11; Linux x86_64) AppleWebKit/537.36 (KHTML, like Gecko) Chrome/132.0.0.0 Safari/537.36","WebKit","Chrome","132.0.0.0","Linux","","https://app.prolific.com/","en-US,en;q=0.6","6427402d1463cb72eca94b3e","67949641171f97c04e14fb34","679c2bb6f6e1ff6ad253d59f","","null","<img     src='G_1.jpg' height='90'> <img     src='G_2.jpg' height='90'> <img     src='G_7.jpg' height='90'> <img      src='G_4.jpg' height='90'> <img   src='G_3.jpg' height='90'> <img      src='G_8.jpg' height='90'> <img src='G_5.jpg' height='90'> <img src='G_6.jpg' height='90'>","null","Animation1",""
"","","","","","html-keyboard-response","115","168760","0.0-95.0","72","1","2025-01-31 01:47:40","af8d355d56820e421d246a7037deb6e6","67.171.141.227","Mozilla/5.0 (X11; Linux x86_64) AppleWebKit/537.36 (KHTML, like Gecko) Chrome/132.0.0.0 Safari/537.36","WebKit","Chrome","132.0.0.0","Linux","","https://app.prolific.com/","en-US,en;q=0.6","6427402d1463cb72eca94b3e","67949641171f97c04e14fb34","679c2bb6f6e1ff6ad253d59f","","null","<img     src='G_1.jpg' height='90'> <img     src='G_2.jpg' height='90'> <img     src='G_7.jpg' height='90'> <img      src='G_4.jpg' height='90'> <img   src='G_3.jpg' height='90'> <img id='selected'      src='G_8.jpg' height='90'> <img src='G_5.jpg' height='90'> <img src='G_6.jpg' height='90'>","null","Animation1",""
"","","","","","html-keyboard-response","116","169263","0.0-96.0","72","1","2025-01-31 01:47:40","af8d355d56820e421d246a7037deb6e6","67.171.141.227","Mozilla/5.0 (X11; Linux x86_64) AppleWebKit/537.36 (KHTML, like Gecko) Chrome/132.0.0.0 Safari/537.36","WebKit","Chrome","132.0.0.0","Linux","","https://app.prolific.com/","en-US,en;q=0.6","6427402d1463cb72eca94b3e","67949641171f97c04e14fb34","679c2bb6f6e1ff6ad253d59f","","null","<img     src='G_1.jpg' height='90'> <img     src='G_2.jpg' height='90'> <img     src='G_7.jpg' height='90'> <img      src='G_4.jpg' height='90'> <img   src='G_3.jpg' height='90'> <img id='selected'      src='G_8.jpg' height='90'> <img id='selected' src='G_5.jpg' height='90'> <img src='G_6.jpg' height='90'>","null","Animation1",""
"","","","","","html-keyboard-response","117","169765","0.0-97.0","72","1","2025-01-31 01:47:40","af8d355d56820e421d246a7037deb6e6","67.171.141.227","Mozilla/5.0 (X11; Linux x86_64) AppleWebKit/537.36 (KHTML, like Gecko) Chrome/132.0.0.0 Safari/537.36","WebKit","Chrome","132.0.0.0","Linux","","https://app.prolific.com/","en-US,en;q=0.6","6427402d1463cb72eca94b3e","67949641171f97c04e14fb34","679c2bb6f6e1ff6ad253d59f","","null","<img     src='G_1.jpg' height='90'> <img     src='G_2.jpg' height='90'> <img     src='G_7.jpg' height='90'> <img      src='G_4.jpg' height='90'> <img   src='G_3.jpg' height='90'> <img id='selected'      src='G_8.jpg' height='90'> <img id='selected' src='G_5.jpg' height='90'> <img src='G_6.jpg' height='90'>","null","Animation1",""
"","","","","","html-keyboard-response","118","170067","0.0-98.0","72","1","2025-01-31 01:47:40","af8d355d56820e421d246a7037deb6e6","67.171.141.227","Mozilla/5.0 (X11; Linux x86_64) AppleWebKit/537.36 (KHTML, like Gecko) Chrome/132.0.0.0 Safari/537.36","WebKit","Chrome","132.0.0.0","Linux","","https://app.prolific.com/","en-US,en;q=0.6","6427402d1463cb72eca94b3e","67949641171f97c04e14fb34","679c2bb6f6e1ff6ad253d59f","","null","<img     src='G_1.jpg' height='90'> <img     src='G_2.jpg' height='90'> <img     src='G_7.jpg' height='90'> <img      src='G_4.jpg' height='90'> <img   src='G_3.jpg' height='90'> <img       src='G_8.jpg' height='90'> <img  src='G_5.jpg' height='90'> <img src='G_6.jpg' height='90'>","null","Animation1",""
"","","","","","html-keyboard-response","119","170569","0.0-99.0","72","1","2025-01-31 01:47:40","af8d355d56820e421d246a7037deb6e6","67.171.141.227","Mozilla/5.0 (X11; Linux x86_64) AppleWebKit/537.36 (KHTML, like Gecko) Chrome/132.0.0.0 Safari/537.36","WebKit","Chrome","132.0.0.0","Linux","","https://app.prolific.com/","en-US,en;q=0.6","6427402d1463cb72eca94b3e","67949641171f97c04e14fb34","679c2bb6f6e1ff6ad253d59f","","null","<img     src='G_1.jpg' height='90'> <img     src='G_2.jpg' height='90'> <img     src='G_7.jpg' height='90'> <img      src='G_4.jpg' height='90'> <img   src='G_3.jpg' height='90'> <img       src='G_8.jpg' height='90'> <img id='selected'  src='G_5.jpg' height='90'> <img src='G_6.jpg' height='90'>","null","Animation1",""
"","","","","","html-keyboard-response","120","171071","0.0-100.0","72","1","2025-01-31 01:47:40","af8d355d56820e421d246a7037deb6e6","67.171.141.227","Mozilla/5.0 (X11; Linux x86_64) AppleWebKit/537.36 (KHTML, like Gecko) Chrome/132.0.0.0 Safari/537.36","WebKit","Chrome","132.0.0.0","Linux","","https://app.prolific.com/","en-US,en;q=0.6","6427402d1463cb72eca94b3e","67949641171f97c04e14fb34","679c2bb6f6e1ff6ad253d59f","","null","<img     src='G_1.jpg' height='90'> <img     src='G_2.jpg' height='90'> <img     src='G_7.jpg' height='90'> <img      src='G_4.jpg' height='90'> <img   src='G_3.jpg' height='90'> <img       src='G_8.jpg' height='90'> <img id='selected'  src='G_5.jpg' height='90'> <img id='selected' src='G_6.jpg' height='90'>","null","Animation1",""
"","","","","","html-keyboard-response","121","171574","0.0-101.0","72","1","2025-01-31 01:47:40","af8d355d56820e421d246a7037deb6e6","67.171.141.227","Mozilla/5.0 (X11; Linux x86_64) AppleWebKit/537.36 (KHTML, like Gecko) Chrome/132.0.0.0 Safari/537.36","WebKit","Chrome","132.0.0.0","Linux","","https://app.prolific.com/","en-US,en;q=0.6","6427402d1463cb72eca94b3e","67949641171f97c04e14fb34","679c2bb6f6e1ff6ad253d59f","","null","<img     src='G_1.jpg' height='90'> <img     src='G_2.jpg' height='90'> <img     src='G_7.jpg' height='90'> <img      src='G_4.jpg' height='90'> <img   src='G_3.jpg' height='90'> <img       src='G_8.jpg' height='90'> <img id='swapped' src='G_6.jpg' height='90'> <img id='swapped'  src='G_5.jpg' height='90'>","null","Animation1",""
"","","","","","html-keyboard-response","122","171876","0.0-102.0","72","1","2025-01-31 01:47:40","af8d355d56820e421d246a7037deb6e6","67.171.141.227","Mozilla/5.0 (X11; Linux x86_64) AppleWebKit/537.36 (KHTML, like Gecko) Chrome/132.0.0.0 Safari/537.36","WebKit","Chrome","132.0.0.0","Linux","","https://app.prolific.com/","en-US,en;q=0.6","6427402d1463cb72eca94b3e","67949641171f97c04e14fb34","679c2bb6f6e1ff6ad253d59f","","null","<img     src='G_1.jpg' height='90'> <img     src='G_2.jpg' height='90'> <img     src='G_7.jpg' height='90'> <img      src='G_4.jpg' height='90'> <img   src='G_3.jpg' height='90'> <img       src='G_8.jpg' height='90'> <img  src='G_6.jpg' height='90'> <img   src='G_5.jpg' height='90'>","null","Animation1",""
"","","","","","html-keyboard-response","123","172378","0.0-103.0","72","1","2025-01-31 01:47:40","af8d355d56820e421d246a7037deb6e6","67.171.141.227","Mozilla/5.0 (X11; Linux x86_64) AppleWebKit/537.36 (KHTML, like Gecko) Chrome/132.0.0.0 Safari/537.36","WebKit","Chrome","132.0.0.0","Linux","","https://app.prolific.com/","en-US,en;q=0.6","6427402d1463cb72eca94b3e","67949641171f97c04e14fb34","679c2bb6f6e1ff6ad253d59f","","null","<img     src='G_1.jpg' height='90'> <img     src='G_2.jpg' height='90'> <img     src='G_7.jpg' height='90'> <img      src='G_4.jpg' height='90'> <img   src='G_3.jpg' height='90'> <img id='selected'       src='G_8.jpg' height='90'> <img  src='G_6.jpg' height='90'> <img   src='G_5.jpg' height='90'>","null","Animation1",""
"","","","","","html-keyboard-response","124","172881","0.0-104.0","72","1","2025-01-31 01:47:40","af8d355d56820e421d246a7037deb6e6","67.171.141.227","Mozilla/5.0 (X11; Linux x86_64) AppleWebKit/537.36 (KHTML, like Gecko) Chrome/132.0.0.0 Safari/537.36","WebKit","Chrome","132.0.0.0","Linux","","https://app.prolific.com/","en-US,en;q=0.6","6427402d1463cb72eca94b3e","67949641171f97c04e14fb34","679c2bb6f6e1ff6ad253d59f","","null","<img     src='G_1.jpg' height='90'> <img     src='G_2.jpg' height='90'> <img     src='G_7.jpg' height='90'> <img      src='G_4.jpg' height='90'> <img   src='G_3.jpg' height='90'> <img id='selected'       src='G_8.jpg' height='90'> <img id='selected'  src='G_6.jpg' height='90'> <img   src='G_5.jpg' height='90'>","null","Animation1",""
"","","","","","html-keyboard-response","125","173383","0.0-105.0","72","1","2025-01-31 01:47:40","af8d355d56820e421d246a7037deb6e6","67.171.141.227","Mozilla/5.0 (X11; Linux x86_64) AppleWebKit/537.36 (KHTML, like Gecko) Chrome/132.0.0.0 Safari/537.36","WebKit","Chrome","132.0.0.0","Linux","","https://app.prolific.com/","en-US,en;q=0.6","6427402d1463cb72eca94b3e","67949641171f97c04e14fb34","679c2bb6f6e1ff6ad253d59f","","null","<img     src='G_1.jpg' height='90'> <img     src='G_2.jpg' height='90'> <img     src='G_7.jpg' height='90'> <img      src='G_4.jpg' height='90'> <img   src='G_3.jpg' height='90'> <img id='selected'       src='G_8.jpg' height='90'> <img id='selected'  src='G_6.jpg' height='90'> <img   src='G_5.jpg' height='90'>","null","Animation1",""
"","","","","","html-keyboard-response","126","173685","0.0-106.0","72","1","2025-01-31 01:47:40","af8d355d56820e421d246a7037deb6e6","67.171.141.227","Mozilla/5.0 (X11; Linux x86_64) AppleWebKit/537.36 (KHTML, like Gecko) Chrome/132.0.0.0 Safari/537.36","WebKit","Chrome","132.0.0.0","Linux","","https://app.prolific.com/","en-US,en;q=0.6","6427402d1463cb72eca94b3e","67949641171f97c04e14fb34","679c2bb6f6e1ff6ad253d59f","","null","<img     src='G_1.jpg' height='90'> <img     src='G_2.jpg' height='90'> <img     src='G_7.jpg' height='90'> <img      src='G_4.jpg' height='90'> <img   src='G_3.jpg' height='90'> <img        src='G_8.jpg' height='90'> <img   src='G_6.jpg' height='90'> <img   src='G_5.jpg' height='90'>","null","Animation1",""
"","","","","","html-keyboard-response","127","185600","0.0-107.0","72","1","2025-01-31 01:47:40","af8d355d56820e421d246a7037deb6e6","67.171.141.227","Mozilla/5.0 (X11; Linux x86_64) AppleWebKit/537.36 (KHTML, like Gecko) Chrome/132.0.0.0 Safari/537.36","WebKit","Chrome","132.0.0.0","Linux","","https://app.prolific.com/","en-US,en;q=0.6","6427402d1463cb72eca94b3e","67949641171f97c04e14fb34","679c2bb6f6e1ff6ad253d59f","","11913","[""Did you notice any patterns? <br><br>Press Enter to watch that example again and follow the steps of Omgne Sort.""]","alt","",""
"","","","","","html-button-response","128","186002","0.0-108.0","72","1","2025-01-31 01:47:40","af8d355d56820e421d246a7037deb6e6","67.171.141.227","Mozilla/5.0 (X11; Linux x86_64) AppleWebKit/537.36 (KHTML, like Gecko) Chrome/132.0.0.0 Safari/537.36","WebKit","Chrome","132.0.0.0","Linux","","https://app.prolific.com/","en-US,en;q=0.6","6427402d1463cb72eca94b3e","67949641171f97c04e14fb34","679c2bb6f6e1ff6ad253d59f","","null","<img id='selected' src='G_4.jpg' height='90'> <img src='G_8.jpg' height='90'> <img src='G_7.jpg' height='90'> <img src='G_1.jpg' height='90'> <img src='G_2.jpg' height='90'> <img src='G_3.jpg' height='90'> <img src='G_5.jpg' height='90'> <img src='G_6.jpg' height='90'>","null","Learning example 1",""
"","","","","","html-button-response","129","186305","0.0-109.0","72","1","2025-01-31 01:47:40","af8d355d56820e421d246a7037deb6e6","67.171.141.227","Mozilla/5.0 (X11; Linux x86_64) AppleWebKit/537.36 (KHTML, like Gecko) Chrome/132.0.0.0 Safari/537.36","WebKit","Chrome","132.0.0.0","Linux","","https://app.prolific.com/","en-US,en;q=0.6","6427402d1463cb72eca94b3e","67949641171f97c04e14fb34","679c2bb6f6e1ff6ad253d59f","","null","<img id='selected' src='G_4.jpg' height='90'> <img id='selected' src='G_8.jpg' height='90'> <img src='G_7.jpg' height='90'> <img src='G_1.jpg' height='90'> <img src='G_2.jpg' height='90'> <img src='G_3.jpg' height='90'> <img src='G_5.jpg' height='90'> <img src='G_6.jpg' height='90'>","null","Learning example 1",""
"","","","","","html-button-response","130","186607","0.0-110.0","72","1","2025-01-31 01:47:40","af8d355d56820e421d246a7037deb6e6","67.171.141.227","Mozilla/5.0 (X11; Linux x86_64) AppleWebKit/537.36 (KHTML, like Gecko) Chrome/132.0.0.0 Safari/537.36","WebKit","Chrome","132.0.0.0","Linux","","https://app.prolific.com/","en-US,en;q=0.6","6427402d1463cb72eca94b3e","67949641171f97c04e14fb34","679c2bb6f6e1ff6ad253d59f","","null","<img id='selected' src='G_4.jpg' height='90'> <img id='selected' src='G_8.jpg' height='90'> <img src='G_7.jpg' height='90'> <img src='G_1.jpg' height='90'> <img src='G_2.jpg' height='90'> <img src='G_3.jpg' height='90'> <img src='G_5.jpg' height='90'> <img src='G_6.jpg' height='90'>","null","Learning example 1",""
"","","","","","html-button-response","131","188115","0.0-111.0-0.0-0.0","72","1","2025-01-31 01:47:40","af8d355d56820e421d246a7037deb6e6","67.171.141.227","Mozilla/5.0 (X11; Linux x86_64) AppleWebKit/537.36 (KHTML, like Gecko) Chrome/132.0.0.0 Safari/537.36","WebKit","Chrome","132.0.0.0","Linux","","https://app.prolific.com/","en-US,en;q=0.6","6427402d1463cb72eca94b3e","67949641171f97c04e14fb34","679c2bb6f6e1ff6ad253d59f","","1505","<img id='selected' src='G_4.jpg' height='90'> <img id='selected' src='G_8.jpg' height='90'> <img src='G_7.jpg' height='90'> <img src='G_1.jpg' height='90'> <img src='G_2.jpg' height='90'> <img src='G_3.jpg' height='90'> <img src='G_5.jpg' height='90'> <img src='G_6.jpg' height='90'>","0","Learning example 1",""
"","","","","","html-button-response","132","188597","0.0-111.1-0.1-0.1","72","1","2025-01-31 01:47:40","af8d355d56820e421d246a7037deb6e6","67.171.141.227","Mozilla/5.0 (X11; Linux x86_64) AppleWebKit/537.36 (KHTML, like Gecko) Chrome/132.0.0.0 Safari/537.36","WebKit","Chrome","132.0.0.0","Linux","","https://app.prolific.com/","en-US,en;q=0.6","6427402d1463cb72eca94b3e","67949641171f97c04e14fb34","679c2bb6f6e1ff6ad253d59f","","480","<img id='selected' src='G_4.jpg' height='90'> <img id='selected' src='G_8.jpg' height='90'> <img src='G_7.jpg' height='90'> <img src='G_1.jpg' height='90'> <img src='G_2.jpg' height='90'> <img src='G_3.jpg' height='90'> <img src='G_5.jpg' height='90'> <img src='G_6.jpg' height='90'>","1","Learning example 1",""
"","","","","","html-button-response","133","188800","0.0-112.0","72","1","2025-01-31 01:47:40","af8d355d56820e421d246a7037deb6e6","67.171.141.227","Mozilla/5.0 (X11; Linux x86_64) AppleWebKit/537.36 (KHTML, like Gecko) Chrome/132.0.0.0 Safari/537.36","WebKit","Chrome","132.0.0.0","Linux","","https://app.prolific.com/","en-US,en;q=0.6","6427402d1463cb72eca94b3e","67949641171f97c04e14fb34","679c2bb6f6e1ff6ad253d59f","","null","<img  src='G_4.jpg' height='90'> <img  src='G_8.jpg' height='90'> <img src='G_7.jpg' height='90'> <img src='G_1.jpg' height='90'> <img src='G_2.jpg' height='90'> <img src='G_3.jpg' height='90'> <img src='G_5.jpg' height='90'> <img src='G_6.jpg' height='90'>","null","Learning example 1",""
"","","","","","html-button-response","134","189202","0.0-113.0","72","1","2025-01-31 01:47:40","af8d355d56820e421d246a7037deb6e6","67.171.141.227","Mozilla/5.0 (X11; Linux x86_64) AppleWebKit/537.36 (KHTML, like Gecko) Chrome/132.0.0.0 Safari/537.36","WebKit","Chrome","132.0.0.0","Linux","","https://app.prolific.com/","en-US,en;q=0.6","6427402d1463cb72eca94b3e","67949641171f97c04e14fb34","679c2bb6f6e1ff6ad253d59f","","null","<img  src='G_4.jpg' height='90'> <img id='selected'  src='G_8.jpg' height='90'> <img src='G_7.jpg' height='90'> <img src='G_1.jpg' height='90'> <img src='G_2.jpg' height='90'> <img src='G_3.jpg' height='90'> <img src='G_5.jpg' height='90'> <img src='G_6.jpg' height='90'>","null","Learning example 1",""
"","","","","","html-button-response","135","189505","0.0-114.0","72","1","2025-01-31 01:47:40","af8d355d56820e421d246a7037deb6e6","67.171.141.227","Mozilla/5.0 (X11; Linux x86_64) AppleWebKit/537.36 (KHTML, like Gecko) Chrome/132.0.0.0 Safari/537.36","WebKit","Chrome","132.0.0.0","Linux","","https://app.prolific.com/","en-US,en;q=0.6","6427402d1463cb72eca94b3e","67949641171f97c04e14fb34","679c2bb6f6e1ff6ad253d59f","","null","<img  src='G_4.jpg' height='90'> <img id='selected'  src='G_8.jpg' height='90'> <img id='selected' src='G_7.jpg' height='90'> <img src='G_1.jpg' height='90'> <img src='G_2.jpg' height='90'> <img src='G_3.jpg' height='90'> <img src='G_5.jpg' height='90'> <img src='G_6.jpg' height='90'>","null","Learning example 1",""
"","","","","","html-button-response","136","189808","0.0-115.0","72","1","2025-01-31 01:47:40","af8d355d56820e421d246a7037deb6e6","67.171.141.227","Mozilla/5.0 (X11; Linux x86_64) AppleWebKit/537.36 (KHTML, like Gecko) Chrome/132.0.0.0 Safari/537.36","WebKit","Chrome","132.0.0.0","Linux","","https://app.prolific.com/","en-US,en;q=0.6","6427402d1463cb72eca94b3e","67949641171f97c04e14fb34","679c2bb6f6e1ff6ad253d59f","","null","<img  src='G_4.jpg' height='90'> <img id='swapped' src='G_7.jpg' height='90'> <img id='swapped'  src='G_8.jpg' height='90'> <img src='G_1.jpg' height='90'> <img src='G_2.jpg' height='90'> <img src='G_3.jpg' height='90'> <img src='G_5.jpg' height='90'> <img src='G_6.jpg' height='90'>","null","Learning example 1",""
"","","","","","html-button-response","137","190633","0.0-116.0-0.0-0.0","72","1","2025-01-31 01:47:40","af8d355d56820e421d246a7037deb6e6","67.171.141.227","Mozilla/5.0 (X11; Linux x86_64) AppleWebKit/537.36 (KHTML, like Gecko) Chrome/132.0.0.0 Safari/537.36","WebKit","Chrome","132.0.0.0","Linux","","https://app.prolific.com/","en-US,en;q=0.6","6427402d1463cb72eca94b3e","67949641171f97c04e14fb34","679c2bb6f6e1ff6ad253d59f","","822","<img  src='G_4.jpg' height='90'> <img id='swapped' src='G_7.jpg' height='90'> <img id='swapped'  src='G_8.jpg' height='90'> <img src='G_1.jpg' height='90'> <img src='G_2.jpg' height='90'> <img src='G_3.jpg' height='90'> <img src='G_5.jpg' height='90'> <img src='G_6.jpg' height='90'>","1","Learning example 1",""
"","","","","","html-button-response","138","191026","0.0-116.1-0.1-0.1","72","1","2025-01-31 01:47:40","af8d355d56820e421d246a7037deb6e6","67.171.141.227","Mozilla/5.0 (X11; Linux x86_64) AppleWebKit/537.36 (KHTML, like Gecko) Chrome/132.0.0.0 Safari/537.36","WebKit","Chrome","132.0.0.0","Linux","","https://app.prolific.com/","en-US,en;q=0.6","6427402d1463cb72eca94b3e","67949641171f97c04e14fb34","679c2bb6f6e1ff6ad253d59f","","391","<img  src='G_4.jpg' height='90'> <img id='swapped' src='G_7.jpg' height='90'> <img id='swapped'  src='G_8.jpg' height='90'> <img src='G_1.jpg' height='90'> <img src='G_2.jpg' height='90'> <img src='G_3.jpg' height='90'> <img src='G_5.jpg' height='90'> <img src='G_6.jpg' height='90'>","2","Learning example 1",""
"","","","","","html-button-response","139","191228","0.0-117.0","72","1","2025-01-31 01:47:40","af8d355d56820e421d246a7037deb6e6","67.171.141.227","Mozilla/5.0 (X11; Linux x86_64) AppleWebKit/537.36 (KHTML, like Gecko) Chrome/132.0.0.0 Safari/537.36","WebKit","Chrome","132.0.0.0","Linux","","https://app.prolific.com/","en-US,en;q=0.6","6427402d1463cb72eca94b3e","67949641171f97c04e14fb34","679c2bb6f6e1ff6ad253d59f","","null","<img  src='G_4.jpg' height='90'> <img  src='G_7.jpg' height='90'> <img   src='G_8.jpg' height='90'> <img src='G_1.jpg' height='90'> <img src='G_2.jpg' height='90'> <img src='G_3.jpg' height='90'> <img src='G_5.jpg' height='90'> <img src='G_6.jpg' height='90'>","null","Learning example 1",""
"","","","","","html-button-response","140","191631","0.0-118.0","72","1","2025-01-31 01:47:40","af8d355d56820e421d246a7037deb6e6","67.171.141.227","Mozilla/5.0 (X11; Linux x86_64) AppleWebKit/537.36 (KHTML, like Gecko) Chrome/132.0.0.0 Safari/537.36","WebKit","Chrome","132.0.0.0","Linux","","https://app.prolific.com/","en-US,en;q=0.6","6427402d1463cb72eca94b3e","67949641171f97c04e14fb34","679c2bb6f6e1ff6ad253d59f","","null","<img id='selected'  src='G_4.jpg' height='90'> <img  src='G_7.jpg' height='90'> <img   src='G_8.jpg' height='90'> <img src='G_1.jpg' height='90'> <img src='G_2.jpg' height='90'> <img src='G_3.jpg' height='90'> <img src='G_5.jpg' height='90'> <img src='G_6.jpg' height='90'>","null","Learning example 1",""
"","","","","","html-button-response","141","191933","0.0-119.0","72","1","2025-01-31 01:47:40","af8d355d56820e421d246a7037deb6e6","67.171.141.227","Mozilla/5.0 (X11; Linux x86_64) AppleWebKit/537.36 (KHTML, like Gecko) Chrome/132.0.0.0 Safari/537.36","WebKit","Chrome","132.0.0.0","Linux","","https://app.prolific.com/","en-US,en;q=0.6","6427402d1463cb72eca94b3e","67949641171f97c04e14fb34","679c2bb6f6e1ff6ad253d59f","","null","<img id='selected'  src='G_4.jpg' height='90'> <img id='selected'  src='G_7.jpg' height='90'> <img   src='G_8.jpg' height='90'> <img src='G_1.jpg' height='90'> <img src='G_2.jpg' height='90'> <img src='G_3.jpg' height='90'> <img src='G_5.jpg' height='90'> <img src='G_6.jpg' height='90'>","null","Learning example 1",""
"","","","","","html-button-response","142","192236","0.0-120.0","72","1","2025-01-31 01:47:40","af8d355d56820e421d246a7037deb6e6","67.171.141.227","Mozilla/5.0 (X11; Linux x86_64) AppleWebKit/537.36 (KHTML, like Gecko) Chrome/132.0.0.0 Safari/537.36","WebKit","Chrome","132.0.0.0","Linux","","https://app.prolific.com/","en-US,en;q=0.6","6427402d1463cb72eca94b3e","67949641171f97c04e14fb34","679c2bb6f6e1ff6ad253d59f","","null","<img id='swapped'  src='G_7.jpg' height='90'> <img id='swapped'  src='G_4.jpg' height='90'> <img   src='G_8.jpg' height='90'> <img src='G_1.jpg' height='90'> <img src='G_2.jpg' height='90'> <img src='G_3.jpg' height='90'> <img src='G_5.jpg' height='90'> <img src='G_6.jpg' height='90'>","null","Learning example 1",""
"","","","","","html-button-response","143","193110","0.0-121.0-0.0-0.0","72","1","2025-01-31 01:47:40","af8d355d56820e421d246a7037deb6e6","67.171.141.227","Mozilla/5.0 (X11; Linux x86_64) AppleWebKit/537.36 (KHTML, like Gecko) Chrome/132.0.0.0 Safari/537.36","WebKit","Chrome","132.0.0.0","Linux","","https://app.prolific.com/","en-US,en;q=0.6","6427402d1463cb72eca94b3e","67949641171f97c04e14fb34","679c2bb6f6e1ff6ad253d59f","","871","<img id='swapped'  src='G_7.jpg' height='90'> <img id='swapped'  src='G_4.jpg' height='90'> <img   src='G_8.jpg' height='90'> <img src='G_1.jpg' height='90'> <img src='G_2.jpg' height='90'> <img src='G_3.jpg' height='90'> <img src='G_5.jpg' height='90'> <img src='G_6.jpg' height='90'>","0","Learning example 1",""
"","","","","","html-button-response","144","193455","0.0-121.1-0.1-0.1","72","1","2025-01-31 01:47:40","af8d355d56820e421d246a7037deb6e6","67.171.141.227","Mozilla/5.0 (X11; Linux x86_64) AppleWebKit/537.36 (KHTML, like Gecko) Chrome/132.0.0.0 Safari/537.36","WebKit","Chrome","132.0.0.0","Linux","","https://app.prolific.com/","en-US,en;q=0.6","6427402d1463cb72eca94b3e","67949641171f97c04e14fb34","679c2bb6f6e1ff6ad253d59f","","342","<img id='swapped'  src='G_7.jpg' height='90'> <img id='swapped'  src='G_4.jpg' height='90'> <img   src='G_8.jpg' height='90'> <img src='G_1.jpg' height='90'> <img src='G_2.jpg' height='90'> <img src='G_3.jpg' height='90'> <img src='G_5.jpg' height='90'> <img src='G_6.jpg' height='90'>","1","Learning example 1",""
"","","","","","html-button-response","145","193658","0.0-122.0","72","1","2025-01-31 01:47:40","af8d355d56820e421d246a7037deb6e6","67.171.141.227","Mozilla/5.0 (X11; Linux x86_64) AppleWebKit/537.36 (KHTML, like Gecko) Chrome/132.0.0.0 Safari/537.36","WebKit","Chrome","132.0.0.0","Linux","","https://app.prolific.com/","en-US,en;q=0.6","6427402d1463cb72eca94b3e","67949641171f97c04e14fb34","679c2bb6f6e1ff6ad253d59f","","null","<img   src='G_7.jpg' height='90'> <img   src='G_4.jpg' height='90'> <img   src='G_8.jpg' height='90'> <img src='G_1.jpg' height='90'> <img src='G_2.jpg' height='90'> <img src='G_3.jpg' height='90'> <img src='G_5.jpg' height='90'> <img src='G_6.jpg' height='90'>","null","Learning example 1",""
"","","","","","html-button-response","146","194060","0.0-123.0","72","1","2025-01-31 01:47:40","af8d355d56820e421d246a7037deb6e6","67.171.141.227","Mozilla/5.0 (X11; Linux x86_64) AppleWebKit/537.36 (KHTML, like Gecko) Chrome/132.0.0.0 Safari/537.36","WebKit","Chrome","132.0.0.0","Linux","","https://app.prolific.com/","en-US,en;q=0.6","6427402d1463cb72eca94b3e","67949641171f97c04e14fb34","679c2bb6f6e1ff6ad253d59f","","null","<img   src='G_7.jpg' height='90'> <img   src='G_4.jpg' height='90'> <img id='selected'   src='G_8.jpg' height='90'> <img src='G_1.jpg' height='90'> <img src='G_2.jpg' height='90'> <img src='G_3.jpg' height='90'> <img src='G_5.jpg' height='90'> <img src='G_6.jpg' height='90'>","null","Learning example 1",""
"","","","","","html-button-response","147","194363","0.0-124.0","72","1","2025-01-31 01:47:40","af8d355d56820e421d246a7037deb6e6","67.171.141.227","Mozilla/5.0 (X11; Linux x86_64) AppleWebKit/537.36 (KHTML, like Gecko) Chrome/132.0.0.0 Safari/537.36","WebKit","Chrome","132.0.0.0","Linux","","https://app.prolific.com/","en-US,en;q=0.6","6427402d1463cb72eca94b3e","67949641171f97c04e14fb34","679c2bb6f6e1ff6ad253d59f","","null","<img   src='G_7.jpg' height='90'> <img   src='G_4.jpg' height='90'> <img id='selected'   src='G_8.jpg' height='90'> <img id='selected' src='G_1.jpg' height='90'> <img src='G_2.jpg' height='90'> <img src='G_3.jpg' height='90'> <img src='G_5.jpg' height='90'> <img src='G_6.jpg' height='90'>","null","Learning example 1",""
