"success","timeout","failed_images","failed_audio","failed_video","trial_type","trial_index","time_elapsed","internal_node_id","run_id","condition","recorded_at","source_code_version","ip","user_agent","device","browser","browser_version","platform","platform_version","referer","accept_language","PROLIFIC_PID","STUDY_ID","SESSION_ID","view_history","rt","stimulus","response","phase","question_order"
"true","false","[]","[]","[]","preload","0","201","0.0-0.0","73","1","2025-01-31 01:50:41","af8d355d56820e421d246a7037deb6e6","162.237.52.23","Mozilla/5.0 (Windows NT 10.0; Win64; x64) AppleWebKit/537.36 (KHTML, like Gecko) Chrome/132.0.0.0 Safari/537.36","WebKit","Chrome","132.0.0.0","Windows","10.0","https://app.prolific.com/","en-US,en;q=0.9","66e0ff9d08256be084cd8c81","67949641171f97c04e14fb34","679c2bb3e12d7ac82c5e484d","","","","","",""
"","","","","","instructions","1","24470","0.0-1.0","73","1","2025-01-31 01:50:41","af8d355d56820e421d246a7037deb6e6","162.237.52.23","Mozilla/5.0 (Windows NT 10.0; Win64; x64) AppleWebKit/537.36 (KHTML, like Gecko) Chrome/132.0.0.0 Safari/537.36","WebKit","Chrome","132.0.0.0","Windows","10.0","https://app.prolific.com/","en-US,en;q=0.9","66e0ff9d08256be084cd8c81","67949641171f97c04e14fb34","679c2bb3e12d7ac82c5e484d","[{""page_index"":0,""viewing_time"":24267}]","24267","","","",""
"","","","","","html-keyboard-response","2","24986","0.0-2.0","73","1","2025-01-31 01:50:41","af8d355d56820e421d246a7037deb6e6","162.237.52.23","Mozilla/5.0 (Windows NT 10.0; Win64; x64) AppleWebKit/537.36 (KHTML, like Gecko) Chrome/132.0.0.0 Safari/537.36","WebKit","Chrome","132.0.0.0","Windows","10.0","https://app.prolific.com/","en-US,en;q=0.9","66e0ff9d08256be084cd8c81","67949641171f97c04e14fb34","679c2bb3e12d7ac82c5e484d","","null","<p> + <p/>","null","",""
"","","","","","instructions","3","52395","0.0-3.0","73","1","2025-01-31 01:50:41","af8d355d56820e421d246a7037deb6e6","162.237.52.23","Mozilla/5.0 (Windows NT 10.0; Win64; x64) AppleWebKit/537.36 (KHTML, like Gecko) Chrome/132.0.0.0 Safari/537.36","WebKit","Chrome","132.0.0.0","Windows","10.0","https://app.prolific.com/","en-US,en;q=0.9","66e0ff9d08256be084cd8c81","67949641171f97c04e14fb34","679c2bb3e12d7ac82c5e484d","[{""page_index"":0,""viewing_time"":4288},{""page_index"":1,""viewing_time"":6342},{""page_index"":2,""viewing_time"":7029},{""page_index"":3,""viewing_time"":4054},{""page_index"":4,""viewing_time"":5694}]","27408","","","",""
"","","","","","html-button-response","4","67978","0.0-4.0-0.0-0.0","73","1","2025-01-31 01:50:41","af8d355d56820e421d246a7037deb6e6","162.237.52.23","Mozilla/5.0 (Windows NT 10.0; Win64; x64) AppleWebKit/537.36 (KHTML, like Gecko) Chrome/132.0.0.0 Safari/537.36","WebKit","Chrome","132.0.0.0","Windows","10.0","https://app.prolific.com/","en-US,en;q=0.9","66e0ff9d08256be084cd8c81","67949641171f97c04e14fb34","679c2bb3e12d7ac82c5e484d","","15580","","1","Intro Trial",""
"","","","","","html-button-response","5","69086","0.0-4.1-0.1-0.1","73","1","2025-01-31 01:50:41","af8d355d56820e421d246a7037deb6e6","162.237.52.23","Mozilla/5.0 (Windows NT 10.0; Win64; x64) AppleWebKit/537.36 (KHTML, like Gecko) Chrome/132.0.0.0 Safari/537.36","WebKit","Chrome","132.0.0.0","Windows","10.0","https://app.prolific.com/","en-US,en;q=0.9","66e0ff9d08256be084cd8c81","67949641171f97c04e14fb34","679c2bb3e12d7ac82c5e484d","","1105","","0","Intro Trial",""
"","","","","","html-button-response","6","75504","0.0-4.2-0.2-0.2","73","1","2025-01-31 01:50:41","af8d355d56820e421d246a7037deb6e6","162.237.52.23","Mozilla/5.0 (Windows NT 10.0; Win64; x64) AppleWebKit/537.36 (KHTML, like Gecko) Chrome/132.0.0.0 Safari/537.36","WebKit","Chrome","132.0.0.0","Windows","10.0","https://app.prolific.com/","en-US,en;q=0.9","66e0ff9d08256be084cd8c81","67949641171f97c04e14fb34","679c2bb3e12d7ac82c5e484d","","6415","","1","Intro Trial",""
"","","","","","html-button-response","7","75959","0.0-4.3-0.3-0.3","73","1","2025-01-31 01:50:41","af8d355d56820e421d246a7037deb6e6","162.237.52.23","Mozilla/5.0 (Windows NT 10.0; Win64; x64) AppleWebKit/537.36 (KHTML, like Gecko) Chrome/132.0.0.0 Safari/537.36","WebKit","Chrome","132.0.0.0","Windows","10.0","https://app.prolific.com/","en-US,en;q=0.9","66e0ff9d08256be084cd8c81","67949641171f97c04e14fb34","679c2bb3e12d7ac82c5e484d","","452","","1","Intro Trial",""
"","","","","","html-button-response","8","85707","0.0-4.4-0.4-0.4","73","1","2025-01-31 01:50:41","af8d355d56820e421d246a7037deb6e6","162.237.52.23","Mozilla/5.0 (Windows NT 10.0; Win64; x64) AppleWebKit/537.36 (KHTML, like Gecko) Chrome/132.0.0.0 Safari/537.36","WebKit","Chrome","132.0.0.0","Windows","10.0","https://app.prolific.com/","en-US,en;q=0.9","66e0ff9d08256be084cd8c81","67949641171f97c04e14fb34","679c2bb3e12d7ac82c5e484d","","9745","","3","Intro Trial",""
"","","","","","html-button-response","9","86907","0.0-4.5-0.5-0.5","73","1","2025-01-31 01:50:41","af8d355d56820e421d246a7037deb6e6","162.237.52.23","Mozilla/5.0 (Windows NT 10.0; Win64; x64) AppleWebKit/537.36 (KHTML, like Gecko) Chrome/132.0.0.0 Safari/537.36","WebKit","Chrome","132.0.0.0","Windows","10.0","https://app.prolific.com/","en-US,en;q=0.9","66e0ff9d08256be084cd8c81","67949641171f97c04e14fb34","679c2bb3e12d7ac82c5e484d","","1197","","4","Intro Trial",""
"","","","","","html-button-response","10","92473","0.0-4.6-0.6-0.6","73","1","2025-01-31 01:50:41","af8d355d56820e421d246a7037deb6e6","162.237.52.23","Mozilla/5.0 (Windows NT 10.0; Win64; x64) AppleWebKit/537.36 (KHTML, like Gecko) Chrome/132.0.0.0 Safari/537.36","WebKit","Chrome","132.0.0.0","Windows","10.0","https://app.prolific.com/","en-US,en;q=0.9","66e0ff9d08256be084cd8c81","67949641171f97c04e14fb34","679c2bb3e12d7ac82c5e484d","","5564","","2","Intro Trial",""
"","","","","","html-button-response","11","93437","0.0-4.7-0.7-0.7","73","1","2025-01-31 01:50:41","af8d355d56820e421d246a7037deb6e6","162.237.52.23","Mozilla/5.0 (Windows NT 10.0; Win64; x64) AppleWebKit/537.36 (KHTML, like Gecko) Chrome/132.0.0.0 Safari/537.36","WebKit","Chrome","132.0.0.0","Windows","10.0","https://app.prolific.com/","en-US,en;q=0.9","66e0ff9d08256be084cd8c81","67949641171f97c04e14fb34","679c2bb3e12d7ac82c5e484d","","962","","3","Intro Trial",""
"","","","","","html-button-response","12","96938","0.0-4.8-0.8-0.8","73","1","2025-01-31 01:50:41","af8d355d56820e421d246a7037deb6e6","162.237.52.23","Mozilla/5.0 (Windows NT 10.0; Win64; x64) AppleWebKit/537.36 (KHTML, like Gecko) Chrome/132.0.0.0 Safari/537.36","WebKit","Chrome","132.0.0.0","Windows","10.0","https://app.prolific.com/","en-US,en;q=0.9","66e0ff9d08256be084cd8c81","67949641171f97c04e14fb34","679c2bb3e12d7ac82c5e484d","","3498","","5","Intro Trial",""
"","","","","","html-keyboard-response","13","107445","0.0-5.0","73","1","2025-01-31 01:50:41","af8d355d56820e421d246a7037deb6e6","162.237.52.23","Mozilla/5.0 (Windows NT 10.0; Win64; x64) AppleWebKit/537.36 (KHTML, like Gecko) Chrome/132.0.0.0 Safari/537.36","WebKit","Chrome","132.0.0.0","Windows","10.0","https://app.prolific.com/","en-US,en;q=0.9","66e0ff9d08256be084cd8c81","67949641171f97c04e14fb34","679c2bb3e12d7ac82c5e484d","","10504","[""You sorted incorrectly by using the balance 3 times. <br><br> <img src='G_2.jpg' height='90'><img src='G_1.jpg' height='90'><img src='G_5.jpg' height='90'><img src='G_3.jpg' height='90'><img src='G_4.jpg' height='90'><br><br> Your final order is 2,4,1,3,5<br><br><br>Omgne Sort in this game will allow you to sort correctly by using the balance 8 times. Press Enter to learn it!""]","enter","",""
"","","","","","html-keyboard-response","14","118363","0.0-6.0","73","1","2025-01-31 01:50:41","af8d355d56820e421d246a7037deb6e6","162.237.52.23","Mozilla/5.0 (Windows NT 10.0; Win64; x64) AppleWebKit/537.36 (KHTML, like Gecko) Chrome/132.0.0.0 Safari/537.36","WebKit","Chrome","132.0.0.0","Windows","10.0","https://app.prolific.com/","en-US,en;q=0.9","66e0ff9d08256be084cd8c81","67949641171f97c04e14fb34","679c2bb3e12d7ac82c5e484d","","10916","<p>Welcome to the learning phase! <br><br> You will learn by six examples. The following learning trials will not be used to calculate your performance. <br><br> Press Enter to continue.<p/>","enter","",""
"","","","","","html-keyboard-response","15","122076","0.0-7.0","73","1","2025-01-31 01:50:41","af8d355d56820e421d246a7037deb6e6","162.237.52.23","Mozilla/5.0 (Windows NT 10.0; Win64; x64) AppleWebKit/537.36 (KHTML, like Gecko) Chrome/132.0.0.0 Safari/537.36","WebKit","Chrome","132.0.0.0","Windows","10.0","https://app.prolific.com/","en-US,en;q=0.9","66e0ff9d08256be084cd8c81","67949641171f97c04e14fb34","679c2bb3e12d7ac82c5e484d","","3712","[""Example 1<br><br>You will watch Omnge Sort in action. Try to identify any patterns in the comparisons made by this method. <br><br>Press Enter to continue.""]","enter","",""
"","","","","","html-keyboard-response","16","122595","0.0-8.0","73","1","2025-01-31 01:50:41","af8d355d56820e421d246a7037deb6e6","162.237.52.23","Mozilla/5.0 (Windows NT 10.0; Win64; x64) AppleWebKit/537.36 (KHTML, like Gecko) Chrome/132.0.0.0 Safari/537.36","WebKit","Chrome","132.0.0.0","Windows","10.0","https://app.prolific.com/","en-US,en;q=0.9","66e0ff9d08256be084cd8c81","67949641171f97c04e14fb34","679c2bb3e12d7ac82c5e484d","","null","<img id='selected' src='G_7.jpg' height='90'> <img src='G_9.jpg' height='90'> <img src='G_3.jpg' height='90'> <img src='G_1.jpg' height='90'> <img src='G_5.jpg' height='90'>","null","Animation0",""
"","","","","","html-keyboard-response","17","123106","0.0-9.0","73","1","2025-01-31 01:50:41","af8d355d56820e421d246a7037deb6e6","162.237.52.23","Mozilla/5.0 (Windows NT 10.0; Win64; x64) AppleWebKit/537.36 (KHTML, like Gecko) Chrome/132.0.0.0 Safari/537.36","WebKit","Chrome","132.0.0.0","Windows","10.0","https://app.prolific.com/","en-US,en;q=0.9","66e0ff9d08256be084cd8c81","67949641171f97c04e14fb34","679c2bb3e12d7ac82c5e484d","","null","<img id='selected' src='G_7.jpg' height='90'> <img id='selected' src='G_9.jpg' height='90'> <img src='G_3.jpg' height='90'> <img src='G_1.jpg' height='90'> <img src='G_5.jpg' height='90'>","null","Animation0",""
"","","","","","html-keyboard-response","18","123622","0.0-10.0","73","1","2025-01-31 01:50:41","af8d355d56820e421d246a7037deb6e6","162.237.52.23","Mozilla/5.0 (Windows NT 10.0; Win64; x64) AppleWebKit/537.36 (KHTML, like Gecko) Chrome/132.0.0.0 Safari/537.36","WebKit","Chrome","132.0.0.0","Windows","10.0","https://app.prolific.com/","en-US,en;q=0.9","66e0ff9d08256be084cd8c81","67949641171f97c04e14fb34","679c2bb3e12d7ac82c5e484d","","null","<img id='swapped' src='G_9.jpg' height='90'> <img id='swapped' src='G_7.jpg' height='90'> <img src='G_3.jpg' height='90'> <img src='G_1.jpg' height='90'> <img src='G_5.jpg' height='90'>","null","Animation0",""
"","","","","","html-keyboard-response","19","123943","0.0-11.0","73","1","2025-01-31 01:50:41","af8d355d56820e421d246a7037deb6e6","162.237.52.23","Mozilla/5.0 (Windows NT 10.0; Win64; x64) AppleWebKit/537.36 (KHTML, like Gecko) Chrome/132.0.0.0 Safari/537.36","WebKit","Chrome","132.0.0.0","Windows","10.0","https://app.prolific.com/","en-US,en;q=0.9","66e0ff9d08256be084cd8c81","67949641171f97c04e14fb34","679c2bb3e12d7ac82c5e484d","","null","<img  src='G_9.jpg' height='90'> <img  src='G_7.jpg' height='90'> <img src='G_3.jpg' height='90'> <img src='G_1.jpg' height='90'> <img src='G_5.jpg' height='90'>","null","Animation0",""
"","","","","","html-keyboard-response","20","124461","0.0-12.0","73","1","2025-01-31 01:50:41","af8d355d56820e421d246a7037deb6e6","162.237.52.23","Mozilla/5.0 (Windows NT 10.0; Win64; x64) AppleWebKit/537.36 (KHTML, like Gecko) Chrome/132.0.0.0 Safari/537.36","WebKit","Chrome","132.0.0.0","Windows","10.0","https://app.prolific.com/","en-US,en;q=0.9","66e0ff9d08256be084cd8c81","67949641171f97c04e14fb34","679c2bb3e12d7ac82c5e484d","","null","<img  src='G_9.jpg' height='90'> <img id='selected'  src='G_7.jpg' height='90'> <img src='G_3.jpg' height='90'> <img src='G_1.jpg' height='90'> <img src='G_5.jpg' height='90'>","null","Animation0",""
"","","","","","html-keyboard-response","21","124977","0.0-13.0","73","1","2025-01-31 01:50:41","af8d355d56820e421d246a7037deb6e6","162.237.52.23","Mozilla/5.0 (Windows NT 10.0; Win64; x64) AppleWebKit/537.36 (KHTML, like Gecko) Chrome/132.0.0.0 Safari/537.36","WebKit","Chrome","132.0.0.0","Windows","10.0","https://app.prolific.com/","en-US,en;q=0.9","66e0ff9d08256be084cd8c81","67949641171f97c04e14fb34","679c2bb3e12d7ac82c5e484d","","null","<img  src='G_9.jpg' height='90'> <img id='selected'  src='G_7.jpg' height='90'> <img id='selected' src='G_3.jpg' height='90'> <img src='G_1.jpg' height='90'> <img src='G_5.jpg' height='90'>","null","Animation0",""
"","","","","","html-keyboard-response","22","125493","0.0-14.0","73","1","2025-01-31 01:50:41","af8d355d56820e421d246a7037deb6e6","162.237.52.23","Mozilla/5.0 (Windows NT 10.0; Win64; x64) AppleWebKit/537.36 (KHTML, like Gecko) Chrome/132.0.0.0 Safari/537.36","WebKit","Chrome","132.0.0.0","Windows","10.0","https://app.prolific.com/","en-US,en;q=0.9","66e0ff9d08256be084cd8c81","67949641171f97c04e14fb34","679c2bb3e12d7ac82c5e484d","","null","<img  src='G_9.jpg' height='90'> <img id='selected'  src='G_7.jpg' height='90'> <img id='selected' src='G_3.jpg' height='90'> <img src='G_1.jpg' height='90'> <img src='G_5.jpg' height='90'>","null","Animation0",""
"","","","","","html-keyboard-response","23","125809","0.0-15.0","73","1","2025-01-31 01:50:41","af8d355d56820e421d246a7037deb6e6","162.237.52.23","Mozilla/5.0 (Windows NT 10.0; Win64; x64) AppleWebKit/537.36 (KHTML, like Gecko) Chrome/132.0.0.0 Safari/537.36","WebKit","Chrome","132.0.0.0","Windows","10.0","https://app.prolific.com/","en-US,en;q=0.9","66e0ff9d08256be084cd8c81","67949641171f97c04e14fb34","679c2bb3e12d7ac82c5e484d","","null","<img  src='G_9.jpg' height='90'> <img   src='G_7.jpg' height='90'> <img  src='G_3.jpg' height='90'> <img src='G_1.jpg' height='90'> <img src='G_5.jpg' height='90'>","null","Animation0",""
"","","","","","html-keyboard-response","24","126325","0.0-16.0","73","1","2025-01-31 01:50:41","af8d355d56820e421d246a7037deb6e6","162.237.52.23","Mozilla/5.0 (Windows NT 10.0; Win64; x64) AppleWebKit/537.36 (KHTML, like Gecko) Chrome/132.0.0.0 Safari/537.36","WebKit","Chrome","132.0.0.0","Windows","10.0","https://app.prolific.com/","en-US,en;q=0.9","66e0ff9d08256be084cd8c81","67949641171f97c04e14fb34","679c2bb3e12d7ac82c5e484d","","null","<img  src='G_9.jpg' height='90'> <img   src='G_7.jpg' height='90'> <img id='selected'  src='G_3.jpg' height='90'> <img src='G_1.jpg' height='90'> <img src='G_5.jpg' height='90'>","null","Animation0",""
"","","","","","html-keyboard-response","25","126848","0.0-17.0","73","1","2025-01-31 01:50:41","af8d355d56820e421d246a7037deb6e6","162.237.52.23","Mozilla/5.0 (Windows NT 10.0; Win64; x64) AppleWebKit/537.36 (KHTML, like Gecko) Chrome/132.0.0.0 Safari/537.36","WebKit","Chrome","132.0.0.0","Windows","10.0","https://app.prolific.com/","en-US,en;q=0.9","66e0ff9d08256be084cd8c81","67949641171f97c04e14fb34","679c2bb3e12d7ac82c5e484d","","null","<img  src='G_9.jpg' height='90'> <img   src='G_7.jpg' height='90'> <img id='selected'  src='G_3.jpg' height='90'> <img id='selected' src='G_1.jpg' height='90'> <img src='G_5.jpg' height='90'>","null","Animation0",""
"","","","","","html-keyboard-response","26","127365","0.0-18.0","73","1","2025-01-31 01:50:41","af8d355d56820e421d246a7037deb6e6","162.237.52.23","Mozilla/5.0 (Windows NT 10.0; Win64; x64) AppleWebKit/537.36 (KHTML, like Gecko) Chrome/132.0.0.0 Safari/537.36","WebKit","Chrome","132.0.0.0","Windows","10.0","https://app.prolific.com/","en-US,en;q=0.9","66e0ff9d08256be084cd8c81","67949641171f97c04e14fb34","679c2bb3e12d7ac82c5e484d","","null","<img  src='G_9.jpg' height='90'> <img   src='G_7.jpg' height='90'> <img id='selected'  src='G_3.jpg' height='90'> <img id='selected' src='G_1.jpg' height='90'> <img src='G_5.jpg' height='90'>","null","Animation0",""
"","","","","","html-keyboard-response","27","127682","0.0-19.0","73","1","2025-01-31 01:50:41","af8d355d56820e421d246a7037deb6e6","162.237.52.23","Mozilla/5.0 (Windows NT 10.0; Win64; x64) AppleWebKit/537.36 (KHTML, like Gecko) Chrome/132.0.0.0 Safari/537.36","WebKit","Chrome","132.0.0.0","Windows","10.0","https://app.prolific.com/","en-US,en;q=0.9","66e0ff9d08256be084cd8c81","67949641171f97c04e14fb34","679c2bb3e12d7ac82c5e484d","","null","<img  src='G_9.jpg' height='90'> <img   src='G_7.jpg' height='90'> <img   src='G_3.jpg' height='90'> <img  src='G_1.jpg' height='90'> <img src='G_5.jpg' height='90'>","null","Animation0",""
"","","","","","html-keyboard-response","28","128200","0.0-20.0","73","1","2025-01-31 01:50:41","af8d355d56820e421d246a7037deb6e6","162.237.52.23","Mozilla/5.0 (Windows NT 10.0; Win64; x64) AppleWebKit/537.36 (KHTML, like Gecko) Chrome/132.0.0.0 Safari/537.36","WebKit","Chrome","132.0.0.0","Windows","10.0","https://app.prolific.com/","en-US,en;q=0.9","66e0ff9d08256be084cd8c81","67949641171f97c04e14fb34","679c2bb3e12d7ac82c5e484d","","null","<img  src='G_9.jpg' height='90'> <img   src='G_7.jpg' height='90'> <img   src='G_3.jpg' height='90'> <img id='selected'  src='G_1.jpg' height='90'> <img src='G_5.jpg' height='90'>","null","Animation0",""
"","","","","","html-keyboard-response","29","128704","0.0-21.0","73","1","2025-01-31 01:50:41","af8d355d56820e421d246a7037deb6e6","162.237.52.23","Mozilla/5.0 (Windows NT 10.0; Win64; x64) AppleWebKit/537.36 (KHTML, like Gecko) Chrome/132.0.0.0 Safari/537.36","WebKit","Chrome","132.0.0.0","Windows","10.0","https://app.prolific.com/","en-US,en;q=0.9","66e0ff9d08256be084cd8c81","67949641171f97c04e14fb34","679c2bb3e12d7ac82c5e484d","","null","<img  src='G_9.jpg' height='90'> <img   src='G_7.jpg' height='90'> <img   src='G_3.jpg' height='90'> <img id='selected'  src='G_1.jpg' height='90'> <img id='selected' src='G_5.jpg' height='90'>","null","Animation0",""
"","","","","","html-keyboard-response","30","129220","0.0-22.0","73","1","2025-01-31 01:50:41","af8d355d56820e421d246a7037deb6e6","162.237.52.23","Mozilla/5.0 (Windows NT 10.0; Win64; x64) AppleWebKit/537.36 (KHTML, like Gecko) Chrome/132.0.0.0 Safari/537.36","WebKit","Chrome","132.0.0.0","Windows","10.0","https://app.prolific.com/","en-US,en;q=0.9","66e0ff9d08256be084cd8c81","67949641171f97c04e14fb34","679c2bb3e12d7ac82c5e484d","","null","<img  src='G_9.jpg' height='90'> <img   src='G_7.jpg' height='90'> <img   src='G_3.jpg' height='90'> <img id='selected'  src='G_1.jpg' height='90'> <img id='selected' src='G_5.jpg' height='90'>","null","Animation0",""
"","","","","","html-keyboard-response","31","129536","0.0-23.0","73","1","2025-01-31 01:50:41","af8d355d56820e421d246a7037deb6e6","162.237.52.23","Mozilla/5.0 (Windows NT 10.0; Win64; x64) AppleWebKit/537.36 (KHTML, like Gecko) Chrome/132.0.0.0 Safari/537.36","WebKit","Chrome","132.0.0.0","Windows","10.0","https://app.prolific.com/","en-US,en;q=0.9","66e0ff9d08256be084cd8c81","67949641171f97c04e14fb34","679c2bb3e12d7ac82c5e484d","","null","<img  src='G_9.jpg' height='90'> <img   src='G_7.jpg' height='90'> <img   src='G_3.jpg' height='90'> <img   src='G_1.jpg' height='90'> <img  src='G_5.jpg' height='90'>","null","Animation0",""
"","","","","","html-keyboard-response","32","132502","0.0-24.0","73","1","2025-01-31 01:50:41","af8d355d56820e421d246a7037deb6e6","162.237.52.23","Mozilla/5.0 (Windows NT 10.0; Win64; x64) AppleWebKit/537.36 (KHTML, like Gecko) Chrome/132.0.0.0 Safari/537.36","WebKit","Chrome","132.0.0.0","Windows","10.0","https://app.prolific.com/","en-US,en;q=0.9","66e0ff9d08256be084cd8c81","67949641171f97c04e14fb34","679c2bb3e12d7ac82c5e484d","","2964","[""Did you notice any patterns? <br><br>Press Enter to watch that example again and follow the steps of Omgne Sort.""]","enter","",""
"","","","","","html-button-response","33","132910","0.0-25.0","73","1","2025-01-31 01:50:41","af8d355d56820e421d246a7037deb6e6","162.237.52.23","Mozilla/5.0 (Windows NT 10.0; Win64; x64) AppleWebKit/537.36 (KHTML, like Gecko) Chrome/132.0.0.0 Safari/537.36","WebKit","Chrome","132.0.0.0","Windows","10.0","https://app.prolific.com/","en-US,en;q=0.9","66e0ff9d08256be084cd8c81","67949641171f97c04e14fb34","679c2bb3e12d7ac82c5e484d","","null","<img id='selected' src='G_7.jpg' height='90'> <img src='G_9.jpg' height='90'> <img src='G_3.jpg' height='90'> <img src='G_1.jpg' height='90'> <img src='G_5.jpg' height='90'>","null","Learning example 0",""
"","","","","","html-button-response","34","133229","0.0-26.0","73","1","2025-01-31 01:50:41","af8d355d56820e421d246a7037deb6e6","162.237.52.23","Mozilla/5.0 (Windows NT 10.0; Win64; x64) AppleWebKit/537.36 (KHTML, like Gecko) Chrome/132.0.0.0 Safari/537.36","WebKit","Chrome","132.0.0.0","Windows","10.0","https://app.prolific.com/","en-US,en;q=0.9","66e0ff9d08256be084cd8c81","67949641171f97c04e14fb34","679c2bb3e12d7ac82c5e484d","","null","<img id='selected' src='G_7.jpg' height='90'> <img id='selected' src='G_9.jpg' height='90'> <img src='G_3.jpg' height='90'> <img src='G_1.jpg' height='90'> <img src='G_5.jpg' height='90'>","null","Learning example 0",""
"","","","","","html-button-response","35","133543","0.0-27.0","73","1","2025-01-31 01:50:41","af8d355d56820e421d246a7037deb6e6","162.237.52.23","Mozilla/5.0 (Windows NT 10.0; Win64; x64) AppleWebKit/537.36 (KHTML, like Gecko) Chrome/132.0.0.0 Safari/537.36","WebKit","Chrome","132.0.0.0","Windows","10.0","https://app.prolific.com/","en-US,en;q=0.9","66e0ff9d08256be084cd8c81","67949641171f97c04e14fb34","679c2bb3e12d7ac82c5e484d","","null","<img id='swapped' src='G_9.jpg' height='90'> <img id='swapped' src='G_7.jpg' height='90'> <img src='G_3.jpg' height='90'> <img src='G_1.jpg' height='90'> <img src='G_5.jpg' height='90'>","null","Learning example 0",""
"","","","","","html-button-response","36","139793","0.0-28.0-0.0-0.0","73","1","2025-01-31 01:50:41","af8d355d56820e421d246a7037deb6e6","162.237.52.23","Mozilla/5.0 (Windows NT 10.0; Win64; x64) AppleWebKit/537.36 (KHTML, like Gecko) Chrome/132.0.0.0 Safari/537.36","WebKit","Chrome","132.0.0.0","Windows","10.0","https://app.prolific.com/","en-US,en;q=0.9","66e0ff9d08256be084cd8c81","67949641171f97c04e14fb34","679c2bb3e12d7ac82c5e484d","","6247","<img id='swapped' src='G_9.jpg' height='90'> <img id='swapped' src='G_7.jpg' height='90'> <img src='G_3.jpg' height='90'> <img src='G_1.jpg' height='90'> <img src='G_5.jpg' height='90'>","0","Learning example 0",""
"","","","","","html-button-response","37","140858","0.0-28.1-0.1-0.1","73","1","2025-01-31 01:50:41","af8d355d56820e421d246a7037deb6e6","162.237.52.23","Mozilla/5.0 (Windows NT 10.0; Win64; x64) AppleWebKit/537.36 (KHTML, like Gecko) Chrome/132.0.0.0 Safari/537.36","WebKit","Chrome","132.0.0.0","Windows","10.0","https://app.prolific.com/","en-US,en;q=0.9","66e0ff9d08256be084cd8c81","67949641171f97c04e14fb34","679c2bb3e12d7ac82c5e484d","","1062","<img id='swapped' src='G_9.jpg' height='90'> <img id='swapped' src='G_7.jpg' height='90'> <img src='G_3.jpg' height='90'> <img src='G_1.jpg' height='90'> <img src='G_5.jpg' height='90'>","1","Learning example 0",""
"","","","","","html-button-response","38","141074","0.0-29.0","73","1","2025-01-31 01:50:41","af8d355d56820e421d246a7037deb6e6","162.237.52.23","Mozilla/5.0 (Windows NT 10.0; Win64; x64) AppleWebKit/537.36 (KHTML, like Gecko) Chrome/132.0.0.0 Safari/537.36","WebKit","Chrome","132.0.0.0","Windows","10.0","https://app.prolific.com/","en-US,en;q=0.9","66e0ff9d08256be084cd8c81","67949641171f97c04e14fb34","679c2bb3e12d7ac82c5e484d","","null","<img  src='G_9.jpg' height='90'> <img  src='G_7.jpg' height='90'> <img src='G_3.jpg' height='90'> <img src='G_1.jpg' height='90'> <img src='G_5.jpg' height='90'>","null","Learning example 0",""
"","","","","","html-button-response","39","141495","0.0-30.0","73","1","2025-01-31 01:50:41","af8d355d56820e421d246a7037deb6e6","162.237.52.23","Mozilla/5.0 (Windows NT 10.0; Win64; x64) AppleWebKit/537.36 (KHTML, like Gecko) Chrome/132.0.0.0 Safari/537.36","WebKit","Chrome","132.0.0.0","Windows","10.0","https://app.prolific.com/","en-US,en;q=0.9","66e0ff9d08256be084cd8c81","67949641171f97c04e14fb34","679c2bb3e12d7ac82c5e484d","","null","<img  src='G_9.jpg' height='90'> <img id='selected'  src='G_7.jpg' height='90'> <img src='G_3.jpg' height='90'> <img src='G_1.jpg' height='90'> <img src='G_5.jpg' height='90'>","null","Learning example 0",""
"","","","","","html-button-response","40","141810","0.0-31.0","73","1","2025-01-31 01:50:41","af8d355d56820e421d246a7037deb6e6","162.237.52.23","Mozilla/5.0 (Windows NT 10.0; Win64; x64) AppleWebKit/537.36 (KHTML, like Gecko) Chrome/132.0.0.0 Safari/537.36","WebKit","Chrome","132.0.0.0","Windows","10.0","https://app.prolific.com/","en-US,en;q=0.9","66e0ff9d08256be084cd8c81","67949641171f97c04e14fb34","679c2bb3e12d7ac82c5e484d","","null","<img  src='G_9.jpg' height='90'> <img id='selected'  src='G_7.jpg' height='90'> <img id='selected' src='G_3.jpg' height='90'> <img src='G_1.jpg' height='90'> <img src='G_5.jpg' height='90'>","null","Learning example 0",""
"","","","","","html-button-response","41","142126","0.0-32.0","73","1","2025-01-31 01:50:41","af8d355d56820e421d246a7037deb6e6","162.237.52.23","Mozilla/5.0 (Windows NT 10.0; Win64; x64) AppleWebKit/537.36 (KHTML, like Gecko) Chrome/132.0.0.0 Safari/537.36","WebKit","Chrome","132.0.0.0","Windows","10.0","https://app.prolific.com/","en-US,en;q=0.9","66e0ff9d08256be084cd8c81","67949641171f97c04e14fb34","679c2bb3e12d7ac82c5e484d","","null","<img  src='G_9.jpg' height='90'> <img id='selected'  src='G_7.jpg' height='90'> <img id='selected' src='G_3.jpg' height='90'> <img src='G_1.jpg' height='90'> <img src='G_5.jpg' height='90'>","null","Learning example 0",""
"","","","","","html-button-response","42","143599","0.0-33.0-0.0-0.0","73","1","2025-01-31 01:50:41","af8d355d56820e421d246a7037deb6e6","162.237.52.23","Mozilla/5.0 (Windows NT 10.0; Win64; x64) AppleWebKit/537.36 (KHTML, like Gecko) Chrome/132.0.0.0 Safari/537.36","WebKit","Chrome","132.0.0.0","Windows","10.0","https://app.prolific.com/","en-US,en;q=0.9","66e0ff9d08256be084cd8c81","67949641171f97c04e14fb34","679c2bb3e12d7ac82c5e484d","","1470","<img  src='G_9.jpg' height='90'> <img id='selected'  src='G_7.jpg' height='90'> <img id='selected' src='G_3.jpg' height='90'> <img src='G_1.jpg' height='90'> <img src='G_5.jpg' height='90'>","1","Learning example 0",""
"","","","","","html-button-response","43","145087","0.0-33.1-0.1-0.1","73","1","2025-01-31 01:50:41","af8d355d56820e421d246a7037deb6e6","162.237.52.23","Mozilla/5.0 (Windows NT 10.0; Win64; x64) AppleWebKit/537.36 (KHTML, like Gecko) Chrome/132.0.0.0 Safari/537.36","WebKit","Chrome","132.0.0.0","Windows","10.0","https://app.prolific.com/","en-US,en;q=0.9","66e0ff9d08256be084cd8c81","67949641171f97c04e14fb34","679c2bb3e12d7ac82c5e484d","","1484","<img  src='G_9.jpg' height='90'> <img id='selected'  src='G_7.jpg' height='90'> <img id='selected' src='G_3.jpg' height='90'> <img src='G_1.jpg' height='90'> <img src='G_5.jpg' height='90'>","2","Learning example 0",""
"","","","","","html-button-response","44","145307","0.0-34.0","73","1","2025-01-31 01:50:41","af8d355d56820e421d246a7037deb6e6","162.237.52.23","Mozilla/5.0 (Windows NT 10.0; Win64; x64) AppleWebKit/537.36 (KHTML, like Gecko) Chrome/132.0.0.0 Safari/537.36","WebKit","Chrome","132.0.0.0","Windows","10.0","https://app.prolific.com/","en-US,en;q=0.9","66e0ff9d08256be084cd8c81","67949641171f97c04e14fb34","679c2bb3e12d7ac82c5e484d","","null","<img  src='G_9.jpg' height='90'> <img   src='G_7.jpg' height='90'> <img  src='G_3.jpg' height='90'> <img src='G_1.jpg' height='90'> <img src='G_5.jpg' height='90'>","null","Learning example 0",""
"","","","","","html-button-response","45","145723","0.0-35.0","73","1","2025-01-31 01:50:41","af8d355d56820e421d246a7037deb6e6","162.237.52.23","Mozilla/5.0 (Windows NT 10.0; Win64; x64) AppleWebKit/537.36 (KHTML, like Gecko) Chrome/132.0.0.0 Safari/537.36","WebKit","Chrome","132.0.0.0","Windows","10.0","https://app.prolific.com/","en-US,en;q=0.9","66e0ff9d08256be084cd8c81","67949641171f97c04e14fb34","679c2bb3e12d7ac82c5e484d","","null","<img  src='G_9.jpg' height='90'> <img   src='G_7.jpg' height='90'> <img id='selected'  src='G_3.jpg' height='90'> <img src='G_1.jpg' height='90'> <img src='G_5.jpg' height='90'>","null","Learning example 0",""
"","","","","","html-button-response","46","146038","0.0-36.0","73","1","2025-01-31 01:50:41","af8d355d56820e421d246a7037deb6e6","162.237.52.23","Mozilla/5.0 (Windows NT 10.0; Win64; x64) AppleWebKit/537.36 (KHTML, like Gecko) Chrome/132.0.0.0 Safari/537.36","WebKit","Chrome","132.0.0.0","Windows","10.0","https://app.prolific.com/","en-US,en;q=0.9","66e0ff9d08256be084cd8c81","67949641171f97c04e14fb34","679c2bb3e12d7ac82c5e484d","","null","<img  src='G_9.jpg' height='90'> <img   src='G_7.jpg' height='90'> <img id='selected'  src='G_3.jpg' height='90'> <img id='selected' src='G_1.jpg' height='90'> <img src='G_5.jpg' height='90'>","null","Learning example 0",""
"","","","","","html-button-response","47","146355","0.0-37.0","73","1","2025-01-31 01:50:41","af8d355d56820e421d246a7037deb6e6","162.237.52.23","Mozilla/5.0 (Windows NT 10.0; Win64; x64) AppleWebKit/537.36 (KHTML, like Gecko) Chrome/132.0.0.0 Safari/537.36","WebKit","Chrome","132.0.0.0","Windows","10.0","https://app.prolific.com/","en-US,en;q=0.9","66e0ff9d08256be084cd8c81","67949641171f97c04e14fb34","679c2bb3e12d7ac82c5e484d","","null","<img  src='G_9.jpg' height='90'> <img   src='G_7.jpg' height='90'> <img id='selected'  src='G_3.jpg' height='90'> <img id='selected' src='G_1.jpg' height='90'> <img src='G_5.jpg' height='90'>","null","Learning example 0",""
"","","","","","html-button-response","48","147010","0.0-38.0-0.0-0.0","73","1","2025-01-31 01:50:41","af8d355d56820e421d246a7037deb6e6","162.237.52.23","Mozilla/5.0 (Windows NT 10.0; Win64; x64) AppleWebKit/537.36 (KHTML, like Gecko) Chrome/132.0.0.0 Safari/537.36","WebKit","Chrome","132.0.0.0","Windows","10.0","https://app.prolific.com/","en-US,en;q=0.9","66e0ff9d08256be084cd8c81","67949641171f97c04e14fb34","679c2bb3e12d7ac82c5e484d","","652","<img  src='G_9.jpg' height='90'> <img   src='G_7.jpg' height='90'> <img id='selected'  src='G_3.jpg' height='90'> <img id='selected' src='G_1.jpg' height='90'> <img src='G_5.jpg' height='90'>","2","Learning example 0",""
"","","","","","html-button-response","49","148114","0.0-38.1-0.1-0.1","73","1","2025-01-31 01:50:41","af8d355d56820e421d246a7037deb6e6","162.237.52.23","Mozilla/5.0 (Windows NT 10.0; Win64; x64) AppleWebKit/537.36 (KHTML, like Gecko) Chrome/132.0.0.0 Safari/537.36","WebKit","Chrome","132.0.0.0","Windows","10.0","https://app.prolific.com/","en-US,en;q=0.9","66e0ff9d08256be084cd8c81","67949641171f97c04e14fb34","679c2bb3e12d7ac82c5e484d","","1099","<img  src='G_9.jpg' height='90'> <img   src='G_7.jpg' height='90'> <img id='selected'  src='G_3.jpg' height='90'> <img id='selected' src='G_1.jpg' height='90'> <img src='G_5.jpg' height='90'>","3","Learning example 0",""
"","","","","","html-button-response","50","148328","0.0-39.0","73","1","2025-01-31 01:50:41","af8d355d56820e421d246a7037deb6e6","162.237.52.23","Mozilla/5.0 (Windows NT 10.0; Win64; x64) AppleWebKit/537.36 (KHTML, like Gecko) Chrome/132.0.0.0 Safari/537.36","WebKit","Chrome","132.0.0.0","Windows","10.0","https://app.prolific.com/","en-US,en;q=0.9","66e0ff9d08256be084cd8c81","67949641171f97c04e14fb34","679c2bb3e12d7ac82c5e484d","","null","<img  src='G_9.jpg' height='90'> <img   src='G_7.jpg' height='90'> <img   src='G_3.jpg' height='90'> <img  src='G_1.jpg' height='90'> <img src='G_5.jpg' height='90'>","null","Learning example 0",""
"","","","","","html-button-response","51","148744","0.0-40.0","73","1","2025-01-31 01:50:41","af8d355d56820e421d246a7037deb6e6","162.237.52.23","Mozilla/5.0 (Windows NT 10.0; Win64; x64) AppleWebKit/537.36 (KHTML, like Gecko) Chrome/132.0.0.0 Safari/537.36","WebKit","Chrome","132.0.0.0","Windows","10.0","https://app.prolific.com/","en-US,en;q=0.9","66e0ff9d08256be084cd8c81","67949641171f97c04e14fb34","679c2bb3e12d7ac82c5e484d","","null","<img  src='G_9.jpg' height='90'> <img   src='G_7.jpg' height='90'> <img   src='G_3.jpg' height='90'> <img id='selected'  src='G_1.jpg' height='90'> <img src='G_5.jpg' height='90'>","null","Learning example 0",""
"","","","","","html-button-response","52","149063","0.0-41.0","73","1","2025-01-31 01:50:41","af8d355d56820e421d246a7037deb6e6","162.237.52.23","Mozilla/5.0 (Windows NT 10.0; Win64; x64) AppleWebKit/537.36 (KHTML, like Gecko) Chrome/132.0.0.0 Safari/537.36","WebKit","Chrome","132.0.0.0","Windows","10.0","https://app.prolific.com/","en-US,en;q=0.9","66e0ff9d08256be084cd8c81","67949641171f97c04e14fb34","679c2bb3e12d7ac82c5e484d","","null","<img  src='G_9.jpg' height='90'> <img   src='G_7.jpg' height='90'> <img   src='G_3.jpg' height='90'> <img id='selected'  src='G_1.jpg' height='90'> <img id='selected' src='G_5.jpg' height='90'>","null","Learning example 0",""
"","","","","","html-button-response","53","149366","0.0-42.0","73","1","2025-01-31 01:50:41","af8d355d56820e421d246a7037deb6e6","162.237.52.23","Mozilla/5.0 (Windows NT 10.0; Win64; x64) AppleWebKit/537.36 (KHTML, like Gecko) Chrome/132.0.0.0 Safari/537.36","WebKit","Chrome","132.0.0.0","Windows","10.0","https://app.prolific.com/","en-US,en;q=0.9","66e0ff9d08256be084cd8c81","67949641171f97c04e14fb34","679c2bb3e12d7ac82c5e484d","","null","<img  src='G_9.jpg' height='90'> <img   src='G_7.jpg' height='90'> <img   src='G_3.jpg' height='90'> <img id='selected'  src='G_1.jpg' height='90'> <img id='selected' src='G_5.jpg' height='90'>","null","Learning example 0",""
"","","","","","html-button-response","54","149918","0.0-43.0-0.0-0.0","73","1","2025-01-31 01:50:41","af8d355d56820e421d246a7037deb6e6","162.237.52.23","Mozilla/5.0 (Windows NT 10.0; Win64; x64) AppleWebKit/537.36 (KHTML, like Gecko) Chrome/132.0.0.0 Safari/537.36","WebKit","Chrome","132.0.0.0","Windows","10.0","https://app.prolific.com/","en-US,en;q=0.9","66e0ff9d08256be084cd8c81","67949641171f97c04e14fb34","679c2bb3e12d7ac82c5e484d","","550","<img  src='G_9.jpg' height='90'> <img   src='G_7.jpg' height='90'> <img   src='G_3.jpg' height='90'> <img id='selected'  src='G_1.jpg' height='90'> <img id='selected' src='G_5.jpg' height='90'>","3","Learning example 0",""
"","","","","","html-button-response","55","151657","0.0-43.1-0.1-0.1","73","1","2025-01-31 01:50:41","af8d355d56820e421d246a7037deb6e6","162.237.52.23","Mozilla/5.0 (Windows NT 10.0; Win64; x64) AppleWebKit/537.36 (KHTML, like Gecko) Chrome/132.0.0.0 Safari/537.36","WebKit","Chrome","132.0.0.0","Windows","10.0","https://app.prolific.com/","en-US,en;q=0.9","66e0ff9d08256be084cd8c81","67949641171f97c04e14fb34","679c2bb3e12d7ac82c5e484d","","1736","<img  src='G_9.jpg' height='90'> <img   src='G_7.jpg' height='90'> <img   src='G_3.jpg' height='90'> <img id='selected'  src='G_1.jpg' height='90'> <img id='selected' src='G_5.jpg' height='90'>","4","Learning example 0",""
"","","","","","html-button-response","56","151871","0.0-44.0","73","1","2025-01-31 01:50:41","af8d355d56820e421d246a7037deb6e6","162.237.52.23","Mozilla/5.0 (Windows NT 10.0; Win64; x64) AppleWebKit/537.36 (KHTML, like Gecko) Chrome/132.0.0.0 Safari/537.36","WebKit","Chrome","132.0.0.0","Windows","10.0","https://app.prolific.com/","en-US,en;q=0.9","66e0ff9d08256be084cd8c81","67949641171f97c04e14fb34","679c2bb3e12d7ac82c5e484d","","null","<img  src='G_9.jpg' height='90'> <img   src='G_7.jpg' height='90'> <img   src='G_3.jpg' height='90'> <img   src='G_1.jpg' height='90'> <img  src='G_5.jpg' height='90'>","null","Learning example 0",""
"","","","","","html-keyboard-response","57","157513","0.0-45.0","73","1","2025-01-31 01:50:41","af8d355d56820e421d246a7037deb6e6","162.237.52.23","Mozilla/5.0 (Windows NT 10.0; Win64; x64) AppleWebKit/537.36 (KHTML, like Gecko) Chrome/132.0.0.0 Safari/537.36","WebKit","Chrome","132.0.0.0","Windows","10.0","https://app.prolific.com/","en-US,en;q=0.9","66e0ff9d08256be084cd8c81","67949641171f97c04e14fb34","679c2bb3e12d7ac82c5e484d","","5639","[""Final order was 1,2,3,4,5. The initial order was 2,1,3,4,5.<br>It took 1 swaps to sort it correctly with Omgne Sort. <br><br>Press Enter to continue.""]","enter","",""
"","","","","","html-keyboard-response","58","161184","0.0-46.0","73","1","2025-01-31 01:50:41","af8d355d56820e421d246a7037deb6e6","162.237.52.23","Mozilla/5.0 (Windows NT 10.0; Win64; x64) AppleWebKit/537.36 (KHTML, like Gecko) Chrome/132.0.0.0 Safari/537.36","WebKit","Chrome","132.0.0.0","Windows","10.0","https://app.prolific.com/","en-US,en;q=0.9","66e0ff9d08256be084cd8c81","67949641171f97c04e14fb34","679c2bb3e12d7ac82c5e484d","","3669","[""Example 2<br><br>You will watch Omnge Sort in action. Try to identify any patterns in the comparisons made by this method. <br><br>Press Enter to continue.""]","enter","",""
"","","","","","html-keyboard-response","59","161697","0.0-47.0","73","1","2025-01-31 01:50:41","af8d355d56820e421d246a7037deb6e6","162.237.52.23","Mozilla/5.0 (Windows NT 10.0; Win64; x64) AppleWebKit/537.36 (KHTML, like Gecko) Chrome/132.0.0.0 Safari/537.36","WebKit","Chrome","132.0.0.0","Windows","10.0","https://app.prolific.com/","en-US,en;q=0.9","66e0ff9d08256be084cd8c81","67949641171f97c04e14fb34","679c2bb3e12d7ac82c5e484d","","null","<img id='selected' src='G_7.jpg' height='90'> <img src='G_4.jpg' height='90'> <img src='G_3.jpg' height='90'> <img src='G_8.jpg' height='90'> <img src='G_5.jpg' height='90'> <img src='G_1.jpg' height='90'> <img src='G_6.jpg' height='90'> <img src='G_2.jpg' height='90'>","null","Animation1",""
"","","","","","html-keyboard-response","60","162213","0.0-48.0","73","1","2025-01-31 01:50:41","af8d355d56820e421d246a7037deb6e6","162.237.52.23","Mozilla/5.0 (Windows NT 10.0; Win64; x64) AppleWebKit/537.36 (KHTML, like Gecko) Chrome/132.0.0.0 Safari/537.36","WebKit","Chrome","132.0.0.0","Windows","10.0","https://app.prolific.com/","en-US,en;q=0.9","66e0ff9d08256be084cd8c81","67949641171f97c04e14fb34","679c2bb3e12d7ac82c5e484d","","null","<img id='selected' src='G_7.jpg' height='90'> <img id='selected' src='G_4.jpg' height='90'> <img src='G_3.jpg' height='90'> <img src='G_8.jpg' height='90'> <img src='G_5.jpg' height='90'> <img src='G_1.jpg' height='90'> <img src='G_6.jpg' height='90'> <img src='G_2.jpg' height='90'>","null","Animation1",""
"","","","","","html-keyboard-response","61","162720","0.0-49.0","73","1","2025-01-31 01:50:41","af8d355d56820e421d246a7037deb6e6","162.237.52.23","Mozilla/5.0 (Windows NT 10.0; Win64; x64) AppleWebKit/537.36 (KHTML, like Gecko) Chrome/132.0.0.0 Safari/537.36","WebKit","Chrome","132.0.0.0","Windows","10.0","https://app.prolific.com/","en-US,en;q=0.9","66e0ff9d08256be084cd8c81","67949641171f97c04e14fb34","679c2bb3e12d7ac82c5e484d","","null","<img id='selected' src='G_7.jpg' height='90'> <img id='selected' src='G_4.jpg' height='90'> <img src='G_3.jpg' height='90'> <img src='G_8.jpg' height='90'> <img src='G_5.jpg' height='90'> <img src='G_1.jpg' height='90'> <img src='G_6.jpg' height='90'> <img src='G_2.jpg' height='90'>","null","Animation1",""
"","","","","","html-keyboard-response","62","163025","0.0-50.0","73","1","2025-01-31 01:50:41","af8d355d56820e421d246a7037deb6e6","162.237.52.23","Mozilla/5.0 (Windows NT 10.0; Win64; x64) AppleWebKit/537.36 (KHTML, like Gecko) Chrome/132.0.0.0 Safari/537.36","WebKit","Chrome","132.0.0.0","Windows","10.0","https://app.prolific.com/","en-US,en;q=0.9","66e0ff9d08256be084cd8c81","67949641171f97c04e14fb34","679c2bb3e12d7ac82c5e484d","","null","<img  src='G_7.jpg' height='90'> <img  src='G_4.jpg' height='90'> <img src='G_3.jpg' height='90'> <img src='G_8.jpg' height='90'> <img src='G_5.jpg' height='90'> <img src='G_1.jpg' height='90'> <img src='G_6.jpg' height='90'> <img src='G_2.jpg' height='90'>","null","Animation1",""
"","","","","","html-keyboard-response","63","163532","0.0-51.0","73","1","2025-01-31 01:50:41","af8d355d56820e421d246a7037deb6e6","162.237.52.23","Mozilla/5.0 (Windows NT 10.0; Win64; x64) AppleWebKit/537.36 (KHTML, like Gecko) Chrome/132.0.0.0 Safari/537.36","WebKit","Chrome","132.0.0.0","Windows","10.0","https://app.prolific.com/","en-US,en;q=0.9","66e0ff9d08256be084cd8c81","67949641171f97c04e14fb34","679c2bb3e12d7ac82c5e484d","","null","<img  src='G_7.jpg' height='90'> <img id='selected'  src='G_4.jpg' height='90'> <img src='G_3.jpg' height='90'> <img src='G_8.jpg' height='90'> <img src='G_5.jpg' height='90'> <img src='G_1.jpg' height='90'> <img src='G_6.jpg' height='90'> <img src='G_2.jpg' height='90'>","null","Animation1",""
"","","","","","html-keyboard-response","64","164041","0.0-52.0","73","1","2025-01-31 01:50:41","af8d355d56820e421d246a7037deb6e6","162.237.52.23","Mozilla/5.0 (Windows NT 10.0; Win64; x64) AppleWebKit/537.36 (KHTML, like Gecko) Chrome/132.0.0.0 Safari/537.36","WebKit","Chrome","132.0.0.0","Windows","10.0","https://app.prolific.com/","en-US,en;q=0.9","66e0ff9d08256be084cd8c81","67949641171f97c04e14fb34","679c2bb3e12d7ac82c5e484d","","null","<img  src='G_7.jpg' height='90'> <img id='selected'  src='G_4.jpg' height='90'> <img id='selected' src='G_3.jpg' height='90'> <img src='G_8.jpg' height='90'> <img src='G_5.jpg' height='90'> <img src='G_1.jpg' height='90'> <img src='G_6.jpg' height='90'> <img src='G_2.jpg' height='90'>","null","Animation1",""
"","","","","","html-keyboard-response","65","164555","0.0-53.0","73","1","2025-01-31 01:50:41","af8d355d56820e421d246a7037deb6e6","162.237.52.23","Mozilla/5.0 (Windows NT 10.0; Win64; x64) AppleWebKit/537.36 (KHTML, like Gecko) Chrome/132.0.0.0 Safari/537.36","WebKit","Chrome","132.0.0.0","Windows","10.0","https://app.prolific.com/","en-US,en;q=0.9","66e0ff9d08256be084cd8c81","67949641171f97c04e14fb34","679c2bb3e12d7ac82c5e484d","","null","<img  src='G_7.jpg' height='90'> <img id='swapped' src='G_3.jpg' height='90'> <img id='swapped'  src='G_4.jpg' height='90'> <img src='G_8.jpg' height='90'> <img src='G_5.jpg' height='90'> <img src='G_1.jpg' height='90'> <img src='G_6.jpg' height='90'> <img src='G_2.jpg' height='90'>","null","Animation1",""
"","","","","","html-keyboard-response","66","164861","0.0-54.0","73","1","2025-01-31 01:50:41","af8d355d56820e421d246a7037deb6e6","162.237.52.23","Mozilla/5.0 (Windows NT 10.0; Win64; x64) AppleWebKit/537.36 (KHTML, like Gecko) Chrome/132.0.0.0 Safari/537.36","WebKit","Chrome","132.0.0.0","Windows","10.0","https://app.prolific.com/","en-US,en;q=0.9","66e0ff9d08256be084cd8c81","67949641171f97c04e14fb34","679c2bb3e12d7ac82c5e484d","","null","<img  src='G_7.jpg' height='90'> <img  src='G_3.jpg' height='90'> <img   src='G_4.jpg' height='90'> <img src='G_8.jpg' height='90'> <img src='G_5.jpg' height='90'> <img src='G_1.jpg' height='90'> <img src='G_6.jpg' height='90'> <img src='G_2.jpg' height='90'>","null","Animation1",""
"","","","","","html-keyboard-response","67","165377","0.0-55.0","73","1","2025-01-31 01:50:41","af8d355d56820e421d246a7037deb6e6","162.237.52.23","Mozilla/5.0 (Windows NT 10.0; Win64; x64) AppleWebKit/537.36 (KHTML, like Gecko) Chrome/132.0.0.0 Safari/537.36","WebKit","Chrome","132.0.0.0","Windows","10.0","https://app.prolific.com/","en-US,en;q=0.9","66e0ff9d08256be084cd8c81","67949641171f97c04e14fb34","679c2bb3e12d7ac82c5e484d","","null","<img id='selected'  src='G_7.jpg' height='90'> <img  src='G_3.jpg' height='90'> <img   src='G_4.jpg' height='90'> <img src='G_8.jpg' height='90'> <img src='G_5.jpg' height='90'> <img src='G_1.jpg' height='90'> <img src='G_6.jpg' height='90'> <img src='G_2.jpg' height='90'>","null","Animation1",""
"","","","","","html-keyboard-response","68","165891","0.0-56.0","73","1","2025-01-31 01:50:41","af8d355d56820e421d246a7037deb6e6","162.237.52.23","Mozilla/5.0 (Windows NT 10.0; Win64; x64) AppleWebKit/537.36 (KHTML, like Gecko) Chrome/132.0.0.0 Safari/537.36","WebKit","Chrome","132.0.0.0","Windows","10.0","https://app.prolific.com/","en-US,en;q=0.9","66e0ff9d08256be084cd8c81","67949641171f97c04e14fb34","679c2bb3e12d7ac82c5e484d","","null","<img id='selected'  src='G_7.jpg' height='90'> <img id='selected'  src='G_3.jpg' height='90'> <img   src='G_4.jpg' height='90'> <img src='G_8.jpg' height='90'> <img src='G_5.jpg' height='90'> <img src='G_1.jpg' height='90'> <img src='G_6.jpg' height='90'> <img src='G_2.jpg' height='90'>","null","Animation1",""
"","","","","","html-keyboard-response","69","166396","0.0-57.0","73","1","2025-01-31 01:50:41","af8d355d56820e421d246a7037deb6e6","162.237.52.23","Mozilla/5.0 (Windows NT 10.0; Win64; x64) AppleWebKit/537.36 (KHTML, like Gecko) Chrome/132.0.0.0 Safari/537.36","WebKit","Chrome","132.0.0.0","Windows","10.0","https://app.prolific.com/","en-US,en;q=0.9","66e0ff9d08256be084cd8c81","67949641171f97c04e14fb34","679c2bb3e12d7ac82c5e484d","","null","<img id='swapped'  src='G_3.jpg' height='90'> <img id='swapped'  src='G_7.jpg' height='90'> <img   src='G_4.jpg' height='90'> <img src='G_8.jpg' height='90'> <img src='G_5.jpg' height='90'> <img src='G_1.jpg' height='90'> <img src='G_6.jpg' height='90'> <img src='G_2.jpg' height='90'>","null","Animation1",""
"","","","","","html-keyboard-response","70","166715","0.0-58.0","73","1","2025-01-31 01:50:41","af8d355d56820e421d246a7037deb6e6","162.237.52.23","Mozilla/5.0 (Windows NT 10.0; Win64; x64) AppleWebKit/537.36 (KHTML, like Gecko) Chrome/132.0.0.0 Safari/537.36","WebKit","Chrome","132.0.0.0","Windows","10.0","https://app.prolific.com/","en-US,en;q=0.9","66e0ff9d08256be084cd8c81","67949641171f97c04e14fb34","679c2bb3e12d7ac82c5e484d","","null","<img   src='G_3.jpg' height='90'> <img   src='G_7.jpg' height='90'> <img   src='G_4.jpg' height='90'> <img src='G_8.jpg' height='90'> <img src='G_5.jpg' height='90'> <img src='G_1.jpg' height='90'> <img src='G_6.jpg' height='90'> <img src='G_2.jpg' height='90'>","null","Animation1",""
"","","","","","html-keyboard-response","71","167225","0.0-59.0","73","1","2025-01-31 01:50:41","af8d355d56820e421d246a7037deb6e6","162.237.52.23","Mozilla/5.0 (Windows NT 10.0; Win64; x64) AppleWebKit/537.36 (KHTML, like Gecko) Chrome/132.0.0.0 Safari/537.36","WebKit","Chrome","132.0.0.0","Windows","10.0","https://app.prolific.com/","en-US,en;q=0.9","66e0ff9d08256be084cd8c81","67949641171f97c04e14fb34","679c2bb3e12d7ac82c5e484d","","null","<img   src='G_3.jpg' height='90'> <img   src='G_7.jpg' height='90'> <img id='selected'   src='G_4.jpg' height='90'> <img src='G_8.jpg' height='90'> <img src='G_5.jpg' height='90'> <img src='G_1.jpg' height='90'> <img src='G_6.jpg' height='90'> <img src='G_2.jpg' height='90'>","null","Animation1",""
"","","","","","html-keyboard-response","72","167728","0.0-60.0","73","1","2025-01-31 01:50:41","af8d355d56820e421d246a7037deb6e6","162.237.52.23","Mozilla/5.0 (Windows NT 10.0; Win64; x64) AppleWebKit/537.36 (KHTML, like Gecko) Chrome/132.0.0.0 Safari/537.36","WebKit","Chrome","132.0.0.0","Windows","10.0","https://app.prolific.com/","en-US,en;q=0.9","66e0ff9d08256be084cd8c81","67949641171f97c04e14fb34","679c2bb3e12d7ac82c5e484d","","null","<img   src='G_3.jpg' height='90'> <img   src='G_7.jpg' height='90'> <img id='selected'   src='G_4.jpg' height='90'> <img id='selected' src='G_8.jpg' height='90'> <img src='G_5.jpg' height='90'> <img src='G_1.jpg' height='90'> <img src='G_6.jpg' height='90'> <img src='G_2.jpg' height='90'>","null","Animation1",""
"","","","","","html-keyboard-response","73","168245","0.0-61.0","73","1","2025-01-31 01:50:41","af8d355d56820e421d246a7037deb6e6","162.237.52.23","Mozilla/5.0 (Windows NT 10.0; Win64; x64) AppleWebKit/537.36 (KHTML, like Gecko) Chrome/132.0.0.0 Safari/537.36","WebKit","Chrome","132.0.0.0","Windows","10.0","https://app.prolific.com/","en-US,en;q=0.9","66e0ff9d08256be084cd8c81","67949641171f97c04e14fb34","679c2bb3e12d7ac82c5e484d","","null","<img   src='G_3.jpg' height='90'> <img   src='G_7.jpg' height='90'> <img id='swapped' src='G_8.jpg' height='90'> <img id='swapped'   src='G_4.jpg' height='90'> <img src='G_5.jpg' height='90'> <img src='G_1.jpg' height='90'> <img src='G_6.jpg' height='90'> <img src='G_2.jpg' height='90'>","null","Animation1",""
"","","","","","html-keyboard-response","74","168567","0.0-62.0","73","1","2025-01-31 01:50:41","af8d355d56820e421d246a7037deb6e6","162.237.52.23","Mozilla/5.0 (Windows NT 10.0; Win64; x64) AppleWebKit/537.36 (KHTML, like Gecko) Chrome/132.0.0.0 Safari/537.36","WebKit","Chrome","132.0.0.0","Windows","10.0","https://app.prolific.com/","en-US,en;q=0.9","66e0ff9d08256be084cd8c81","67949641171f97c04e14fb34","679c2bb3e12d7ac82c5e484d","","null","<img   src='G_3.jpg' height='90'> <img   src='G_7.jpg' height='90'> <img  src='G_8.jpg' height='90'> <img    src='G_4.jpg' height='90'> <img src='G_5.jpg' height='90'> <img src='G_1.jpg' height='90'> <img src='G_6.jpg' height='90'> <img src='G_2.jpg' height='90'>","null","Animation1",""
"","","","","","html-keyboard-response","75","169083","0.0-63.0","73","1","2025-01-31 01:50:41","af8d355d56820e421d246a7037deb6e6","162.237.52.23","Mozilla/5.0 (Windows NT 10.0; Win64; x64) AppleWebKit/537.36 (KHTML, like Gecko) Chrome/132.0.0.0 Safari/537.36","WebKit","Chrome","132.0.0.0","Windows","10.0","https://app.prolific.com/","en-US,en;q=0.9","66e0ff9d08256be084cd8c81","67949641171f97c04e14fb34","679c2bb3e12d7ac82c5e484d","","null","<img   src='G_3.jpg' height='90'> <img id='selected'   src='G_7.jpg' height='90'> <img  src='G_8.jpg' height='90'> <img    src='G_4.jpg' height='90'> <img src='G_5.jpg' height='90'> <img src='G_1.jpg' height='90'> <img src='G_6.jpg' height='90'> <img src='G_2.jpg' height='90'>","null","Animation1",""
"","","","","","html-keyboard-response","76","169601","0.0-64.0","73","1","2025-01-31 01:50:41","af8d355d56820e421d246a7037deb6e6","162.237.52.23","Mozilla/5.0 (Windows NT 10.0; Win64; x64) AppleWebKit/537.36 (KHTML, like Gecko) Chrome/132.0.0.0 Safari/537.36","WebKit","Chrome","132.0.0.0","Windows","10.0","https://app.prolific.com/","en-US,en;q=0.9","66e0ff9d08256be084cd8c81","67949641171f97c04e14fb34","679c2bb3e12d7ac82c5e484d","","null","<img   src='G_3.jpg' height='90'> <img id='selected'   src='G_7.jpg' height='90'> <img id='selected'  src='G_8.jpg' height='90'> <img    src='G_4.jpg' height='90'> <img src='G_5.jpg' height='90'> <img src='G_1.jpg' height='90'> <img src='G_6.jpg' height='90'> <img src='G_2.jpg' height='90'>","null","Animation1",""
"","","","","","html-keyboard-response","77","170117","0.0-65.0","73","1","2025-01-31 01:50:41","af8d355d56820e421d246a7037deb6e6","162.237.52.23","Mozilla/5.0 (Windows NT 10.0; Win64; x64) AppleWebKit/537.36 (KHTML, like Gecko) Chrome/132.0.0.0 Safari/537.36","WebKit","Chrome","132.0.0.0","Windows","10.0","https://app.prolific.com/","en-US,en;q=0.9","66e0ff9d08256be084cd8c81","67949641171f97c04e14fb34","679c2bb3e12d7ac82c5e484d","","null","<img   src='G_3.jpg' height='90'> <img id='swapped'  src='G_8.jpg' height='90'> <img id='swapped'   src='G_7.jpg' height='90'> <img    src='G_4.jpg' height='90'> <img src='G_5.jpg' height='90'> <img src='G_1.jpg' height='90'> <img src='G_6.jpg' height='90'> <img src='G_2.jpg' height='90'>","null","Animation1",""
"","","","","","html-keyboard-response","78","170440","0.0-66.0","73","1","2025-01-31 01:50:41","af8d355d56820e421d246a7037deb6e6","162.237.52.23","Mozilla/5.0 (Windows NT 10.0; Win64; x64) AppleWebKit/537.36 (KHTML, like Gecko) Chrome/132.0.0.0 Safari/537.36","WebKit","Chrome","132.0.0.0","Windows","10.0","https://app.prolific.com/","en-US,en;q=0.9","66e0ff9d08256be084cd8c81","67949641171f97c04e14fb34","679c2bb3e12d7ac82c5e484d","","null","<img   src='G_3.jpg' height='90'> <img   src='G_8.jpg' height='90'> <img    src='G_7.jpg' height='90'> <img    src='G_4.jpg' height='90'> <img src='G_5.jpg' height='90'> <img src='G_1.jpg' height='90'> <img src='G_6.jpg' height='90'> <img src='G_2.jpg' height='90'>","null","Animation1",""
"","","","","","html-keyboard-response","79","170956","0.0-67.0","73","1","2025-01-31 01:50:41","af8d355d56820e421d246a7037deb6e6","162.237.52.23","Mozilla/5.0 (Windows NT 10.0; Win64; x64) AppleWebKit/537.36 (KHTML, like Gecko) Chrome/132.0.0.0 Safari/537.36","WebKit","Chrome","132.0.0.0","Windows","10.0","https://app.prolific.com/","en-US,en;q=0.9","66e0ff9d08256be084cd8c81","67949641171f97c04e14fb34","679c2bb3e12d7ac82c5e484d","","null","<img id='selected'   src='G_3.jpg' height='90'> <img   src='G_8.jpg' height='90'> <img    src='G_7.jpg' height='90'> <img    src='G_4.jpg' height='90'> <img src='G_5.jpg' height='90'> <img src='G_1.jpg' height='90'> <img src='G_6.jpg' height='90'> <img src='G_2.jpg' height='90'>","null","Animation1",""
"","","","","","html-keyboard-response","80","171475","0.0-68.0","73","1","2025-01-31 01:50:41","af8d355d56820e421d246a7037deb6e6","162.237.52.23","Mozilla/5.0 (Windows NT 10.0; Win64; x64) AppleWebKit/537.36 (KHTML, like Gecko) Chrome/132.0.0.0 Safari/537.36","WebKit","Chrome","132.0.0.0","Windows","10.0","https://app.prolific.com/","en-US,en;q=0.9","66e0ff9d08256be084cd8c81","67949641171f97c04e14fb34","679c2bb3e12d7ac82c5e484d","","null","<img id='selected'   src='G_3.jpg' height='90'> <img id='selected'   src='G_8.jpg' height='90'> <img    src='G_7.jpg' height='90'> <img    src='G_4.jpg' height='90'> <img src='G_5.jpg' height='90'> <img src='G_1.jpg' height='90'> <img src='G_6.jpg' height='90'> <img src='G_2.jpg' height='90'>","null","Animation1",""
"","","","","","html-keyboard-response","81","171992","0.0-69.0","73","1","2025-01-31 01:50:41","af8d355d56820e421d246a7037deb6e6","162.237.52.23","Mozilla/5.0 (Windows NT 10.0; Win64; x64) AppleWebKit/537.36 (KHTML, like Gecko) Chrome/132.0.0.0 Safari/537.36","WebKit","Chrome","132.0.0.0","Windows","10.0","https://app.prolific.com/","en-US,en;q=0.9","66e0ff9d08256be084cd8c81","67949641171f97c04e14fb34","679c2bb3e12d7ac82c5e484d","","null","<img id='swapped'   src='G_8.jpg' height='90'> <img id='swapped'   src='G_3.jpg' height='90'> <img    src='G_7.jpg' height='90'> <img    src='G_4.jpg' height='90'> <img src='G_5.jpg' height='90'> <img src='G_1.jpg' height='90'> <img src='G_6.jpg' height='90'> <img src='G_2.jpg' height='90'>","null","Animation1",""
"","","","","","html-keyboard-response","82","172308","0.0-70.0","73","1","2025-01-31 01:50:41","af8d355d56820e421d246a7037deb6e6","162.237.52.23","Mozilla/5.0 (Windows NT 10.0; Win64; x64) AppleWebKit/537.36 (KHTML, like Gecko) Chrome/132.0.0.0 Safari/537.36","WebKit","Chrome","132.0.0.0","Windows","10.0","https://app.prolific.com/","en-US,en;q=0.9","66e0ff9d08256be084cd8c81","67949641171f97c04e14fb34","679c2bb3e12d7ac82c5e484d","","null","<img    src='G_8.jpg' height='90'> <img    src='G_3.jpg' height='90'> <img    src='G_7.jpg' height='90'> <img    src='G_4.jpg' height='90'> <img src='G_5.jpg' height='90'> <img src='G_1.jpg' height='90'> <img src='G_6.jpg' height='90'> <img src='G_2.jpg' height='90'>","null","Animation1",""
"","","","","","html-keyboard-response","83","172814","0.0-71.0","73","1","2025-01-31 01:50:41","af8d355d56820e421d246a7037deb6e6","162.237.52.23","Mozilla/5.0 (Windows NT 10.0; Win64; x64) AppleWebKit/537.36 (KHTML, like Gecko) Chrome/132.0.0.0 Safari/537.36","WebKit","Chrome","132.0.0.0","Windows","10.0","https://app.prolific.com/","en-US,en;q=0.9","66e0ff9d08256be084cd8c81","67949641171f97c04e14fb34","679c2bb3e12d7ac82c5e484d","","null","<img    src='G_8.jpg' height='90'> <img    src='G_3.jpg' height='90'> <img    src='G_7.jpg' height='90'> <img id='selected'    src='G_4.jpg' height='90'> <img src='G_5.jpg' height='90'> <img src='G_1.jpg' height='90'> <img src='G_6.jpg' height='90'> <img src='G_2.jpg' height='90'>","null","Animation1",""
"","","","","","html-keyboard-response","84","173331","0.0-72.0","73","1","2025-01-31 01:50:41","af8d355d56820e421d246a7037deb6e6","162.237.52.23","Mozilla/5.0 (Windows NT 10.0; Win64; x64) AppleWebKit/537.36 (KHTML, like Gecko) Chrome/132.0.0.0 Safari/537.36","WebKit","Chrome","132.0.0.0","Windows","10.0","https://app.prolific.com/","en-US,en;q=0.9","66e0ff9d08256be084cd8c81","67949641171f97c04e14fb34","679c2bb3e12d7ac82c5e484d","","null","<img    src='G_8.jpg' height='90'> <img    src='G_3.jpg' height='90'> <img    src='G_7.jpg' height='90'> <img id='selected'    src='G_4.jpg' height='90'> <img id='selected' src='G_5.jpg' height='90'> <img src='G_1.jpg' height='90'> <img src='G_6.jpg' height='90'> <img src='G_2.jpg' height='90'>","null","Animation1",""
"","","","","","html-keyboard-response","85","173847","0.0-73.0","73","1","2025-01-31 01:50:41","af8d355d56820e421d246a7037deb6e6","162.237.52.23","Mozilla/5.0 (Windows NT 10.0; Win64; x64) AppleWebKit/537.36 (KHTML, like Gecko) Chrome/132.0.0.0 Safari/537.36","WebKit","Chrome","132.0.0.0","Windows","10.0","https://app.prolific.com/","en-US,en;q=0.9","66e0ff9d08256be084cd8c81","67949641171f97c04e14fb34","679c2bb3e12d7ac82c5e484d","","null","<img    src='G_8.jpg' height='90'> <img    src='G_3.jpg' height='90'> <img    src='G_7.jpg' height='90'> <img id='swapped' src='G_5.jpg' height='90'> <img id='swapped'    src='G_4.jpg' height='90'> <img src='G_1.jpg' height='90'> <img src='G_6.jpg' height='90'> <img src='G_2.jpg' height='90'>","null","Animation1",""
"","","","","","html-keyboard-response","86","174161","0.0-74.0","73","1","2025-01-31 01:50:41","af8d355d56820e421d246a7037deb6e6","162.237.52.23","Mozilla/5.0 (Windows NT 10.0; Win64; x64) AppleWebKit/537.36 (KHTML, like Gecko) Chrome/132.0.0.0 Safari/537.36","WebKit","Chrome","132.0.0.0","Windows","10.0","https://app.prolific.com/","en-US,en;q=0.9","66e0ff9d08256be084cd8c81","67949641171f97c04e14fb34","679c2bb3e12d7ac82c5e484d","","null","<img    src='G_8.jpg' height='90'> <img    src='G_3.jpg' height='90'> <img    src='G_7.jpg' height='90'> <img  src='G_5.jpg' height='90'> <img     src='G_4.jpg' height='90'> <img src='G_1.jpg' height='90'> <img src='G_6.jpg' height='90'> <img src='G_2.jpg' height='90'>","null","Animation1",""
"","","","","","html-keyboard-response","87","174674","0.0-75.0","73","1","2025-01-31 01:50:41","af8d355d56820e421d246a7037deb6e6","162.237.52.23","Mozilla/5.0 (Windows NT 10.0; Win64; x64) AppleWebKit/537.36 (KHTML, like Gecko) Chrome/132.0.0.0 Safari/537.36","WebKit","Chrome","132.0.0.0","Windows","10.0","https://app.prolific.com/","en-US,en;q=0.9","66e0ff9d08256be084cd8c81","67949641171f97c04e14fb34","679c2bb3e12d7ac82c5e484d","","null","<img    src='G_8.jpg' height='90'> <img    src='G_3.jpg' height='90'> <img id='selected'    src='G_7.jpg' height='90'> <img  src='G_5.jpg' height='90'> <img     src='G_4.jpg' height='90'> <img src='G_1.jpg' height='90'> <img src='G_6.jpg' height='90'> <img src='G_2.jpg' height='90'>","null","Animation1",""
"","","","","","html-keyboard-response","88","175194","0.0-76.0","73","1","2025-01-31 01:50:41","af8d355d56820e421d246a7037deb6e6","162.237.52.23","Mozilla/5.0 (Windows NT 10.0; Win64; x64) AppleWebKit/537.36 (KHTML, like Gecko) Chrome/132.0.0.0 Safari/537.36","WebKit","Chrome","132.0.0.0","Windows","10.0","https://app.prolific.com/","en-US,en;q=0.9","66e0ff9d08256be084cd8c81","67949641171f97c04e14fb34","679c2bb3e12d7ac82c5e484d","","null","<img    src='G_8.jpg' height='90'> <img    src='G_3.jpg' height='90'> <img id='selected'    src='G_7.jpg' height='90'> <img id='selected'  src='G_5.jpg' height='90'> <img     src='G_4.jpg' height='90'> <img src='G_1.jpg' height='90'> <img src='G_6.jpg' height='90'> <img src='G_2.jpg' height='90'>","null","Animation1",""
"","","","","","html-keyboard-response","89","175710","0.0-77.0","73","1","2025-01-31 01:50:41","af8d355d56820e421d246a7037deb6e6","162.237.52.23","Mozilla/5.0 (Windows NT 10.0; Win64; x64) AppleWebKit/537.36 (KHTML, like Gecko) Chrome/132.0.0.0 Safari/537.36","WebKit","Chrome","132.0.0.0","Windows","10.0","https://app.prolific.com/","en-US,en;q=0.9","66e0ff9d08256be084cd8c81","67949641171f97c04e14fb34","679c2bb3e12d7ac82c5e484d","","null","<img    src='G_8.jpg' height='90'> <img    src='G_3.jpg' height='90'> <img id='swapped'  src='G_5.jpg' height='90'> <img id='swapped'    src='G_7.jpg' height='90'> <img     src='G_4.jpg' height='90'> <img src='G_1.jpg' height='90'> <img src='G_6.jpg' height='90'> <img src='G_2.jpg' height='90'>","null","Animation1",""
"","","","","","html-keyboard-response","90","176026","0.0-78.0","73","1","2025-01-31 01:50:41","af8d355d56820e421d246a7037deb6e6","162.237.52.23","Mozilla/5.0 (Windows NT 10.0; Win64; x64) AppleWebKit/537.36 (KHTML, like Gecko) Chrome/132.0.0.0 Safari/537.36","WebKit","Chrome","132.0.0.0","Windows","10.0","https://app.prolific.com/","en-US,en;q=0.9","66e0ff9d08256be084cd8c81","67949641171f97c04e14fb34","679c2bb3e12d7ac82c5e484d","","null","<img    src='G_8.jpg' height='90'> <img    src='G_3.jpg' height='90'> <img   src='G_5.jpg' height='90'> <img     src='G_7.jpg' height='90'> <img     src='G_4.jpg' height='90'> <img src='G_1.jpg' height='90'> <img src='G_6.jpg' height='90'> <img src='G_2.jpg' height='90'>","null","Animation1",""
"","","","","","html-keyboard-response","91","176546","0.0-79.0","73","1","2025-01-31 01:50:41","af8d355d56820e421d246a7037deb6e6","162.237.52.23","Mozilla/5.0 (Windows NT 10.0; Win64; x64) AppleWebKit/537.36 (KHTML, like Gecko) Chrome/132.0.0.0 Safari/537.36","WebKit","Chrome","132.0.0.0","Windows","10.0","https://app.prolific.com/","en-US,en;q=0.9","66e0ff9d08256be084cd8c81","67949641171f97c04e14fb34","679c2bb3e12d7ac82c5e484d","","null","<img    src='G_8.jpg' height='90'> <img id='selected'    src='G_3.jpg' height='90'> <img   src='G_5.jpg' height='90'> <img     src='G_7.jpg' height='90'> <img     src='G_4.jpg' height='90'> <img src='G_1.jpg' height='90'> <img src='G_6.jpg' height='90'> <img src='G_2.jpg' height='90'>","null","Animation1",""
"","","","","","html-keyboard-response","92","177064","0.0-80.0","73","1","2025-01-31 01:50:41","af8d355d56820e421d246a7037deb6e6","162.237.52.23","Mozilla/5.0 (Windows NT 10.0; Win64; x64) AppleWebKit/537.36 (KHTML, like Gecko) Chrome/132.0.0.0 Safari/537.36","WebKit","Chrome","132.0.0.0","Windows","10.0","https://app.prolific.com/","en-US,en;q=0.9","66e0ff9d08256be084cd8c81","67949641171f97c04e14fb34","679c2bb3e12d7ac82c5e484d","","null","<img    src='G_8.jpg' height='90'> <img id='selected'    src='G_3.jpg' height='90'> <img id='selected'   src='G_5.jpg' height='90'> <img     src='G_7.jpg' height='90'> <img     src='G_4.jpg' height='90'> <img src='G_1.jpg' height='90'> <img src='G_6.jpg' height='90'> <img src='G_2.jpg' height='90'>","null","Animation1",""
"","","","","","html-keyboard-response","93","177578","0.0-81.0","73","1","2025-01-31 01:50:41","af8d355d56820e421d246a7037deb6e6","162.237.52.23","Mozilla/5.0 (Windows NT 10.0; Win64; x64) AppleWebKit/537.36 (KHTML, like Gecko) Chrome/132.0.0.0 Safari/537.36","WebKit","Chrome","132.0.0.0","Windows","10.0","https://app.prolific.com/","en-US,en;q=0.9","66e0ff9d08256be084cd8c81","67949641171f97c04e14fb34","679c2bb3e12d7ac82c5e484d","","null","<img    src='G_8.jpg' height='90'> <img id='swapped'   src='G_5.jpg' height='90'> <img id='swapped'    src='G_3.jpg' height='90'> <img     src='G_7.jpg' height='90'> <img     src='G_4.jpg' height='90'> <img src='G_1.jpg' height='90'> <img src='G_6.jpg' height='90'> <img src='G_2.jpg' height='90'>","null","Animation1",""
"","","","","","html-keyboard-response","94","177887","0.0-82.0","73","1","2025-01-31 01:50:41","af8d355d56820e421d246a7037deb6e6","162.237.52.23","Mozilla/5.0 (Windows NT 10.0; Win64; x64) AppleWebKit/537.36 (KHTML, like Gecko) Chrome/132.0.0.0 Safari/537.36","WebKit","Chrome","132.0.0.0","Windows","10.0","https://app.prolific.com/","en-US,en;q=0.9","66e0ff9d08256be084cd8c81","67949641171f97c04e14fb34","679c2bb3e12d7ac82c5e484d","","null","<img    src='G_8.jpg' height='90'> <img    src='G_5.jpg' height='90'> <img     src='G_3.jpg' height='90'> <img     src='G_7.jpg' height='90'> <img     src='G_4.jpg' height='90'> <img src='G_1.jpg' height='90'> <img src='G_6.jpg' height='90'> <img src='G_2.jpg' height='90'>","null","Animation1",""
"","","","","","html-keyboard-response","95","178410","0.0-83.0","73","1","2025-01-31 01:50:41","af8d355d56820e421d246a7037deb6e6","162.237.52.23","Mozilla/5.0 (Windows NT 10.0; Win64; x64) AppleWebKit/537.36 (KHTML, like Gecko) Chrome/132.0.0.0 Safari/537.36","WebKit","Chrome","132.0.0.0","Windows","10.0","https://app.prolific.com/","en-US,en;q=0.9","66e0ff9d08256be084cd8c81","67949641171f97c04e14fb34","679c2bb3e12d7ac82c5e484d","","null","<img id='selected'    src='G_8.jpg' height='90'> <img    src='G_5.jpg' height='90'> <img     src='G_3.jpg' height='90'> <img     src='G_7.jpg' height='90'> <img     src='G_4.jpg' height='90'> <img src='G_1.jpg' height='90'> <img src='G_6.jpg' height='90'> <img src='G_2.jpg' height='90'>","null","Animation1",""
"","","","","","html-keyboard-response","96","178926","0.0-84.0","73","1","2025-01-31 01:50:41","af8d355d56820e421d246a7037deb6e6","162.237.52.23","Mozilla/5.0 (Windows NT 10.0; Win64; x64) AppleWebKit/537.36 (KHTML, like Gecko) Chrome/132.0.0.0 Safari/537.36","WebKit","Chrome","132.0.0.0","Windows","10.0","https://app.prolific.com/","en-US,en;q=0.9","66e0ff9d08256be084cd8c81","67949641171f97c04e14fb34","679c2bb3e12d7ac82c5e484d","","null","<img id='selected'    src='G_8.jpg' height='90'> <img id='selected'    src='G_5.jpg' height='90'> <img     src='G_3.jpg' height='90'> <img     src='G_7.jpg' height='90'> <img     src='G_4.jpg' height='90'> <img src='G_1.jpg' height='90'> <img src='G_6.jpg' height='90'> <img src='G_2.jpg' height='90'>","null","Animation1",""
"","","","","","html-keyboard-response","97","179457","0.0-85.0","73","1","2025-01-31 01:50:41","af8d355d56820e421d246a7037deb6e6","162.237.52.23","Mozilla/5.0 (Windows NT 10.0; Win64; x64) AppleWebKit/537.36 (KHTML, like Gecko) Chrome/132.0.0.0 Safari/537.36","WebKit","Chrome","132.0.0.0","Windows","10.0","https://app.prolific.com/","en-US,en;q=0.9","66e0ff9d08256be084cd8c81","67949641171f97c04e14fb34","679c2bb3e12d7ac82c5e484d","","null","<img id='selected'    src='G_8.jpg' height='90'> <img id='selected'    src='G_5.jpg' height='90'> <img     src='G_3.jpg' height='90'> <img     src='G_7.jpg' height='90'> <img     src='G_4.jpg' height='90'> <img src='G_1.jpg' height='90'> <img src='G_6.jpg' height='90'> <img src='G_2.jpg' height='90'>","null","Animation1",""
"","","","","","html-keyboard-response","98","179774","0.0-86.0","73","1","2025-01-31 01:50:41","af8d355d56820e421d246a7037deb6e6","162.237.52.23","Mozilla/5.0 (Windows NT 10.0; Win64; x64) AppleWebKit/537.36 (KHTML, like Gecko) Chrome/132.0.0.0 Safari/537.36","WebKit","Chrome","132.0.0.0","Windows","10.0","https://app.prolific.com/","en-US,en;q=0.9","66e0ff9d08256be084cd8c81","67949641171f97c04e14fb34","679c2bb3e12d7ac82c5e484d","","null","<img     src='G_8.jpg' height='90'> <img     src='G_5.jpg' height='90'> <img     src='G_3.jpg' height='90'> <img     src='G_7.jpg' height='90'> <img     src='G_4.jpg' height='90'> <img src='G_1.jpg' height='90'> <img src='G_6.jpg' height='90'> <img src='G_2.jpg' height='90'>","null","Animation1",""
"","","","","","html-keyboard-response","99","180291","0.0-87.0","73","1","2025-01-31 01:50:41","af8d355d56820e421d246a7037deb6e6","162.237.52.23","Mozilla/5.0 (Windows NT 10.0; Win64; x64) AppleWebKit/537.36 (KHTML, like Gecko) Chrome/132.0.0.0 Safari/537.36","WebKit","Chrome","132.0.0.0","Windows","10.0","https://app.prolific.com/","en-US,en;q=0.9","66e0ff9d08256be084cd8c81","67949641171f97c04e14fb34","679c2bb3e12d7ac82c5e484d","","null","<img     src='G_8.jpg' height='90'> <img     src='G_5.jpg' height='90'> <img     src='G_3.jpg' height='90'> <img     src='G_7.jpg' height='90'> <img id='selected'     src='G_4.jpg' height='90'> <img src='G_1.jpg' height='90'> <img src='G_6.jpg' height='90'> <img src='G_2.jpg' height='90'>","null","Animation1",""
"","","","","","html-keyboard-response","100","180813","0.0-88.0","73","1","2025-01-31 01:50:41","af8d355d56820e421d246a7037deb6e6","162.237.52.23","Mozilla/5.0 (Windows NT 10.0; Win64; x64) AppleWebKit/537.36 (KHTML, like Gecko) Chrome/132.0.0.0 Safari/537.36","WebKit","Chrome","132.0.0.0","Windows","10.0","https://app.prolific.com/","en-US,en;q=0.9","66e0ff9d08256be084cd8c81","67949641171f97c04e14fb34","679c2bb3e12d7ac82c5e484d","","null","<img     src='G_8.jpg' height='90'> <img     src='G_5.jpg' height='90'> <img     src='G_3.jpg' height='90'> <img     src='G_7.jpg' height='90'> <img id='selected'     src='G_4.jpg' height='90'> <img id='selected' src='G_1.jpg' height='90'> <img src='G_6.jpg' height='90'> <img src='G_2.jpg' height='90'>","null","Animation1",""
"","","","","","html-keyboard-response","101","181330","0.0-89.0","73","1","2025-01-31 01:50:41","af8d355d56820e421d246a7037deb6e6","162.237.52.23","Mozilla/5.0 (Windows NT 10.0; Win64; x64) AppleWebKit/537.36 (KHTML, like Gecko) Chrome/132.0.0.0 Safari/537.36","WebKit","Chrome","132.0.0.0","Windows","10.0","https://app.prolific.com/","en-US,en;q=0.9","66e0ff9d08256be084cd8c81","67949641171f97c04e14fb34","679c2bb3e12d7ac82c5e484d","","null","<img     src='G_8.jpg' height='90'> <img     src='G_5.jpg' height='90'> <img     src='G_3.jpg' height='90'> <img     src='G_7.jpg' height='90'> <img id='swapped' src='G_1.jpg' height='90'> <img id='swapped'     src='G_4.jpg' height='90'> <img src='G_6.jpg' height='90'> <img src='G_2.jpg' height='90'>","null","Animation1",""
"","","","","","html-keyboard-response","102","181652","0.0-90.0","73","1","2025-01-31 01:50:41","af8d355d56820e421d246a7037deb6e6","162.237.52.23","Mozilla/5.0 (Windows NT 10.0; Win64; x64) AppleWebKit/537.36 (KHTML, like Gecko) Chrome/132.0.0.0 Safari/537.36","WebKit","Chrome","132.0.0.0","Windows","10.0","https://app.prolific.com/","en-US,en;q=0.9","66e0ff9d08256be084cd8c81","67949641171f97c04e14fb34","679c2bb3e12d7ac82c5e484d","","null","<img     src='G_8.jpg' height='90'> <img     src='G_5.jpg' height='90'> <img     src='G_3.jpg' height='90'> <img     src='G_7.jpg' height='90'> <img  src='G_1.jpg' height='90'> <img      src='G_4.jpg' height='90'> <img src='G_6.jpg' height='90'> <img src='G_2.jpg' height='90'>","null","Animation1",""
"","","","","","html-keyboard-response","103","182169","0.0-91.0","73","1","2025-01-31 01:50:41","af8d355d56820e421d246a7037deb6e6","162.237.52.23","Mozilla/5.0 (Windows NT 10.0; Win64; x64) AppleWebKit/537.36 (KHTML, like Gecko) Chrome/132.0.0.0 Safari/537.36","WebKit","Chrome","132.0.0.0","Windows","10.0","https://app.prolific.com/","en-US,en;q=0.9","66e0ff9d08256be084cd8c81","67949641171f97c04e14fb34","679c2bb3e12d7ac82c5e484d","","null","<img     src='G_8.jpg' height='90'> <img     src='G_5.jpg' height='90'> <img     src='G_3.jpg' height='90'> <img id='selected'     src='G_7.jpg' height='90'> <img  src='G_1.jpg' height='90'> <img      src='G_4.jpg' height='90'> <img src='G_6.jpg' height='90'> <img src='G_2.jpg' height='90'>","null","Animation1",""
"","","","","","html-keyboard-response","104","182673","0.0-92.0","73","1","2025-01-31 01:50:41","af8d355d56820e421d246a7037deb6e6","162.237.52.23","Mozilla/5.0 (Windows NT 10.0; Win64; x64) AppleWebKit/537.36 (KHTML, like Gecko) Chrome/132.0.0.0 Safari/537.36","WebKit","Chrome","132.0.0.0","Windows","10.0","https://app.prolific.com/","en-US,en;q=0.9","66e0ff9d08256be084cd8c81","67949641171f97c04e14fb34","679c2bb3e12d7ac82c5e484d","","null","<img     src='G_8.jpg' height='90'> <img     src='G_5.jpg' height='90'> <img     src='G_3.jpg' height='90'> <img id='selected'     src='G_7.jpg' height='90'> <img id='selected'  src='G_1.jpg' height='90'> <img      src='G_4.jpg' height='90'> <img src='G_6.jpg' height='90'> <img src='G_2.jpg' height='90'>","null","Animation1",""
"","","","","","html-keyboard-response","105","183191","0.0-93.0","73","1","2025-01-31 01:50:41","af8d355d56820e421d246a7037deb6e6","162.237.52.23","Mozilla/5.0 (Windows NT 10.0; Win64; x64) AppleWebKit/537.36 (KHTML, like Gecko) Chrome/132.0.0.0 Safari/537.36","WebKit","Chrome","132.0.0.0","Windows","10.0","https://app.prolific.com/","en-US,en;q=0.9","66e0ff9d08256be084cd8c81","67949641171f97c04e14fb34","679c2bb3e12d7ac82c5e484d","","null","<img     src='G_8.jpg' height='90'> <img     src='G_5.jpg' height='90'> <img     src='G_3.jpg' height='90'> <img id='selected'     src='G_7.jpg' height='90'> <img id='selected'  src='G_1.jpg' height='90'> <img      src='G_4.jpg' height='90'> <img src='G_6.jpg' height='90'> <img src='G_2.jpg' height='90'>","null","Animation1",""
"","","","","","html-keyboard-response","106","183518","0.0-94.0","73","1","2025-01-31 01:50:41","af8d355d56820e421d246a7037deb6e6","162.237.52.23","Mozilla/5.0 (Windows NT 10.0; Win64; x64) AppleWebKit/537.36 (KHTML, like Gecko) Chrome/132.0.0.0 Safari/537.36","WebKit","Chrome","132.0.0.0","Windows","10.0","https://app.prolific.com/","en-US,en;q=0.9","66e0ff9d08256be084cd8c81","67949641171f97c04e14fb34","679c2bb3e12d7ac82c5e484d","","null","<img     src='G_8.jpg' height='90'> <img     src='G_5.jpg' height='90'> <img     src='G_3.jpg' height='90'> <img      src='G_7.jpg' height='90'> <img   src='G_1.jpg' height='90'> <img      src='G_4.jpg' height='90'> <img src='G_6.jpg' height='90'> <img src='G_2.jpg' height='90'>","null","Animation1",""
"","","","","","html-keyboard-response","107","184024","0.0-95.0","73","1","2025-01-31 01:50:41","af8d355d56820e421d246a7037deb6e6","162.237.52.23","Mozilla/5.0 (Windows NT 10.0; Win64; x64) AppleWebKit/537.36 (KHTML, like Gecko) Chrome/132.0.0.0 Safari/537.36","WebKit","Chrome","132.0.0.0","Windows","10.0","https://app.prolific.com/","en-US,en;q=0.9","66e0ff9d08256be084cd8c81","67949641171f97c04e14fb34","679c2bb3e12d7ac82c5e484d","","null","<img     src='G_8.jpg' height='90'> <img     src='G_5.jpg' height='90'> <img     src='G_3.jpg' height='90'> <img      src='G_7.jpg' height='90'> <img   src='G_1.jpg' height='90'> <img id='selected'      src='G_4.jpg' height='90'> <img src='G_6.jpg' height='90'> <img src='G_2.jpg' height='90'>","null","Animation1",""
"","","","","","html-keyboard-response","108","184538","0.0-96.0","73","1","2025-01-31 01:50:41","af8d355d56820e421d246a7037deb6e6","162.237.52.23","Mozilla/5.0 (Windows NT 10.0; Win64; x64) AppleWebKit/537.36 (KHTML, like Gecko) Chrome/132.0.0.0 Safari/537.36","WebKit","Chrome","132.0.0.0","Windows","10.0","https://app.prolific.com/","en-US,en;q=0.9","66e0ff9d08256be084cd8c81","67949641171f97c04e14fb34","679c2bb3e12d7ac82c5e484d","","null","<img     src='G_8.jpg' height='90'> <img     src='G_5.jpg' height='90'> <img     src='G_3.jpg' height='90'> <img      src='G_7.jpg' height='90'> <img   src='G_1.jpg' height='90'> <img id='selected'      src='G_4.jpg' height='90'> <img id='selected' src='G_6.jpg' height='90'> <img src='G_2.jpg' height='90'>","null","Animation1",""
"","","","","","html-keyboard-response","109","185058","0.0-97.0","73","1","2025-01-31 01:50:41","af8d355d56820e421d246a7037deb6e6","162.237.52.23","Mozilla/5.0 (Windows NT 10.0; Win64; x64) AppleWebKit/537.36 (KHTML, like Gecko) Chrome/132.0.0.0 Safari/537.36","WebKit","Chrome","132.0.0.0","Windows","10.0","https://app.prolific.com/","en-US,en;q=0.9","66e0ff9d08256be084cd8c81","67949641171f97c04e14fb34","679c2bb3e12d7ac82c5e484d","","null","<img     src='G_8.jpg' height='90'> <img     src='G_5.jpg' height='90'> <img     src='G_3.jpg' height='90'> <img      src='G_7.jpg' height='90'> <img   src='G_1.jpg' height='90'> <img id='selected'      src='G_4.jpg' height='90'> <img id='selected' src='G_6.jpg' height='90'> <img src='G_2.jpg' height='90'>","null","Animation1",""
"","","","","","html-keyboard-response","110","185373","0.0-98.0","73","1","2025-01-31 01:50:41","af8d355d56820e421d246a7037deb6e6","162.237.52.23","Mozilla/5.0 (Windows NT 10.0; Win64; x64) AppleWebKit/537.36 (KHTML, like Gecko) Chrome/132.0.0.0 Safari/537.36","WebKit","Chrome","132.0.0.0","Windows","10.0","https://app.prolific.com/","en-US,en;q=0.9","66e0ff9d08256be084cd8c81","67949641171f97c04e14fb34","679c2bb3e12d7ac82c5e484d","","null","<img     src='G_8.jpg' height='90'> <img     src='G_5.jpg' height='90'> <img     src='G_3.jpg' height='90'> <img      src='G_7.jpg' height='90'> <img   src='G_1.jpg' height='90'> <img       src='G_4.jpg' height='90'> <img  src='G_6.jpg' height='90'> <img src='G_2.jpg' height='90'>","null","Animation1",""
"","","","","","html-keyboard-response","111","185880","0.0-99.0","73","1","2025-01-31 01:50:41","af8d355d56820e421d246a7037deb6e6","162.237.52.23","Mozilla/5.0 (Windows NT 10.0; Win64; x64) AppleWebKit/537.36 (KHTML, like Gecko) Chrome/132.0.0.0 Safari/537.36","WebKit","Chrome","132.0.0.0","Windows","10.0","https://app.prolific.com/","en-US,en;q=0.9","66e0ff9d08256be084cd8c81","67949641171f97c04e14fb34","679c2bb3e12d7ac82c5e484d","","null","<img     src='G_8.jpg' height='90'> <img     src='G_5.jpg' height='90'> <img     src='G_3.jpg' height='90'> <img      src='G_7.jpg' height='90'> <img   src='G_1.jpg' height='90'> <img       src='G_4.jpg' height='90'> <img id='selected'  src='G_6.jpg' height='90'> <img src='G_2.jpg' height='90'>","null","Animation1",""
"","","","","","html-keyboard-response","112","186397","0.0-100.0","73","1","2025-01-31 01:50:41","af8d355d56820e421d246a7037deb6e6","162.237.52.23","Mozilla/5.0 (Windows NT 10.0; Win64; x64) AppleWebKit/537.36 (KHTML, like Gecko) Chrome/132.0.0.0 Safari/537.36","WebKit","Chrome","132.0.0.0","Windows","10.0","https://app.prolific.com/","en-US,en;q=0.9","66e0ff9d08256be084cd8c81","67949641171f97c04e14fb34","679c2bb3e12d7ac82c5e484d","","null","<img     src='G_8.jpg' height='90'> <img     src='G_5.jpg' height='90'> <img     src='G_3.jpg' height='90'> <img      src='G_7.jpg' height='90'> <img   src='G_1.jpg' height='90'> <img       src='G_4.jpg' height='90'> <img id='selected'  src='G_6.jpg' height='90'> <img id='selected' src='G_2.jpg' height='90'>","null","Animation1",""
"","","","","","html-keyboard-response","113","186914","0.0-101.0","73","1","2025-01-31 01:50:41","af8d355d56820e421d246a7037deb6e6","162.237.52.23","Mozilla/5.0 (Windows NT 10.0; Win64; x64) AppleWebKit/537.36 (KHTML, like Gecko) Chrome/132.0.0.0 Safari/537.36","WebKit","Chrome","132.0.0.0","Windows","10.0","https://app.prolific.com/","en-US,en;q=0.9","66e0ff9d08256be084cd8c81","67949641171f97c04e14fb34","679c2bb3e12d7ac82c5e484d","","null","<img     src='G_8.jpg' height='90'> <img     src='G_5.jpg' height='90'> <img     src='G_3.jpg' height='90'> <img      src='G_7.jpg' height='90'> <img   src='G_1.jpg' height='90'> <img       src='G_4.jpg' height='90'> <img id='swapped' src='G_2.jpg' height='90'> <img id='swapped'  src='G_6.jpg' height='90'>","null","Animation1",""
"","","","","","html-keyboard-response","114","187230","0.0-102.0","73","1","2025-01-31 01:50:41","af8d355d56820e421d246a7037deb6e6","162.237.52.23","Mozilla/5.0 (Windows NT 10.0; Win64; x64) AppleWebKit/537.36 (KHTML, like Gecko) Chrome/132.0.0.0 Safari/537.36","WebKit","Chrome","132.0.0.0","Windows","10.0","https://app.prolific.com/","en-US,en;q=0.9","66e0ff9d08256be084cd8c81","67949641171f97c04e14fb34","679c2bb3e12d7ac82c5e484d","","null","<img     src='G_8.jpg' height='90'> <img     src='G_5.jpg' height='90'> <img     src='G_3.jpg' height='90'> <img      src='G_7.jpg' height='90'> <img   src='G_1.jpg' height='90'> <img       src='G_4.jpg' height='90'> <img  src='G_2.jpg' height='90'> <img   src='G_6.jpg' height='90'>","null","Animation1",""
"","","","","","html-keyboard-response","115","187745","0.0-103.0","73","1","2025-01-31 01:50:41","af8d355d56820e421d246a7037deb6e6","162.237.52.23","Mozilla/5.0 (Windows NT 10.0; Win64; x64) AppleWebKit/537.36 (KHTML, like Gecko) Chrome/132.0.0.0 Safari/537.36","WebKit","Chrome","132.0.0.0","Windows","10.0","https://app.prolific.com/","en-US,en;q=0.9","66e0ff9d08256be084cd8c81","67949641171f97c04e14fb34","679c2bb3e12d7ac82c5e484d","","null","<img     src='G_8.jpg' height='90'> <img     src='G_5.jpg' height='90'> <img     src='G_3.jpg' height='90'> <img      src='G_7.jpg' height='90'> <img   src='G_1.jpg' height='90'> <img id='selected'       src='G_4.jpg' height='90'> <img  src='G_2.jpg' height='90'> <img   src='G_6.jpg' height='90'>","null","Animation1",""
"","","","","","html-keyboard-response","116","188265","0.0-104.0","73","1","2025-01-31 01:50:41","af8d355d56820e421d246a7037deb6e6","162.237.52.23","Mozilla/5.0 (Windows NT 10.0; Win64; x64) AppleWebKit/537.36 (KHTML, like Gecko) Chrome/132.0.0.0 Safari/537.36","WebKit","Chrome","132.0.0.0","Windows","10.0","https://app.prolific.com/","en-US,en;q=0.9","66e0ff9d08256be084cd8c81","67949641171f97c04e14fb34","679c2bb3e12d7ac82c5e484d","","null","<img     src='G_8.jpg' height='90'> <img     src='G_5.jpg' height='90'> <img     src='G_3.jpg' height='90'> <img      src='G_7.jpg' height='90'> <img   src='G_1.jpg' height='90'> <img id='selected'       src='G_4.jpg' height='90'> <img id='selected'  src='G_2.jpg' height='90'> <img   src='G_6.jpg' height='90'>","null","Animation1",""
"","","","","","html-keyboard-response","117","188778","0.0-105.0","73","1","2025-01-31 01:50:41","af8d355d56820e421d246a7037deb6e6","162.237.52.23","Mozilla/5.0 (Windows NT 10.0; Win64; x64) AppleWebKit/537.36 (KHTML, like Gecko) Chrome/132.0.0.0 Safari/537.36","WebKit","Chrome","132.0.0.0","Windows","10.0","https://app.prolific.com/","en-US,en;q=0.9","66e0ff9d08256be084cd8c81","67949641171f97c04e14fb34","679c2bb3e12d7ac82c5e484d","","null","<img     src='G_8.jpg' height='90'> <img     src='G_5.jpg' height='90'> <img     src='G_3.jpg' height='90'> <img      src='G_7.jpg' height='90'> <img   src='G_1.jpg' height='90'> <img id='selected'       src='G_4.jpg' height='90'> <img id='selected'  src='G_2.jpg' height='90'> <img   src='G_6.jpg' height='90'>","null","Animation1",""
"","","","","","html-keyboard-response","118","189089","0.0-106.0","73","1","2025-01-31 01:50:41","af8d355d56820e421d246a7037deb6e6","162.237.52.23","Mozilla/5.0 (Windows NT 10.0; Win64; x64) AppleWebKit/537.36 (KHTML, like Gecko) Chrome/132.0.0.0 Safari/537.36","WebKit","Chrome","132.0.0.0","Windows","10.0","https://app.prolific.com/","en-US,en;q=0.9","66e0ff9d08256be084cd8c81","67949641171f97c04e14fb34","679c2bb3e12d7ac82c5e484d","","null","<img     src='G_8.jpg' height='90'> <img     src='G_5.jpg' height='90'> <img     src='G_3.jpg' height='90'> <img      src='G_7.jpg' height='90'> <img   src='G_1.jpg' height='90'> <img        src='G_4.jpg' height='90'> <img   src='G_2.jpg' height='90'> <img   src='G_6.jpg' height='90'>","null","Animation1",""
"","","","","","html-keyboard-response","119","224448","0.0-107.0","73","1","2025-01-31 01:50:41","af8d355d56820e421d246a7037deb6e6","162.237.52.23","Mozilla/5.0 (Windows NT 10.0; Win64; x64) AppleWebKit/537.36 (KHTML, like Gecko) Chrome/132.0.0.0 Safari/537.36","WebKit","Chrome","132.0.0.0","Windows","10.0","https://app.prolific.com/","en-US,en;q=0.9","66e0ff9d08256be084cd8c81","67949641171f97c04e14fb34","679c2bb3e12d7ac82c5e484d","","35356","[""Did you notice any patterns? <br><br>Press Enter to watch that example again and follow the steps of Omgne Sort.""]","enter","",""
"","","","","","html-button-response","120","224869","0.0-108.0","73","1","2025-01-31 01:50:41","af8d355d56820e421d246a7037deb6e6","162.237.52.23","Mozilla/5.0 (Windows NT 10.0; Win64; x64) AppleWebKit/537.36 (KHTML, like Gecko) Chrome/132.0.0.0 Safari/537.36","WebKit","Chrome","132.0.0.0","Windows","10.0","https://app.prolific.com/","en-US,en;q=0.9","66e0ff9d08256be084cd8c81","67949641171f97c04e14fb34","679c2bb3e12d7ac82c5e484d","","null","<img id='selected' src='G_7.jpg' height='90'> <img src='G_4.jpg' height='90'> <img src='G_3.jpg' height='90'> <img src='G_8.jpg' height='90'> <img src='G_5.jpg' height='90'> <img src='G_1.jpg' height='90'> <img src='G_6.jpg' height='90'> <img src='G_2.jpg' height='90'>","null","Learning example 1",""
"","","","","","html-button-response","121","225185","0.0-109.0","73","1","2025-01-31 01:50:41","af8d355d56820e421d246a7037deb6e6","162.237.52.23","Mozilla/5.0 (Windows NT 10.0; Win64; x64) AppleWebKit/537.36 (KHTML, like Gecko) Chrome/132.0.0.0 Safari/537.36","WebKit","Chrome","132.0.0.0","Windows","10.0","https://app.prolific.com/","en-US,en;q=0.9","66e0ff9d08256be084cd8c81","67949641171f97c04e14fb34","679c2bb3e12d7ac82c5e484d","","null","<img id='selected' src='G_7.jpg' height='90'> <img id='selected' src='G_4.jpg' height='90'> <img src='G_3.jpg' height='90'> <img src='G_8.jpg' height='90'> <img src='G_5.jpg' height='90'> <img src='G_1.jpg' height='90'> <img src='G_6.jpg' height='90'> <img src='G_2.jpg' height='90'>","null","Learning example 1",""
"","","","","","html-button-response","122","225504","0.0-110.0","73","1","2025-01-31 01:50:41","af8d355d56820e421d246a7037deb6e6","162.237.52.23","Mozilla/5.0 (Windows NT 10.0; Win64; x64) AppleWebKit/537.36 (KHTML, like Gecko) Chrome/132.0.0.0 Safari/537.36","WebKit","Chrome","132.0.0.0","Windows","10.0","https://app.prolific.com/","en-US,en;q=0.9","66e0ff9d08256be084cd8c81","67949641171f97c04e14fb34","679c2bb3e12d7ac82c5e484d","","null","<img id='selected' src='G_7.jpg' height='90'> <img id='selected' src='G_4.jpg' height='90'> <img src='G_3.jpg' height='90'> <img src='G_8.jpg' height='90'> <img src='G_5.jpg' height='90'> <img src='G_1.jpg' height='90'> <img src='G_6.jpg' height='90'> <img src='G_2.jpg' height='90'>","null","Learning example 1",""
"","","","","","html-button-response","123","228819","0.0-111.0-0.0-0.0","73","1","2025-01-31 01:50:41","af8d355d56820e421d246a7037deb6e6","162.237.52.23","Mozilla/5.0 (Windows NT 10.0; Win64; x64) AppleWebKit/537.36 (KHTML, like Gecko) Chrome/132.0.0.0 Safari/537.36","WebKit","Chrome","132.0.0.0","Windows","10.0","https://app.prolific.com/","en-US,en;q=0.9","66e0ff9d08256be084cd8c81","67949641171f97c04e14fb34","679c2bb3e12d7ac82c5e484d","","3312","<img id='selected' src='G_7.jpg' height='90'> <img id='selected' src='G_4.jpg' height='90'> <img src='G_3.jpg' height='90'> <img src='G_8.jpg' height='90'> <img src='G_5.jpg' height='90'> <img src='G_1.jpg' height='90'> <img src='G_6.jpg' height='90'> <img src='G_2.jpg' height='90'>","0","Learning example 1",""
"","","","","","html-button-response","124","229854","0.0-111.1-0.1-0.1","73","1","2025-01-31 01:50:41","af8d355d56820e421d246a7037deb6e6","162.237.52.23","Mozilla/5.0 (Windows NT 10.0; Win64; x64) AppleWebKit/537.36 (KHTML, like Gecko) Chrome/132.0.0.0 Safari/537.36","WebKit","Chrome","132.0.0.0","Windows","10.0","https://app.prolific.com/","en-US,en;q=0.9","66e0ff9d08256be084cd8c81","67949641171f97c04e14fb34","679c2bb3e12d7ac82c5e484d","","1032","<img id='selected' src='G_7.jpg' height='90'> <img id='selected' src='G_4.jpg' height='90'> <img src='G_3.jpg' height='90'> <img src='G_8.jpg' height='90'> <img src='G_5.jpg' height='90'> <img src='G_1.jpg' height='90'> <img src='G_6.jpg' height='90'> <img src='G_2.jpg' height='90'>","1","Learning example 1",""
"","","","","","html-button-response","125","230072","0.0-112.0","73","1","2025-01-31 01:50:41","af8d355d56820e421d246a7037deb6e6","162.237.52.23","Mozilla/5.0 (Windows NT 10.0; Win64; x64) AppleWebKit/537.36 (KHTML, like Gecko) Chrome/132.0.0.0 Safari/537.36","WebKit","Chrome","132.0.0.0","Windows","10.0","https://app.prolific.com/","en-US,en;q=0.9","66e0ff9d08256be084cd8c81","67949641171f97c04e14fb34","679c2bb3e12d7ac82c5e484d","","null","<img  src='G_7.jpg' height='90'> <img  src='G_4.jpg' height='90'> <img src='G_3.jpg' height='90'> <img src='G_8.jpg' height='90'> <img src='G_5.jpg' height='90'> <img src='G_1.jpg' height='90'> <img src='G_6.jpg' height='90'> <img src='G_2.jpg' height='90'>","null","Learning example 1",""
"","","","","","html-button-response","126","230485","0.0-113.0","73","1","2025-01-31 01:50:41","af8d355d56820e421d246a7037deb6e6","162.237.52.23","Mozilla/5.0 (Windows NT 10.0; Win64; x64) AppleWebKit/537.36 (KHTML, like Gecko) Chrome/132.0.0.0 Safari/537.36","WebKit","Chrome","132.0.0.0","Windows","10.0","https://app.prolific.com/","en-US,en;q=0.9","66e0ff9d08256be084cd8c81","67949641171f97c04e14fb34","679c2bb3e12d7ac82c5e484d","","null","<img  src='G_7.jpg' height='90'> <img id='selected'  src='G_4.jpg' height='90'> <img src='G_3.jpg' height='90'> <img src='G_8.jpg' height='90'> <img src='G_5.jpg' height='90'> <img src='G_1.jpg' height='90'> <img src='G_6.jpg' height='90'> <img src='G_2.jpg' height='90'>","null","Learning example 1",""
"","","","","","html-button-response","127","230793","0.0-114.0","73","1","2025-01-31 01:50:41","af8d355d56820e421d246a7037deb6e6","162.237.52.23","Mozilla/5.0 (Windows NT 10.0; Win64; x64) AppleWebKit/537.36 (KHTML, like Gecko) Chrome/132.0.0.0 Safari/537.36","WebKit","Chrome","132.0.0.0","Windows","10.0","https://app.prolific.com/","en-US,en;q=0.9","66e0ff9d08256be084cd8c81","67949641171f97c04e14fb34","679c2bb3e12d7ac82c5e484d","","null","<img  src='G_7.jpg' height='90'> <img id='selected'  src='G_4.jpg' height='90'> <img id='selected' src='G_3.jpg' height='90'> <img src='G_8.jpg' height='90'> <img src='G_5.jpg' height='90'> <img src='G_1.jpg' height='90'> <img src='G_6.jpg' height='90'> <img src='G_2.jpg' height='90'>","null","Learning example 1",""
"","","","","","html-button-response","128","231119","0.0-115.0","73","1","2025-01-31 01:50:41","af8d355d56820e421d246a7037deb6e6","162.237.52.23","Mozilla/5.0 (Windows NT 10.0; Win64; x64) AppleWebKit/537.36 (KHTML, like Gecko) Chrome/132.0.0.0 Safari/537.36","WebKit","Chrome","132.0.0.0","Windows","10.0","https://app.prolific.com/","en-US,en;q=0.9","66e0ff9d08256be084cd8c81","67949641171f97c04e14fb34","679c2bb3e12d7ac82c5e484d","","null","<img  src='G_7.jpg' height='90'> <img id='swapped' src='G_3.jpg' height='90'> <img id='swapped'  src='G_4.jpg' height='90'> <img src='G_8.jpg' height='90'> <img src='G_5.jpg' height='90'> <img src='G_1.jpg' height='90'> <img src='G_6.jpg' height='90'> <img src='G_2.jpg' height='90'>","null","Learning example 1",""
"","","","","","html-button-response","129","231764","0.0-116.0-0.0-0.0","73","1","2025-01-31 01:50:41","af8d355d56820e421d246a7037deb6e6","162.237.52.23","Mozilla/5.0 (Windows NT 10.0; Win64; x64) AppleWebKit/537.36 (KHTML, like Gecko) Chrome/132.0.0.0 Safari/537.36","WebKit","Chrome","132.0.0.0","Windows","10.0","https://app.prolific.com/","en-US,en;q=0.9","66e0ff9d08256be084cd8c81","67949641171f97c04e14fb34","679c2bb3e12d7ac82c5e484d","","641","<img  src='G_7.jpg' height='90'> <img id='swapped' src='G_3.jpg' height='90'> <img id='swapped'  src='G_4.jpg' height='90'> <img src='G_8.jpg' height='90'> <img src='G_5.jpg' height='90'> <img src='G_1.jpg' height='90'> <img src='G_6.jpg' height='90'> <img src='G_2.jpg' height='90'>","1","Learning example 1",""
"","","","","","html-button-response","130","232786","0.0-116.1-0.1-0.1","73","1","2025-01-31 01:50:41","af8d355d56820e421d246a7037deb6e6","162.237.52.23","Mozilla/5.0 (Windows NT 10.0; Win64; x64) AppleWebKit/537.36 (KHTML, like Gecko) Chrome/132.0.0.0 Safari/537.36","WebKit","Chrome","132.0.0.0","Windows","10.0","https://app.prolific.com/","en-US,en;q=0.9","66e0ff9d08256be084cd8c81","67949641171f97c04e14fb34","679c2bb3e12d7ac82c5e484d","","1016","<img  src='G_7.jpg' height='90'> <img id='swapped' src='G_3.jpg' height='90'> <img id='swapped'  src='G_4.jpg' height='90'> <img src='G_8.jpg' height='90'> <img src='G_5.jpg' height='90'> <img src='G_1.jpg' height='90'> <img src='G_6.jpg' height='90'> <img src='G_2.jpg' height='90'>","2","Learning example 1",""
"","","","","","html-button-response","131","232996","0.0-117.0","73","1","2025-01-31 01:50:41","af8d355d56820e421d246a7037deb6e6","162.237.52.23","Mozilla/5.0 (Windows NT 10.0; Win64; x64) AppleWebKit/537.36 (KHTML, like Gecko) Chrome/132.0.0.0 Safari/537.36","WebKit","Chrome","132.0.0.0","Windows","10.0","https://app.prolific.com/","en-US,en;q=0.9","66e0ff9d08256be084cd8c81","67949641171f97c04e14fb34","679c2bb3e12d7ac82c5e484d","","null","<img  src='G_7.jpg' height='90'> <img  src='G_3.jpg' height='90'> <img   src='G_4.jpg' height='90'> <img src='G_8.jpg' height='90'> <img src='G_5.jpg' height='90'> <img src='G_1.jpg' height='90'> <img src='G_6.jpg' height='90'> <img src='G_2.jpg' height='90'>","null","Learning example 1",""
"","","","","","html-button-response","132","233417","0.0-118.0","73","1","2025-01-31 01:50:41","af8d355d56820e421d246a7037deb6e6","162.237.52.23","Mozilla/5.0 (Windows NT 10.0; Win64; x64) AppleWebKit/537.36 (KHTML, like Gecko) Chrome/132.0.0.0 Safari/537.36","WebKit","Chrome","132.0.0.0","Windows","10.0","https://app.prolific.com/","en-US,en;q=0.9","66e0ff9d08256be084cd8c81","67949641171f97c04e14fb34","679c2bb3e12d7ac82c5e484d","","null","<img id='selected'  src='G_7.jpg' height='90'> <img  src='G_3.jpg' height='90'> <img   src='G_4.jpg' height='90'> <img src='G_8.jpg' height='90'> <img src='G_5.jpg' height='90'> <img src='G_1.jpg' height='90'> <img src='G_6.jpg' height='90'> <img src='G_2.jpg' height='90'>","null","Learning example 1",""
"","","","","","html-button-response","133","233728","0.0-119.0","73","1","2025-01-31 01:50:41","af8d355d56820e421d246a7037deb6e6","162.237.52.23","Mozilla/5.0 (Windows NT 10.0; Win64; x64) AppleWebKit/537.36 (KHTML, like Gecko) Chrome/132.0.0.0 Safari/537.36","WebKit","Chrome","132.0.0.0","Windows","10.0","https://app.prolific.com/","en-US,en;q=0.9","66e0ff9d08256be084cd8c81","67949641171f97c04e14fb34","679c2bb3e12d7ac82c5e484d","","null","<img id='selected'  src='G_7.jpg' height='90'> <img id='selected'  src='G_3.jpg' height='90'> <img   src='G_4.jpg' height='90'> <img src='G_8.jpg' height='90'> <img src='G_5.jpg' height='90'> <img src='G_1.jpg' height='90'> <img src='G_6.jpg' height='90'> <img src='G_2.jpg' height='90'>","null","Learning example 1",""
"","","","","","html-button-response","134","234039","0.0-120.0","73","1","2025-01-31 01:50:41","af8d355d56820e421d246a7037deb6e6","162.237.52.23","Mozilla/5.0 (Windows NT 10.0; Win64; x64) AppleWebKit/537.36 (KHTML, like Gecko) Chrome/132.0.0.0 Safari/537.36","WebKit","Chrome","132.0.0.0","Windows","10.0","https://app.prolific.com/","en-US,en;q=0.9","66e0ff9d08256be084cd8c81","67949641171f97c04e14fb34","679c2bb3e12d7ac82c5e484d","","null","<img id='swapped'  src='G_3.jpg' height='90'> <img id='swapped'  src='G_7.jpg' height='90'> <img   src='G_4.jpg' height='90'> <img src='G_8.jpg' height='90'> <img src='G_5.jpg' height='90'> <img src='G_1.jpg' height='90'> <img src='G_6.jpg' height='90'> <img src='G_2.jpg' height='90'>","null","Learning example 1",""
"","","","","","html-button-response","135","235724","0.0-121.0-0.0-0.0","73","1","2025-01-31 01:50:41","af8d355d56820e421d246a7037deb6e6","162.237.52.23","Mozilla/5.0 (Windows NT 10.0; Win64; x64) AppleWebKit/537.36 (KHTML, like Gecko) Chrome/132.0.0.0 Safari/537.36","WebKit","Chrome","132.0.0.0","Windows","10.0","https://app.prolific.com/","en-US,en;q=0.9","66e0ff9d08256be084cd8c81","67949641171f97c04e14fb34","679c2bb3e12d7ac82c5e484d","","1681","<img id='swapped'  src='G_3.jpg' height='90'> <img id='swapped'  src='G_7.jpg' height='90'> <img   src='G_4.jpg' height='90'> <img src='G_8.jpg' height='90'> <img src='G_5.jpg' height='90'> <img src='G_1.jpg' height='90'> <img src='G_6.jpg' height='90'> <img src='G_2.jpg' height='90'>","1","Learning example 1",""
"","","","","","html-button-response","136","236609","0.0-121.1-0.1-0.1","73","1","2025-01-31 01:50:41","af8d355d56820e421d246a7037deb6e6","162.237.52.23","Mozilla/5.0 (Windows NT 10.0; Win64; x64) AppleWebKit/537.36 (KHTML, like Gecko) Chrome/132.0.0.0 Safari/537.36","WebKit","Chrome","132.0.0.0","Windows","10.0","https://app.prolific.com/","en-US,en;q=0.9","66e0ff9d08256be084cd8c81","67949641171f97c04e14fb34","679c2bb3e12d7ac82c5e484d","","879","<img id='swapped'  src='G_3.jpg' height='90'> <img id='swapped'  src='G_7.jpg' height='90'> <img   src='G_4.jpg' height='90'> <img src='G_8.jpg' height='90'> <img src='G_5.jpg' height='90'> <img src='G_1.jpg' height='90'> <img src='G_6.jpg' height='90'> <img src='G_2.jpg' height='90'>","0","Learning example 1",""
"","","","","","html-button-response","137","236828","0.0-122.0","73","1","2025-01-31 01:50:41","af8d355d56820e421d246a7037deb6e6","162.237.52.23","Mozilla/5.0 (Windows NT 10.0; Win64; x64) AppleWebKit/537.36 (KHTML, like Gecko) Chrome/132.0.0.0 Safari/537.36","WebKit","Chrome","132.0.0.0","Windows","10.0","https://app.prolific.com/","en-US,en;q=0.9","66e0ff9d08256be084cd8c81","67949641171f97c04e14fb34","679c2bb3e12d7ac82c5e484d","","null","<img   src='G_3.jpg' height='90'> <img   src='G_7.jpg' height='90'> <img   src='G_4.jpg' height='90'> <img src='G_8.jpg' height='90'> <img src='G_5.jpg' height='90'> <img src='G_1.jpg' height='90'> <img src='G_6.jpg' height='90'> <img src='G_2.jpg' height='90'>","null","Learning example 1",""
"","","","","","html-button-response","138","237239","0.0-123.0","73","1","2025-01-31 01:50:41","af8d355d56820e421d246a7037deb6e6","162.237.52.23","Mozilla/5.0 (Windows NT 10.0; Win64; x64) AppleWebKit/537.36 (KHTML, like Gecko) Chrome/132.0.0.0 Safari/537.36","WebKit","Chrome","132.0.0.0","Windows","10.0","https://app.prolific.com/","en-US,en;q=0.9","66e0ff9d08256be084cd8c81","67949641171f97c04e14fb34","679c2bb3e12d7ac82c5e484d","","null","<img   src='G_3.jpg' height='90'> <img   src='G_7.jpg' height='90'> <img id='selected'   src='G_4.jpg' height='90'> <img src='G_8.jpg' height='90'> <img src='G_5.jpg' height='90'> <img src='G_1.jpg' height='90'> <img src='G_6.jpg' height='90'> <img src='G_2.jpg' height='90'>","null","Learning example 1",""
"","","","","","html-button-response","139","237555","0.0-124.0","73","1","2025-01-31 01:50:41","af8d355d56820e421d246a7037deb6e6","162.237.52.23","Mozilla/5.0 (Windows NT 10.0; Win64; x64) AppleWebKit/537.36 (KHTML, like Gecko) Chrome/132.0.0.0 Safari/537.36","WebKit","Chrome","132.0.0.0","Windows","10.0","https://app.prolific.com/","en-US,en;q=0.9","66e0ff9d08256be084cd8c81","67949641171f97c04e14fb34","679c2bb3e12d7ac82c5e484d","","null","<img   src='G_3.jpg' height='90'> <img   src='G_7.jpg' height='90'> <img id='selected'   src='G_4.jpg' height='90'> <img id='selected' src='G_8.jpg' height='90'> <img src='G_5.jpg' height='90'> <img src='G_1.jpg' height='90'> <img src='G_6.jpg' height='90'> <img src='G_2.jpg' height='90'>","null","Learning example 1",""
"","","","","","html-button-response","140","237872","0.0-125.0","73","1","2025-01-31 01:50:41","af8d355d56820e421d246a7037deb6e6","162.237.52.23","Mozilla/5.0 (Windows NT 10.0; Win64; x64) AppleWebKit/537.36 (KHTML, like Gecko) Chrome/132.0.0.0 Safari/537.36","WebKit","Chrome","132.0.0.0","Windows","10.0","https://app.prolific.com/","en-US,en;q=0.9","66e0ff9d08256be084cd8c81","67949641171f97c04e14fb34","679c2bb3e12d7ac82c5e484d","","null","<img   src='G_3.jpg' height='90'> <img   src='G_7.jpg' height='90'> <img id='swapped' src='G_8.jpg' height='90'> <img id='swapped'   src='G_4.jpg' height='90'> <img src='G_5.jpg' height='90'> <img src='G_1.jpg' height='90'> <img src='G_6.jpg' height='90'> <img src='G_2.jpg' height='90'>","null","Learning example 1",""
"","","","","","html-button-response","141","239244","0.0-126.0-0.0-0.0","73","1","2025-01-31 01:50:41","af8d355d56820e421d246a7037deb6e6","162.237.52.23","Mozilla/5.0 (Windows NT 10.0; Win64; x64) AppleWebKit/537.36 (KHTML, like Gecko) Chrome/132.0.0.0 Safari/537.36","WebKit","Chrome","132.0.0.0","Windows","10.0","https://app.prolific.com/","en-US,en;q=0.9","66e0ff9d08256be084cd8c81","67949641171f97c04e14fb34","679c2bb3e12d7ac82c5e484d","","1369","<img   src='G_3.jpg' height='90'> <img   src='G_7.jpg' height='90'> <img id='swapped' src='G_8.jpg' height='90'> <img id='swapped'   src='G_4.jpg' height='90'> <img src='G_5.jpg' height='90'> <img src='G_1.jpg' height='90'> <img src='G_6.jpg' height='90'> <img src='G_2.jpg' height='90'>","2","Learning example 1",""
