"success","timeout","failed_images","failed_audio","failed_video","trial_type","trial_index","time_elapsed","internal_node_id","run_id","condition","recorded_at","source_code_version","ip","user_agent","device","browser","browser_version","platform","platform_version","referer","accept_language","PROLIFIC_PID","STUDY_ID","SESSION_ID","view_history","rt","stimulus","response","phase","question_order"
"true","false","[]","[]","[]","preload","0","584","0.0-0.0","75","1","2025-01-31 01:57:07","af8d355d56820e421d246a7037deb6e6","98.207.36.106","Mozilla/5.0 (Windows NT 10.0; Win64; x64) AppleWebKit/537.36 (KHTML, like Gecko) Chrome/132.0.0.0 Safari/537.36","WebKit","Chrome","132.0.0.0","Windows","10.0","https://app.prolific.com/","en-US,en;q=0.9","5c6a36214fbf270001311702","67949641171f97c04e14fb34","679c2c39a06e55cc294e66e0","","","","","",""
"","","","","","instructions","1","997455","0.0-1.0","75","1","2025-01-31 01:57:07","af8d355d56820e421d246a7037deb6e6","98.207.36.106","Mozilla/5.0 (Windows NT 10.0; Win64; x64) AppleWebKit/537.36 (KHTML, like Gecko) Chrome/132.0.0.0 Safari/537.36","WebKit","Chrome","132.0.0.0","Windows","10.0","https://app.prolific.com/","en-US,en;q=0.9","5c6a36214fbf270001311702","67949641171f97c04e14fb34","679c2c39a06e55cc294e66e0","[{""page_index"":0,""viewing_time"":996868}]","996868","","","",""
"","","","","","html-keyboard-response","2","998004","0.0-2.0","75","1","2025-01-31 01:57:07","af8d355d56820e421d246a7037deb6e6","98.207.36.106","Mozilla/5.0 (Windows NT 10.0; Win64; x64) AppleWebKit/537.36 (KHTML, like Gecko) Chrome/132.0.0.0 Safari/537.36","WebKit","Chrome","132.0.0.0","Windows","10.0","https://app.prolific.com/","en-US,en;q=0.9","5c6a36214fbf270001311702","67949641171f97c04e14fb34","679c2c39a06e55cc294e66e0","","null","<p> + <p/>","null","",""
"","","","","","instructions","3","1151633","0.0-3.0","75","1","2025-01-31 01:57:07","af8d355d56820e421d246a7037deb6e6","98.207.36.106","Mozilla/5.0 (Windows NT 10.0; Win64; x64) AppleWebKit/537.36 (KHTML, like Gecko) Chrome/132.0.0.0 Safari/537.36","WebKit","Chrome","132.0.0.0","Windows","10.0","https://app.prolific.com/","en-US,en;q=0.9","5c6a36214fbf270001311702","67949641171f97c04e14fb34","679c2c39a06e55cc294e66e0","[{""page_index"":0,""viewing_time"":41858},{""page_index"":1,""viewing_time"":22908},{""page_index"":2,""viewing_time"":21053},{""page_index"":3,""viewing_time"":49021},{""page_index"":4,""viewing_time"":18766}]","153606","","","",""
"","","","","","html-button-response","4","1191129","0.0-4.0-0.0-0.0","75","1","2025-01-31 01:57:07","af8d355d56820e421d246a7037deb6e6","98.207.36.106","Mozilla/5.0 (Windows NT 10.0; Win64; x64) AppleWebKit/537.36 (KHTML, like Gecko) Chrome/132.0.0.0 Safari/537.36","WebKit","Chrome","132.0.0.0","Windows","10.0","https://app.prolific.com/","en-US,en;q=0.9","5c6a36214fbf270001311702","67949641171f97c04e14fb34","679c2c39a06e55cc294e66e0","","39494","","1","Intro Trial",""
"","","","","","html-button-response","5","1192545","0.0-4.1-0.1-0.1","75","1","2025-01-31 01:57:07","af8d355d56820e421d246a7037deb6e6","98.207.36.106","Mozilla/5.0 (Windows NT 10.0; Win64; x64) AppleWebKit/537.36 (KHTML, like Gecko) Chrome/132.0.0.0 Safari/537.36","WebKit","Chrome","132.0.0.0","Windows","10.0","https://app.prolific.com/","en-US,en;q=0.9","5c6a36214fbf270001311702","67949641171f97c04e14fb34","679c2c39a06e55cc294e66e0","","1414","","1","Intro Trial",""
"","","","","","html-button-response","6","1193925","0.0-4.2-0.2-0.2","75","1","2025-01-31 01:57:07","af8d355d56820e421d246a7037deb6e6","98.207.36.106","Mozilla/5.0 (Windows NT 10.0; Win64; x64) AppleWebKit/537.36 (KHTML, like Gecko) Chrome/132.0.0.0 Safari/537.36","WebKit","Chrome","132.0.0.0","Windows","10.0","https://app.prolific.com/","en-US,en;q=0.9","5c6a36214fbf270001311702","67949641171f97c04e14fb34","679c2c39a06e55cc294e66e0","","1378","","0","Intro Trial",""
"","","","","","html-button-response","7","1194890","0.0-4.3-0.3-0.3","75","1","2025-01-31 01:57:07","af8d355d56820e421d246a7037deb6e6","98.207.36.106","Mozilla/5.0 (Windows NT 10.0; Win64; x64) AppleWebKit/537.36 (KHTML, like Gecko) Chrome/132.0.0.0 Safari/537.36","WebKit","Chrome","132.0.0.0","Windows","10.0","https://app.prolific.com/","en-US,en;q=0.9","5c6a36214fbf270001311702","67949641171f97c04e14fb34","679c2c39a06e55cc294e66e0","","962","","1","Intro Trial",""
"","","","","","html-button-response","8","1203017","0.0-4.4-0.4-0.4","75","1","2025-01-31 01:57:07","af8d355d56820e421d246a7037deb6e6","98.207.36.106","Mozilla/5.0 (Windows NT 10.0; Win64; x64) AppleWebKit/537.36 (KHTML, like Gecko) Chrome/132.0.0.0 Safari/537.36","WebKit","Chrome","132.0.0.0","Windows","10.0","https://app.prolific.com/","en-US,en;q=0.9","5c6a36214fbf270001311702","67949641171f97c04e14fb34","679c2c39a06e55cc294e66e0","","8125","","3","Intro Trial",""
"","","","","","html-button-response","9","1204616","0.0-4.5-0.5-0.5","75","1","2025-01-31 01:57:07","af8d355d56820e421d246a7037deb6e6","98.207.36.106","Mozilla/5.0 (Windows NT 10.0; Win64; x64) AppleWebKit/537.36 (KHTML, like Gecko) Chrome/132.0.0.0 Safari/537.36","WebKit","Chrome","132.0.0.0","Windows","10.0","https://app.prolific.com/","en-US,en;q=0.9","5c6a36214fbf270001311702","67949641171f97c04e14fb34","679c2c39a06e55cc294e66e0","","1597","","0","Intro Trial",""
"","","","","","html-button-response","10","1205798","0.0-4.6-0.6-0.6","75","1","2025-01-31 01:57:07","af8d355d56820e421d246a7037deb6e6","98.207.36.106","Mozilla/5.0 (Windows NT 10.0; Win64; x64) AppleWebKit/537.36 (KHTML, like Gecko) Chrome/132.0.0.0 Safari/537.36","WebKit","Chrome","132.0.0.0","Windows","10.0","https://app.prolific.com/","en-US,en;q=0.9","5c6a36214fbf270001311702","67949641171f97c04e14fb34","679c2c39a06e55cc294e66e0","","1180","","0","Intro Trial",""
"","","","","","html-button-response","11","1208528","0.0-4.7-0.7-0.7","75","1","2025-01-31 01:57:07","af8d355d56820e421d246a7037deb6e6","98.207.36.106","Mozilla/5.0 (Windows NT 10.0; Win64; x64) AppleWebKit/537.36 (KHTML, like Gecko) Chrome/132.0.0.0 Safari/537.36","WebKit","Chrome","132.0.0.0","Windows","10.0","https://app.prolific.com/","en-US,en;q=0.9","5c6a36214fbf270001311702","67949641171f97c04e14fb34","679c2c39a06e55cc294e66e0","","2728","","2","Intro Trial",""
"","","","","","html-button-response","12","1211674","0.0-4.8-0.8-0.8","75","1","2025-01-31 01:57:07","af8d355d56820e421d246a7037deb6e6","98.207.36.106","Mozilla/5.0 (Windows NT 10.0; Win64; x64) AppleWebKit/537.36 (KHTML, like Gecko) Chrome/132.0.0.0 Safari/537.36","WebKit","Chrome","132.0.0.0","Windows","10.0","https://app.prolific.com/","en-US,en;q=0.9","5c6a36214fbf270001311702","67949641171f97c04e14fb34","679c2c39a06e55cc294e66e0","","3145","","5","Intro Trial",""
"","","","","","html-keyboard-response","13","1238389","0.0-5.0","75","1","2025-01-31 01:57:07","af8d355d56820e421d246a7037deb6e6","98.207.36.106","Mozilla/5.0 (Windows NT 10.0; Win64; x64) AppleWebKit/537.36 (KHTML, like Gecko) Chrome/132.0.0.0 Safari/537.36","WebKit","Chrome","132.0.0.0","Windows","10.0","https://app.prolific.com/","en-US,en;q=0.9","5c6a36214fbf270001311702","67949641171f97c04e14fb34","679c2c39a06e55cc294e66e0","","26712","[""You sorted incorrectly by using the balance 3 times. <br><br> <img src='G_2.jpg' height='90'><img src='G_1.jpg' height='90'><img src='G_3.jpg' height='90'><img src='G_4.jpg' height='90'><img src='G_5.jpg' height='90'><br><br> Your final order is 2,4,3,5,1<br><br><br>Omgne Sort in this game will allow you to sort correctly by using the balance 8 times. Press Enter to learn it!""]","enter","",""
"","","","","","html-keyboard-response","14","1275323","0.0-6.0","75","1","2025-01-31 01:57:07","af8d355d56820e421d246a7037deb6e6","98.207.36.106","Mozilla/5.0 (Windows NT 10.0; Win64; x64) AppleWebKit/537.36 (KHTML, like Gecko) Chrome/132.0.0.0 Safari/537.36","WebKit","Chrome","132.0.0.0","Windows","10.0","https://app.prolific.com/","en-US,en;q=0.9","5c6a36214fbf270001311702","67949641171f97c04e14fb34","679c2c39a06e55cc294e66e0","","36933","<p>Welcome to the learning phase! <br><br> You will learn by six examples. The following learning trials will not be used to calculate your performance. <br><br> Press Enter to continue.<p/>","enter","",""
"","","","","","html-keyboard-response","15","1280594","0.0-7.0","75","1","2025-01-31 01:57:07","af8d355d56820e421d246a7037deb6e6","98.207.36.106","Mozilla/5.0 (Windows NT 10.0; Win64; x64) AppleWebKit/537.36 (KHTML, like Gecko) Chrome/132.0.0.0 Safari/537.36","WebKit","Chrome","132.0.0.0","Windows","10.0","https://app.prolific.com/","en-US,en;q=0.9","5c6a36214fbf270001311702","67949641171f97c04e14fb34","679c2c39a06e55cc294e66e0","","5269","[""Example 1<br><br>You will watch Omnge Sort in action. Try to identify any patterns in the comparisons made by this method. <br><br>Press Enter to continue.""]","enter","",""
"","","","","","html-keyboard-response","16","1281104","0.0-8.0","75","1","2025-01-31 01:57:07","af8d355d56820e421d246a7037deb6e6","98.207.36.106","Mozilla/5.0 (Windows NT 10.0; Win64; x64) AppleWebKit/537.36 (KHTML, like Gecko) Chrome/132.0.0.0 Safari/537.36","WebKit","Chrome","132.0.0.0","Windows","10.0","https://app.prolific.com/","en-US,en;q=0.9","5c6a36214fbf270001311702","67949641171f97c04e14fb34","679c2c39a06e55cc294e66e0","","null","<img id='selected' src='G_7.jpg' height='90'> <img src='G_3.jpg' height='90'> <img src='G_9.jpg' height='90'> <img src='G_5.jpg' height='90'> <img src='G_1.jpg' height='90'>","null","Animation0",""
"","","","","","html-keyboard-response","17","1281608","0.0-9.0","75","1","2025-01-31 01:57:07","af8d355d56820e421d246a7037deb6e6","98.207.36.106","Mozilla/5.0 (Windows NT 10.0; Win64; x64) AppleWebKit/537.36 (KHTML, like Gecko) Chrome/132.0.0.0 Safari/537.36","WebKit","Chrome","132.0.0.0","Windows","10.0","https://app.prolific.com/","en-US,en;q=0.9","5c6a36214fbf270001311702","67949641171f97c04e14fb34","679c2c39a06e55cc294e66e0","","null","<img id='selected' src='G_7.jpg' height='90'> <img id='selected' src='G_3.jpg' height='90'> <img src='G_9.jpg' height='90'> <img src='G_5.jpg' height='90'> <img src='G_1.jpg' height='90'>","null","Animation0",""
"","","","","","html-keyboard-response","18","1282111","0.0-10.0","75","1","2025-01-31 01:57:07","af8d355d56820e421d246a7037deb6e6","98.207.36.106","Mozilla/5.0 (Windows NT 10.0; Win64; x64) AppleWebKit/537.36 (KHTML, like Gecko) Chrome/132.0.0.0 Safari/537.36","WebKit","Chrome","132.0.0.0","Windows","10.0","https://app.prolific.com/","en-US,en;q=0.9","5c6a36214fbf270001311702","67949641171f97c04e14fb34","679c2c39a06e55cc294e66e0","","null","<img id='swapped' src='G_3.jpg' height='90'> <img id='swapped' src='G_7.jpg' height='90'> <img src='G_9.jpg' height='90'> <img src='G_5.jpg' height='90'> <img src='G_1.jpg' height='90'>","null","Animation0",""
"","","","","","html-keyboard-response","19","1282413","0.0-11.0","75","1","2025-01-31 01:57:07","af8d355d56820e421d246a7037deb6e6","98.207.36.106","Mozilla/5.0 (Windows NT 10.0; Win64; x64) AppleWebKit/537.36 (KHTML, like Gecko) Chrome/132.0.0.0 Safari/537.36","WebKit","Chrome","132.0.0.0","Windows","10.0","https://app.prolific.com/","en-US,en;q=0.9","5c6a36214fbf270001311702","67949641171f97c04e14fb34","679c2c39a06e55cc294e66e0","","null","<img  src='G_3.jpg' height='90'> <img  src='G_7.jpg' height='90'> <img src='G_9.jpg' height='90'> <img src='G_5.jpg' height='90'> <img src='G_1.jpg' height='90'>","null","Animation0",""
"","","","","","html-keyboard-response","20","1282922","0.0-12.0","75","1","2025-01-31 01:57:07","af8d355d56820e421d246a7037deb6e6","98.207.36.106","Mozilla/5.0 (Windows NT 10.0; Win64; x64) AppleWebKit/537.36 (KHTML, like Gecko) Chrome/132.0.0.0 Safari/537.36","WebKit","Chrome","132.0.0.0","Windows","10.0","https://app.prolific.com/","en-US,en;q=0.9","5c6a36214fbf270001311702","67949641171f97c04e14fb34","679c2c39a06e55cc294e66e0","","null","<img  src='G_3.jpg' height='90'> <img id='selected'  src='G_7.jpg' height='90'> <img src='G_9.jpg' height='90'> <img src='G_5.jpg' height='90'> <img src='G_1.jpg' height='90'>","null","Animation0",""
"","","","","","html-keyboard-response","21","1283438","0.0-13.0","75","1","2025-01-31 01:57:07","af8d355d56820e421d246a7037deb6e6","98.207.36.106","Mozilla/5.0 (Windows NT 10.0; Win64; x64) AppleWebKit/537.36 (KHTML, like Gecko) Chrome/132.0.0.0 Safari/537.36","WebKit","Chrome","132.0.0.0","Windows","10.0","https://app.prolific.com/","en-US,en;q=0.9","5c6a36214fbf270001311702","67949641171f97c04e14fb34","679c2c39a06e55cc294e66e0","","null","<img  src='G_3.jpg' height='90'> <img id='selected'  src='G_7.jpg' height='90'> <img id='selected' src='G_9.jpg' height='90'> <img src='G_5.jpg' height='90'> <img src='G_1.jpg' height='90'>","null","Animation0",""
"","","","","","html-keyboard-response","22","1283954","0.0-14.0","75","1","2025-01-31 01:57:07","af8d355d56820e421d246a7037deb6e6","98.207.36.106","Mozilla/5.0 (Windows NT 10.0; Win64; x64) AppleWebKit/537.36 (KHTML, like Gecko) Chrome/132.0.0.0 Safari/537.36","WebKit","Chrome","132.0.0.0","Windows","10.0","https://app.prolific.com/","en-US,en;q=0.9","5c6a36214fbf270001311702","67949641171f97c04e14fb34","679c2c39a06e55cc294e66e0","","null","<img  src='G_3.jpg' height='90'> <img id='selected'  src='G_7.jpg' height='90'> <img id='selected' src='G_9.jpg' height='90'> <img src='G_5.jpg' height='90'> <img src='G_1.jpg' height='90'>","null","Animation0",""
"","","","","","html-keyboard-response","23","1284256","0.0-15.0","75","1","2025-01-31 01:57:07","af8d355d56820e421d246a7037deb6e6","98.207.36.106","Mozilla/5.0 (Windows NT 10.0; Win64; x64) AppleWebKit/537.36 (KHTML, like Gecko) Chrome/132.0.0.0 Safari/537.36","WebKit","Chrome","132.0.0.0","Windows","10.0","https://app.prolific.com/","en-US,en;q=0.9","5c6a36214fbf270001311702","67949641171f97c04e14fb34","679c2c39a06e55cc294e66e0","","null","<img  src='G_3.jpg' height='90'> <img   src='G_7.jpg' height='90'> <img  src='G_9.jpg' height='90'> <img src='G_5.jpg' height='90'> <img src='G_1.jpg' height='90'>","null","Animation0",""
"","","","","","html-keyboard-response","24","1284771","0.0-16.0","75","1","2025-01-31 01:57:07","af8d355d56820e421d246a7037deb6e6","98.207.36.106","Mozilla/5.0 (Windows NT 10.0; Win64; x64) AppleWebKit/537.36 (KHTML, like Gecko) Chrome/132.0.0.0 Safari/537.36","WebKit","Chrome","132.0.0.0","Windows","10.0","https://app.prolific.com/","en-US,en;q=0.9","5c6a36214fbf270001311702","67949641171f97c04e14fb34","679c2c39a06e55cc294e66e0","","null","<img  src='G_3.jpg' height='90'> <img   src='G_7.jpg' height='90'> <img id='selected'  src='G_9.jpg' height='90'> <img src='G_5.jpg' height='90'> <img src='G_1.jpg' height='90'>","null","Animation0",""
"","","","","","html-keyboard-response","25","1285285","0.0-17.0","75","1","2025-01-31 01:57:07","af8d355d56820e421d246a7037deb6e6","98.207.36.106","Mozilla/5.0 (Windows NT 10.0; Win64; x64) AppleWebKit/537.36 (KHTML, like Gecko) Chrome/132.0.0.0 Safari/537.36","WebKit","Chrome","132.0.0.0","Windows","10.0","https://app.prolific.com/","en-US,en;q=0.9","5c6a36214fbf270001311702","67949641171f97c04e14fb34","679c2c39a06e55cc294e66e0","","null","<img  src='G_3.jpg' height='90'> <img   src='G_7.jpg' height='90'> <img id='selected'  src='G_9.jpg' height='90'> <img id='selected' src='G_5.jpg' height='90'> <img src='G_1.jpg' height='90'>","null","Animation0",""
"","","","","","html-keyboard-response","26","1285797","0.0-18.0","75","1","2025-01-31 01:57:07","af8d355d56820e421d246a7037deb6e6","98.207.36.106","Mozilla/5.0 (Windows NT 10.0; Win64; x64) AppleWebKit/537.36 (KHTML, like Gecko) Chrome/132.0.0.0 Safari/537.36","WebKit","Chrome","132.0.0.0","Windows","10.0","https://app.prolific.com/","en-US,en;q=0.9","5c6a36214fbf270001311702","67949641171f97c04e14fb34","679c2c39a06e55cc294e66e0","","null","<img  src='G_3.jpg' height='90'> <img   src='G_7.jpg' height='90'> <img id='selected'  src='G_9.jpg' height='90'> <img id='selected' src='G_5.jpg' height='90'> <img src='G_1.jpg' height='90'>","null","Animation0",""
"","","","","","html-keyboard-response","27","1286102","0.0-19.0","75","1","2025-01-31 01:57:07","af8d355d56820e421d246a7037deb6e6","98.207.36.106","Mozilla/5.0 (Windows NT 10.0; Win64; x64) AppleWebKit/537.36 (KHTML, like Gecko) Chrome/132.0.0.0 Safari/537.36","WebKit","Chrome","132.0.0.0","Windows","10.0","https://app.prolific.com/","en-US,en;q=0.9","5c6a36214fbf270001311702","67949641171f97c04e14fb34","679c2c39a06e55cc294e66e0","","null","<img  src='G_3.jpg' height='90'> <img   src='G_7.jpg' height='90'> <img   src='G_9.jpg' height='90'> <img  src='G_5.jpg' height='90'> <img src='G_1.jpg' height='90'>","null","Animation0",""
"","","","","","html-keyboard-response","28","1286619","0.0-20.0","75","1","2025-01-31 01:57:07","af8d355d56820e421d246a7037deb6e6","98.207.36.106","Mozilla/5.0 (Windows NT 10.0; Win64; x64) AppleWebKit/537.36 (KHTML, like Gecko) Chrome/132.0.0.0 Safari/537.36","WebKit","Chrome","132.0.0.0","Windows","10.0","https://app.prolific.com/","en-US,en;q=0.9","5c6a36214fbf270001311702","67949641171f97c04e14fb34","679c2c39a06e55cc294e66e0","","null","<img  src='G_3.jpg' height='90'> <img   src='G_7.jpg' height='90'> <img   src='G_9.jpg' height='90'> <img id='selected'  src='G_5.jpg' height='90'> <img src='G_1.jpg' height='90'>","null","Animation0",""
"","","","","","html-keyboard-response","29","1287135","0.0-21.0","75","1","2025-01-31 01:57:07","af8d355d56820e421d246a7037deb6e6","98.207.36.106","Mozilla/5.0 (Windows NT 10.0; Win64; x64) AppleWebKit/537.36 (KHTML, like Gecko) Chrome/132.0.0.0 Safari/537.36","WebKit","Chrome","132.0.0.0","Windows","10.0","https://app.prolific.com/","en-US,en;q=0.9","5c6a36214fbf270001311702","67949641171f97c04e14fb34","679c2c39a06e55cc294e66e0","","null","<img  src='G_3.jpg' height='90'> <img   src='G_7.jpg' height='90'> <img   src='G_9.jpg' height='90'> <img id='selected'  src='G_5.jpg' height='90'> <img id='selected' src='G_1.jpg' height='90'>","null","Animation0",""
"","","","","","html-keyboard-response","30","1287649","0.0-22.0","75","1","2025-01-31 01:57:07","af8d355d56820e421d246a7037deb6e6","98.207.36.106","Mozilla/5.0 (Windows NT 10.0; Win64; x64) AppleWebKit/537.36 (KHTML, like Gecko) Chrome/132.0.0.0 Safari/537.36","WebKit","Chrome","132.0.0.0","Windows","10.0","https://app.prolific.com/","en-US,en;q=0.9","5c6a36214fbf270001311702","67949641171f97c04e14fb34","679c2c39a06e55cc294e66e0","","null","<img  src='G_3.jpg' height='90'> <img   src='G_7.jpg' height='90'> <img   src='G_9.jpg' height='90'> <img id='selected'  src='G_5.jpg' height='90'> <img id='selected' src='G_1.jpg' height='90'>","null","Animation0",""
"","","","","","html-keyboard-response","31","1287965","0.0-23.0","75","1","2025-01-31 01:57:07","af8d355d56820e421d246a7037deb6e6","98.207.36.106","Mozilla/5.0 (Windows NT 10.0; Win64; x64) AppleWebKit/537.36 (KHTML, like Gecko) Chrome/132.0.0.0 Safari/537.36","WebKit","Chrome","132.0.0.0","Windows","10.0","https://app.prolific.com/","en-US,en;q=0.9","5c6a36214fbf270001311702","67949641171f97c04e14fb34","679c2c39a06e55cc294e66e0","","null","<img  src='G_3.jpg' height='90'> <img   src='G_7.jpg' height='90'> <img   src='G_9.jpg' height='90'> <img   src='G_5.jpg' height='90'> <img  src='G_1.jpg' height='90'>","null","Animation0",""
"","","","","","html-keyboard-response","32","1290061","0.0-24.0","75","1","2025-01-31 01:57:07","af8d355d56820e421d246a7037deb6e6","98.207.36.106","Mozilla/5.0 (Windows NT 10.0; Win64; x64) AppleWebKit/537.36 (KHTML, like Gecko) Chrome/132.0.0.0 Safari/537.36","WebKit","Chrome","132.0.0.0","Windows","10.0","https://app.prolific.com/","en-US,en;q=0.9","5c6a36214fbf270001311702","67949641171f97c04e14fb34","679c2c39a06e55cc294e66e0","","2095","[""Did you notice any patterns? <br><br>Press Enter to watch that example again and follow the steps of Omgne Sort.""]","enter","",""
"","","","","","html-button-response","33","1290464","0.0-25.0","75","1","2025-01-31 01:57:07","af8d355d56820e421d246a7037deb6e6","98.207.36.106","Mozilla/5.0 (Windows NT 10.0; Win64; x64) AppleWebKit/537.36 (KHTML, like Gecko) Chrome/132.0.0.0 Safari/537.36","WebKit","Chrome","132.0.0.0","Windows","10.0","https://app.prolific.com/","en-US,en;q=0.9","5c6a36214fbf270001311702","67949641171f97c04e14fb34","679c2c39a06e55cc294e66e0","","null","<img id='selected' src='G_7.jpg' height='90'> <img src='G_3.jpg' height='90'> <img src='G_9.jpg' height='90'> <img src='G_5.jpg' height='90'> <img src='G_1.jpg' height='90'>","null","Learning example 0",""
"","","","","","html-button-response","34","1290766","0.0-26.0","75","1","2025-01-31 01:57:07","af8d355d56820e421d246a7037deb6e6","98.207.36.106","Mozilla/5.0 (Windows NT 10.0; Win64; x64) AppleWebKit/537.36 (KHTML, like Gecko) Chrome/132.0.0.0 Safari/537.36","WebKit","Chrome","132.0.0.0","Windows","10.0","https://app.prolific.com/","en-US,en;q=0.9","5c6a36214fbf270001311702","67949641171f97c04e14fb34","679c2c39a06e55cc294e66e0","","null","<img id='selected' src='G_7.jpg' height='90'> <img id='selected' src='G_3.jpg' height='90'> <img src='G_9.jpg' height='90'> <img src='G_5.jpg' height='90'> <img src='G_1.jpg' height='90'>","null","Learning example 0",""
"","","","","","html-button-response","35","1291070","0.0-27.0","75","1","2025-01-31 01:57:07","af8d355d56820e421d246a7037deb6e6","98.207.36.106","Mozilla/5.0 (Windows NT 10.0; Win64; x64) AppleWebKit/537.36 (KHTML, like Gecko) Chrome/132.0.0.0 Safari/537.36","WebKit","Chrome","132.0.0.0","Windows","10.0","https://app.prolific.com/","en-US,en;q=0.9","5c6a36214fbf270001311702","67949641171f97c04e14fb34","679c2c39a06e55cc294e66e0","","null","<img id='swapped' src='G_3.jpg' height='90'> <img id='swapped' src='G_7.jpg' height='90'> <img src='G_9.jpg' height='90'> <img src='G_5.jpg' height='90'> <img src='G_1.jpg' height='90'>","null","Learning example 0",""
"","","","","","html-button-response","36","1313204","0.0-28.0-0.0-0.0","75","1","2025-01-31 01:57:07","af8d355d56820e421d246a7037deb6e6","98.207.36.106","Mozilla/5.0 (Windows NT 10.0; Win64; x64) AppleWebKit/537.36 (KHTML, like Gecko) Chrome/132.0.0.0 Safari/537.36","WebKit","Chrome","132.0.0.0","Windows","10.0","https://app.prolific.com/","en-US,en;q=0.9","5c6a36214fbf270001311702","67949641171f97c04e14fb34","679c2c39a06e55cc294e66e0","","22131","<img id='swapped' src='G_3.jpg' height='90'> <img id='swapped' src='G_7.jpg' height='90'> <img src='G_9.jpg' height='90'> <img src='G_5.jpg' height='90'> <img src='G_1.jpg' height='90'>","0","Learning example 0",""
"","","","","","html-button-response","37","1314221","0.0-28.1-0.1-0.1","75","1","2025-01-31 01:57:07","af8d355d56820e421d246a7037deb6e6","98.207.36.106","Mozilla/5.0 (Windows NT 10.0; Win64; x64) AppleWebKit/537.36 (KHTML, like Gecko) Chrome/132.0.0.0 Safari/537.36","WebKit","Chrome","132.0.0.0","Windows","10.0","https://app.prolific.com/","en-US,en;q=0.9","5c6a36214fbf270001311702","67949641171f97c04e14fb34","679c2c39a06e55cc294e66e0","","1014","<img id='swapped' src='G_3.jpg' height='90'> <img id='swapped' src='G_7.jpg' height='90'> <img src='G_9.jpg' height='90'> <img src='G_5.jpg' height='90'> <img src='G_1.jpg' height='90'>","1","Learning example 0",""
"","","","","","html-button-response","38","1314437","0.0-29.0","75","1","2025-01-31 01:57:07","af8d355d56820e421d246a7037deb6e6","98.207.36.106","Mozilla/5.0 (Windows NT 10.0; Win64; x64) AppleWebKit/537.36 (KHTML, like Gecko) Chrome/132.0.0.0 Safari/537.36","WebKit","Chrome","132.0.0.0","Windows","10.0","https://app.prolific.com/","en-US,en;q=0.9","5c6a36214fbf270001311702","67949641171f97c04e14fb34","679c2c39a06e55cc294e66e0","","null","<img  src='G_3.jpg' height='90'> <img  src='G_7.jpg' height='90'> <img src='G_9.jpg' height='90'> <img src='G_5.jpg' height='90'> <img src='G_1.jpg' height='90'>","null","Learning example 0",""
"","","","","","html-button-response","39","1314852","0.0-30.0","75","1","2025-01-31 01:57:07","af8d355d56820e421d246a7037deb6e6","98.207.36.106","Mozilla/5.0 (Windows NT 10.0; Win64; x64) AppleWebKit/537.36 (KHTML, like Gecko) Chrome/132.0.0.0 Safari/537.36","WebKit","Chrome","132.0.0.0","Windows","10.0","https://app.prolific.com/","en-US,en;q=0.9","5c6a36214fbf270001311702","67949641171f97c04e14fb34","679c2c39a06e55cc294e66e0","","null","<img  src='G_3.jpg' height='90'> <img id='selected'  src='G_7.jpg' height='90'> <img src='G_9.jpg' height='90'> <img src='G_5.jpg' height='90'> <img src='G_1.jpg' height='90'>","null","Learning example 0",""
"","","","","","html-button-response","40","1315169","0.0-31.0","75","1","2025-01-31 01:57:07","af8d355d56820e421d246a7037deb6e6","98.207.36.106","Mozilla/5.0 (Windows NT 10.0; Win64; x64) AppleWebKit/537.36 (KHTML, like Gecko) Chrome/132.0.0.0 Safari/537.36","WebKit","Chrome","132.0.0.0","Windows","10.0","https://app.prolific.com/","en-US,en;q=0.9","5c6a36214fbf270001311702","67949641171f97c04e14fb34","679c2c39a06e55cc294e66e0","","null","<img  src='G_3.jpg' height='90'> <img id='selected'  src='G_7.jpg' height='90'> <img id='selected' src='G_9.jpg' height='90'> <img src='G_5.jpg' height='90'> <img src='G_1.jpg' height='90'>","null","Learning example 0",""
"","","","","","html-button-response","41","1315473","0.0-32.0","75","1","2025-01-31 01:57:07","af8d355d56820e421d246a7037deb6e6","98.207.36.106","Mozilla/5.0 (Windows NT 10.0; Win64; x64) AppleWebKit/537.36 (KHTML, like Gecko) Chrome/132.0.0.0 Safari/537.36","WebKit","Chrome","132.0.0.0","Windows","10.0","https://app.prolific.com/","en-US,en;q=0.9","5c6a36214fbf270001311702","67949641171f97c04e14fb34","679c2c39a06e55cc294e66e0","","null","<img  src='G_3.jpg' height='90'> <img id='selected'  src='G_7.jpg' height='90'> <img id='selected' src='G_9.jpg' height='90'> <img src='G_5.jpg' height='90'> <img src='G_1.jpg' height='90'>","null","Learning example 0",""
"","","","","","html-button-response","42","1318965","0.0-33.0-0.0-0.0","75","1","2025-01-31 01:57:07","af8d355d56820e421d246a7037deb6e6","98.207.36.106","Mozilla/5.0 (Windows NT 10.0; Win64; x64) AppleWebKit/537.36 (KHTML, like Gecko) Chrome/132.0.0.0 Safari/537.36","WebKit","Chrome","132.0.0.0","Windows","10.0","https://app.prolific.com/","en-US,en;q=0.9","5c6a36214fbf270001311702","67949641171f97c04e14fb34","679c2c39a06e55cc294e66e0","","3491","<img  src='G_3.jpg' height='90'> <img id='selected'  src='G_7.jpg' height='90'> <img id='selected' src='G_9.jpg' height='90'> <img src='G_5.jpg' height='90'> <img src='G_1.jpg' height='90'>","1","Learning example 0",""
"","","","","","html-button-response","43","1320114","0.0-33.1-0.1-0.1","75","1","2025-01-31 01:57:07","af8d355d56820e421d246a7037deb6e6","98.207.36.106","Mozilla/5.0 (Windows NT 10.0; Win64; x64) AppleWebKit/537.36 (KHTML, like Gecko) Chrome/132.0.0.0 Safari/537.36","WebKit","Chrome","132.0.0.0","Windows","10.0","https://app.prolific.com/","en-US,en;q=0.9","5c6a36214fbf270001311702","67949641171f97c04e14fb34","679c2c39a06e55cc294e66e0","","1146","<img  src='G_3.jpg' height='90'> <img id='selected'  src='G_7.jpg' height='90'> <img id='selected' src='G_9.jpg' height='90'> <img src='G_5.jpg' height='90'> <img src='G_1.jpg' height='90'>","2","Learning example 0",""
"","","","","","html-button-response","44","1320330","0.0-34.0","75","1","2025-01-31 01:57:07","af8d355d56820e421d246a7037deb6e6","98.207.36.106","Mozilla/5.0 (Windows NT 10.0; Win64; x64) AppleWebKit/537.36 (KHTML, like Gecko) Chrome/132.0.0.0 Safari/537.36","WebKit","Chrome","132.0.0.0","Windows","10.0","https://app.prolific.com/","en-US,en;q=0.9","5c6a36214fbf270001311702","67949641171f97c04e14fb34","679c2c39a06e55cc294e66e0","","null","<img  src='G_3.jpg' height='90'> <img   src='G_7.jpg' height='90'> <img  src='G_9.jpg' height='90'> <img src='G_5.jpg' height='90'> <img src='G_1.jpg' height='90'>","null","Learning example 0",""
"","","","","","html-button-response","45","1320745","0.0-35.0","75","1","2025-01-31 01:57:07","af8d355d56820e421d246a7037deb6e6","98.207.36.106","Mozilla/5.0 (Windows NT 10.0; Win64; x64) AppleWebKit/537.36 (KHTML, like Gecko) Chrome/132.0.0.0 Safari/537.36","WebKit","Chrome","132.0.0.0","Windows","10.0","https://app.prolific.com/","en-US,en;q=0.9","5c6a36214fbf270001311702","67949641171f97c04e14fb34","679c2c39a06e55cc294e66e0","","null","<img  src='G_3.jpg' height='90'> <img   src='G_7.jpg' height='90'> <img id='selected'  src='G_9.jpg' height='90'> <img src='G_5.jpg' height='90'> <img src='G_1.jpg' height='90'>","null","Learning example 0",""
"","","","","","html-button-response","46","1321062","0.0-36.0","75","1","2025-01-31 01:57:07","af8d355d56820e421d246a7037deb6e6","98.207.36.106","Mozilla/5.0 (Windows NT 10.0; Win64; x64) AppleWebKit/537.36 (KHTML, like Gecko) Chrome/132.0.0.0 Safari/537.36","WebKit","Chrome","132.0.0.0","Windows","10.0","https://app.prolific.com/","en-US,en;q=0.9","5c6a36214fbf270001311702","67949641171f97c04e14fb34","679c2c39a06e55cc294e66e0","","null","<img  src='G_3.jpg' height='90'> <img   src='G_7.jpg' height='90'> <img id='selected'  src='G_9.jpg' height='90'> <img id='selected' src='G_5.jpg' height='90'> <img src='G_1.jpg' height='90'>","null","Learning example 0",""
"","","","","","html-button-response","47","1321377","0.0-37.0","75","1","2025-01-31 01:57:07","af8d355d56820e421d246a7037deb6e6","98.207.36.106","Mozilla/5.0 (Windows NT 10.0; Win64; x64) AppleWebKit/537.36 (KHTML, like Gecko) Chrome/132.0.0.0 Safari/537.36","WebKit","Chrome","132.0.0.0","Windows","10.0","https://app.prolific.com/","en-US,en;q=0.9","5c6a36214fbf270001311702","67949641171f97c04e14fb34","679c2c39a06e55cc294e66e0","","null","<img  src='G_3.jpg' height='90'> <img   src='G_7.jpg' height='90'> <img id='selected'  src='G_9.jpg' height='90'> <img id='selected' src='G_5.jpg' height='90'> <img src='G_1.jpg' height='90'>","null","Learning example 0",""
"","","","","","html-button-response","48","1323078","0.0-38.0-0.0-0.0","75","1","2025-01-31 01:57:07","af8d355d56820e421d246a7037deb6e6","98.207.36.106","Mozilla/5.0 (Windows NT 10.0; Win64; x64) AppleWebKit/537.36 (KHTML, like Gecko) Chrome/132.0.0.0 Safari/537.36","WebKit","Chrome","132.0.0.0","Windows","10.0","https://app.prolific.com/","en-US,en;q=0.9","5c6a36214fbf270001311702","67949641171f97c04e14fb34","679c2c39a06e55cc294e66e0","","1698","<img  src='G_3.jpg' height='90'> <img   src='G_7.jpg' height='90'> <img id='selected'  src='G_9.jpg' height='90'> <img id='selected' src='G_5.jpg' height='90'> <img src='G_1.jpg' height='90'>","2","Learning example 0",""
"","","","","","html-button-response","49","1324860","0.0-38.1-0.1-0.1","75","1","2025-01-31 01:57:07","af8d355d56820e421d246a7037deb6e6","98.207.36.106","Mozilla/5.0 (Windows NT 10.0; Win64; x64) AppleWebKit/537.36 (KHTML, like Gecko) Chrome/132.0.0.0 Safari/537.36","WebKit","Chrome","132.0.0.0","Windows","10.0","https://app.prolific.com/","en-US,en;q=0.9","5c6a36214fbf270001311702","67949641171f97c04e14fb34","679c2c39a06e55cc294e66e0","","1779","<img  src='G_3.jpg' height='90'> <img   src='G_7.jpg' height='90'> <img id='selected'  src='G_9.jpg' height='90'> <img id='selected' src='G_5.jpg' height='90'> <img src='G_1.jpg' height='90'>","3","Learning example 0",""
"","","","","","html-button-response","50","1325073","0.0-39.0","75","1","2025-01-31 01:57:07","af8d355d56820e421d246a7037deb6e6","98.207.36.106","Mozilla/5.0 (Windows NT 10.0; Win64; x64) AppleWebKit/537.36 (KHTML, like Gecko) Chrome/132.0.0.0 Safari/537.36","WebKit","Chrome","132.0.0.0","Windows","10.0","https://app.prolific.com/","en-US,en;q=0.9","5c6a36214fbf270001311702","67949641171f97c04e14fb34","679c2c39a06e55cc294e66e0","","null","<img  src='G_3.jpg' height='90'> <img   src='G_7.jpg' height='90'> <img   src='G_9.jpg' height='90'> <img  src='G_5.jpg' height='90'> <img src='G_1.jpg' height='90'>","null","Learning example 0",""
"","","","","","html-button-response","51","1325476","0.0-40.0","75","1","2025-01-31 01:57:07","af8d355d56820e421d246a7037deb6e6","98.207.36.106","Mozilla/5.0 (Windows NT 10.0; Win64; x64) AppleWebKit/537.36 (KHTML, like Gecko) Chrome/132.0.0.0 Safari/537.36","WebKit","Chrome","132.0.0.0","Windows","10.0","https://app.prolific.com/","en-US,en;q=0.9","5c6a36214fbf270001311702","67949641171f97c04e14fb34","679c2c39a06e55cc294e66e0","","null","<img  src='G_3.jpg' height='90'> <img   src='G_7.jpg' height='90'> <img   src='G_9.jpg' height='90'> <img id='selected'  src='G_5.jpg' height='90'> <img src='G_1.jpg' height='90'>","null","Learning example 0",""
"","","","","","html-button-response","52","1325789","0.0-41.0","75","1","2025-01-31 01:57:07","af8d355d56820e421d246a7037deb6e6","98.207.36.106","Mozilla/5.0 (Windows NT 10.0; Win64; x64) AppleWebKit/537.36 (KHTML, like Gecko) Chrome/132.0.0.0 Safari/537.36","WebKit","Chrome","132.0.0.0","Windows","10.0","https://app.prolific.com/","en-US,en;q=0.9","5c6a36214fbf270001311702","67949641171f97c04e14fb34","679c2c39a06e55cc294e66e0","","null","<img  src='G_3.jpg' height='90'> <img   src='G_7.jpg' height='90'> <img   src='G_9.jpg' height='90'> <img id='selected'  src='G_5.jpg' height='90'> <img id='selected' src='G_1.jpg' height='90'>","null","Learning example 0",""
"","","","","","html-button-response","53","1326106","0.0-42.0","75","1","2025-01-31 01:57:07","af8d355d56820e421d246a7037deb6e6","98.207.36.106","Mozilla/5.0 (Windows NT 10.0; Win64; x64) AppleWebKit/537.36 (KHTML, like Gecko) Chrome/132.0.0.0 Safari/537.36","WebKit","Chrome","132.0.0.0","Windows","10.0","https://app.prolific.com/","en-US,en;q=0.9","5c6a36214fbf270001311702","67949641171f97c04e14fb34","679c2c39a06e55cc294e66e0","","null","<img  src='G_3.jpg' height='90'> <img   src='G_7.jpg' height='90'> <img   src='G_9.jpg' height='90'> <img id='selected'  src='G_5.jpg' height='90'> <img id='selected' src='G_1.jpg' height='90'>","null","Learning example 0",""
"","","","","","html-button-response","54","1326445","0.0-43.0-0.0-0.0","75","1","2025-01-31 01:57:07","af8d355d56820e421d246a7037deb6e6","98.207.36.106","Mozilla/5.0 (Windows NT 10.0; Win64; x64) AppleWebKit/537.36 (KHTML, like Gecko) Chrome/132.0.0.0 Safari/537.36","WebKit","Chrome","132.0.0.0","Windows","10.0","https://app.prolific.com/","en-US,en;q=0.9","5c6a36214fbf270001311702","67949641171f97c04e14fb34","679c2c39a06e55cc294e66e0","","336","<img  src='G_3.jpg' height='90'> <img   src='G_7.jpg' height='90'> <img   src='G_9.jpg' height='90'> <img id='selected'  src='G_5.jpg' height='90'> <img id='selected' src='G_1.jpg' height='90'>","3","Learning example 0",""
"","","","","","html-button-response","55","1327504","0.0-43.1-0.1-0.1","75","1","2025-01-31 01:57:07","af8d355d56820e421d246a7037deb6e6","98.207.36.106","Mozilla/5.0 (Windows NT 10.0; Win64; x64) AppleWebKit/537.36 (KHTML, like Gecko) Chrome/132.0.0.0 Safari/537.36","WebKit","Chrome","132.0.0.0","Windows","10.0","https://app.prolific.com/","en-US,en;q=0.9","5c6a36214fbf270001311702","67949641171f97c04e14fb34","679c2c39a06e55cc294e66e0","","1056","<img  src='G_3.jpg' height='90'> <img   src='G_7.jpg' height='90'> <img   src='G_9.jpg' height='90'> <img id='selected'  src='G_5.jpg' height='90'> <img id='selected' src='G_1.jpg' height='90'>","4","Learning example 0",""
"","","","","","html-button-response","56","1327719","0.0-44.0","75","1","2025-01-31 01:57:07","af8d355d56820e421d246a7037deb6e6","98.207.36.106","Mozilla/5.0 (Windows NT 10.0; Win64; x64) AppleWebKit/537.36 (KHTML, like Gecko) Chrome/132.0.0.0 Safari/537.36","WebKit","Chrome","132.0.0.0","Windows","10.0","https://app.prolific.com/","en-US,en;q=0.9","5c6a36214fbf270001311702","67949641171f97c04e14fb34","679c2c39a06e55cc294e66e0","","null","<img  src='G_3.jpg' height='90'> <img   src='G_7.jpg' height='90'> <img   src='G_9.jpg' height='90'> <img   src='G_5.jpg' height='90'> <img  src='G_1.jpg' height='90'>","null","Learning example 0",""
"","","","","","html-keyboard-response","57","1332205","0.0-45.0","75","1","2025-01-31 01:57:07","af8d355d56820e421d246a7037deb6e6","98.207.36.106","Mozilla/5.0 (Windows NT 10.0; Win64; x64) AppleWebKit/537.36 (KHTML, like Gecko) Chrome/132.0.0.0 Safari/537.36","WebKit","Chrome","132.0.0.0","Windows","10.0","https://app.prolific.com/","en-US,en;q=0.9","5c6a36214fbf270001311702","67949641171f97c04e14fb34","679c2c39a06e55cc294e66e0","","4484","[""Final order was 1,2,3,4,5. The initial order was 2,1,3,4,5.<br>It took 1 swaps to sort it correctly with Omgne Sort. <br><br>Press Enter to continue.""]","enter","",""
"","","","","","html-keyboard-response","58","1334960","0.0-46.0","75","1","2025-01-31 01:57:07","af8d355d56820e421d246a7037deb6e6","98.207.36.106","Mozilla/5.0 (Windows NT 10.0; Win64; x64) AppleWebKit/537.36 (KHTML, like Gecko) Chrome/132.0.0.0 Safari/537.36","WebKit","Chrome","132.0.0.0","Windows","10.0","https://app.prolific.com/","en-US,en;q=0.9","5c6a36214fbf270001311702","67949641171f97c04e14fb34","679c2c39a06e55cc294e66e0","","2753","[""Example 2<br><br>You will watch Omnge Sort in action. Try to identify any patterns in the comparisons made by this method. <br><br>Press Enter to continue.""]","enter","",""
"","","","","","html-keyboard-response","59","1335626","0.0-47.0","75","1","2025-01-31 01:57:07","af8d355d56820e421d246a7037deb6e6","98.207.36.106","Mozilla/5.0 (Windows NT 10.0; Win64; x64) AppleWebKit/537.36 (KHTML, like Gecko) Chrome/132.0.0.0 Safari/537.36","WebKit","Chrome","132.0.0.0","Windows","10.0","https://app.prolific.com/","en-US,en;q=0.9","5c6a36214fbf270001311702","67949641171f97c04e14fb34","679c2c39a06e55cc294e66e0","","null","<img id='selected' src='G_6.jpg' height='90'> <img src='G_8.jpg' height='90'> <img src='G_4.jpg' height='90'> <img src='G_3.jpg' height='90'> <img src='G_1.jpg' height='90'> <img src='G_7.jpg' height='90'> <img src='G_2.jpg' height='90'> <img src='G_5.jpg' height='90'>","null","Animation1",""
"","","","","","html-keyboard-response","60","1336128","0.0-48.0","75","1","2025-01-31 01:57:07","af8d355d56820e421d246a7037deb6e6","98.207.36.106","Mozilla/5.0 (Windows NT 10.0; Win64; x64) AppleWebKit/537.36 (KHTML, like Gecko) Chrome/132.0.0.0 Safari/537.36","WebKit","Chrome","132.0.0.0","Windows","10.0","https://app.prolific.com/","en-US,en;q=0.9","5c6a36214fbf270001311702","67949641171f97c04e14fb34","679c2c39a06e55cc294e66e0","","null","<img id='selected' src='G_6.jpg' height='90'> <img id='selected' src='G_8.jpg' height='90'> <img src='G_4.jpg' height='90'> <img src='G_3.jpg' height='90'> <img src='G_1.jpg' height='90'> <img src='G_7.jpg' height='90'> <img src='G_2.jpg' height='90'> <img src='G_5.jpg' height='90'>","null","Animation1",""
"","","","","","html-keyboard-response","61","1336644","0.0-49.0","75","1","2025-01-31 01:57:07","af8d355d56820e421d246a7037deb6e6","98.207.36.106","Mozilla/5.0 (Windows NT 10.0; Win64; x64) AppleWebKit/537.36 (KHTML, like Gecko) Chrome/132.0.0.0 Safari/537.36","WebKit","Chrome","132.0.0.0","Windows","10.0","https://app.prolific.com/","en-US,en;q=0.9","5c6a36214fbf270001311702","67949641171f97c04e14fb34","679c2c39a06e55cc294e66e0","","null","<img id='selected' src='G_6.jpg' height='90'> <img id='selected' src='G_8.jpg' height='90'> <img src='G_4.jpg' height='90'> <img src='G_3.jpg' height='90'> <img src='G_1.jpg' height='90'> <img src='G_7.jpg' height='90'> <img src='G_2.jpg' height='90'> <img src='G_5.jpg' height='90'>","null","Animation1",""
"","","","","","html-keyboard-response","62","1336960","0.0-50.0","75","1","2025-01-31 01:57:07","af8d355d56820e421d246a7037deb6e6","98.207.36.106","Mozilla/5.0 (Windows NT 10.0; Win64; x64) AppleWebKit/537.36 (KHTML, like Gecko) Chrome/132.0.0.0 Safari/537.36","WebKit","Chrome","132.0.0.0","Windows","10.0","https://app.prolific.com/","en-US,en;q=0.9","5c6a36214fbf270001311702","67949641171f97c04e14fb34","679c2c39a06e55cc294e66e0","","null","<img  src='G_6.jpg' height='90'> <img  src='G_8.jpg' height='90'> <img src='G_4.jpg' height='90'> <img src='G_3.jpg' height='90'> <img src='G_1.jpg' height='90'> <img src='G_7.jpg' height='90'> <img src='G_2.jpg' height='90'> <img src='G_5.jpg' height='90'>","null","Animation1",""
"","","","","","html-keyboard-response","63","1337476","0.0-51.0","75","1","2025-01-31 01:57:07","af8d355d56820e421d246a7037deb6e6","98.207.36.106","Mozilla/5.0 (Windows NT 10.0; Win64; x64) AppleWebKit/537.36 (KHTML, like Gecko) Chrome/132.0.0.0 Safari/537.36","WebKit","Chrome","132.0.0.0","Windows","10.0","https://app.prolific.com/","en-US,en;q=0.9","5c6a36214fbf270001311702","67949641171f97c04e14fb34","679c2c39a06e55cc294e66e0","","null","<img  src='G_6.jpg' height='90'> <img id='selected'  src='G_8.jpg' height='90'> <img src='G_4.jpg' height='90'> <img src='G_3.jpg' height='90'> <img src='G_1.jpg' height='90'> <img src='G_7.jpg' height='90'> <img src='G_2.jpg' height='90'> <img src='G_5.jpg' height='90'>","null","Animation1",""
"","","","","","html-keyboard-response","64","1337991","0.0-52.0","75","1","2025-01-31 01:57:07","af8d355d56820e421d246a7037deb6e6","98.207.36.106","Mozilla/5.0 (Windows NT 10.0; Win64; x64) AppleWebKit/537.36 (KHTML, like Gecko) Chrome/132.0.0.0 Safari/537.36","WebKit","Chrome","132.0.0.0","Windows","10.0","https://app.prolific.com/","en-US,en;q=0.9","5c6a36214fbf270001311702","67949641171f97c04e14fb34","679c2c39a06e55cc294e66e0","","null","<img  src='G_6.jpg' height='90'> <img id='selected'  src='G_8.jpg' height='90'> <img id='selected' src='G_4.jpg' height='90'> <img src='G_3.jpg' height='90'> <img src='G_1.jpg' height='90'> <img src='G_7.jpg' height='90'> <img src='G_2.jpg' height='90'> <img src='G_5.jpg' height='90'>","null","Animation1",""
"","","","","","html-keyboard-response","65","1338494","0.0-53.0","75","1","2025-01-31 01:57:07","af8d355d56820e421d246a7037deb6e6","98.207.36.106","Mozilla/5.0 (Windows NT 10.0; Win64; x64) AppleWebKit/537.36 (KHTML, like Gecko) Chrome/132.0.0.0 Safari/537.36","WebKit","Chrome","132.0.0.0","Windows","10.0","https://app.prolific.com/","en-US,en;q=0.9","5c6a36214fbf270001311702","67949641171f97c04e14fb34","679c2c39a06e55cc294e66e0","","null","<img  src='G_6.jpg' height='90'> <img id='swapped' src='G_4.jpg' height='90'> <img id='swapped'  src='G_8.jpg' height='90'> <img src='G_3.jpg' height='90'> <img src='G_1.jpg' height='90'> <img src='G_7.jpg' height='90'> <img src='G_2.jpg' height='90'> <img src='G_5.jpg' height='90'>","null","Animation1",""
"","","","","","html-keyboard-response","66","1338807","0.0-54.0","75","1","2025-01-31 01:57:07","af8d355d56820e421d246a7037deb6e6","98.207.36.106","Mozilla/5.0 (Windows NT 10.0; Win64; x64) AppleWebKit/537.36 (KHTML, like Gecko) Chrome/132.0.0.0 Safari/537.36","WebKit","Chrome","132.0.0.0","Windows","10.0","https://app.prolific.com/","en-US,en;q=0.9","5c6a36214fbf270001311702","67949641171f97c04e14fb34","679c2c39a06e55cc294e66e0","","null","<img  src='G_6.jpg' height='90'> <img  src='G_4.jpg' height='90'> <img   src='G_8.jpg' height='90'> <img src='G_3.jpg' height='90'> <img src='G_1.jpg' height='90'> <img src='G_7.jpg' height='90'> <img src='G_2.jpg' height='90'> <img src='G_5.jpg' height='90'>","null","Animation1",""
"","","","","","html-keyboard-response","67","1339310","0.0-55.0","75","1","2025-01-31 01:57:07","af8d355d56820e421d246a7037deb6e6","98.207.36.106","Mozilla/5.0 (Windows NT 10.0; Win64; x64) AppleWebKit/537.36 (KHTML, like Gecko) Chrome/132.0.0.0 Safari/537.36","WebKit","Chrome","132.0.0.0","Windows","10.0","https://app.prolific.com/","en-US,en;q=0.9","5c6a36214fbf270001311702","67949641171f97c04e14fb34","679c2c39a06e55cc294e66e0","","null","<img id='selected'  src='G_6.jpg' height='90'> <img  src='G_4.jpg' height='90'> <img   src='G_8.jpg' height='90'> <img src='G_3.jpg' height='90'> <img src='G_1.jpg' height='90'> <img src='G_7.jpg' height='90'> <img src='G_2.jpg' height='90'> <img src='G_5.jpg' height='90'>","null","Animation1",""
"","","","","","html-keyboard-response","68","1339822","0.0-56.0","75","1","2025-01-31 01:57:07","af8d355d56820e421d246a7037deb6e6","98.207.36.106","Mozilla/5.0 (Windows NT 10.0; Win64; x64) AppleWebKit/537.36 (KHTML, like Gecko) Chrome/132.0.0.0 Safari/537.36","WebKit","Chrome","132.0.0.0","Windows","10.0","https://app.prolific.com/","en-US,en;q=0.9","5c6a36214fbf270001311702","67949641171f97c04e14fb34","679c2c39a06e55cc294e66e0","","null","<img id='selected'  src='G_6.jpg' height='90'> <img id='selected'  src='G_4.jpg' height='90'> <img   src='G_8.jpg' height='90'> <img src='G_3.jpg' height='90'> <img src='G_1.jpg' height='90'> <img src='G_7.jpg' height='90'> <img src='G_2.jpg' height='90'> <img src='G_5.jpg' height='90'>","null","Animation1",""
"","","","","","html-keyboard-response","69","1340340","0.0-57.0","75","1","2025-01-31 01:57:07","af8d355d56820e421d246a7037deb6e6","98.207.36.106","Mozilla/5.0 (Windows NT 10.0; Win64; x64) AppleWebKit/537.36 (KHTML, like Gecko) Chrome/132.0.0.0 Safari/537.36","WebKit","Chrome","132.0.0.0","Windows","10.0","https://app.prolific.com/","en-US,en;q=0.9","5c6a36214fbf270001311702","67949641171f97c04e14fb34","679c2c39a06e55cc294e66e0","","null","<img id='swapped'  src='G_4.jpg' height='90'> <img id='swapped'  src='G_6.jpg' height='90'> <img   src='G_8.jpg' height='90'> <img src='G_3.jpg' height='90'> <img src='G_1.jpg' height='90'> <img src='G_7.jpg' height='90'> <img src='G_2.jpg' height='90'> <img src='G_5.jpg' height='90'>","null","Animation1",""
"","","","","","html-keyboard-response","70","1340654","0.0-58.0","75","1","2025-01-31 01:57:07","af8d355d56820e421d246a7037deb6e6","98.207.36.106","Mozilla/5.0 (Windows NT 10.0; Win64; x64) AppleWebKit/537.36 (KHTML, like Gecko) Chrome/132.0.0.0 Safari/537.36","WebKit","Chrome","132.0.0.0","Windows","10.0","https://app.prolific.com/","en-US,en;q=0.9","5c6a36214fbf270001311702","67949641171f97c04e14fb34","679c2c39a06e55cc294e66e0","","null","<img   src='G_4.jpg' height='90'> <img   src='G_6.jpg' height='90'> <img   src='G_8.jpg' height='90'> <img src='G_3.jpg' height='90'> <img src='G_1.jpg' height='90'> <img src='G_7.jpg' height='90'> <img src='G_2.jpg' height='90'> <img src='G_5.jpg' height='90'>","null","Animation1",""
"","","","","","html-keyboard-response","71","1341156","0.0-59.0","75","1","2025-01-31 01:57:07","af8d355d56820e421d246a7037deb6e6","98.207.36.106","Mozilla/5.0 (Windows NT 10.0; Win64; x64) AppleWebKit/537.36 (KHTML, like Gecko) Chrome/132.0.0.0 Safari/537.36","WebKit","Chrome","132.0.0.0","Windows","10.0","https://app.prolific.com/","en-US,en;q=0.9","5c6a36214fbf270001311702","67949641171f97c04e14fb34","679c2c39a06e55cc294e66e0","","null","<img   src='G_4.jpg' height='90'> <img   src='G_6.jpg' height='90'> <img id='selected'   src='G_8.jpg' height='90'> <img src='G_3.jpg' height='90'> <img src='G_1.jpg' height='90'> <img src='G_7.jpg' height='90'> <img src='G_2.jpg' height='90'> <img src='G_5.jpg' height='90'>","null","Animation1",""
"","","","","","html-keyboard-response","72","1341658","0.0-60.0","75","1","2025-01-31 01:57:07","af8d355d56820e421d246a7037deb6e6","98.207.36.106","Mozilla/5.0 (Windows NT 10.0; Win64; x64) AppleWebKit/537.36 (KHTML, like Gecko) Chrome/132.0.0.0 Safari/537.36","WebKit","Chrome","132.0.0.0","Windows","10.0","https://app.prolific.com/","en-US,en;q=0.9","5c6a36214fbf270001311702","67949641171f97c04e14fb34","679c2c39a06e55cc294e66e0","","null","<img   src='G_4.jpg' height='90'> <img   src='G_6.jpg' height='90'> <img id='selected'   src='G_8.jpg' height='90'> <img id='selected' src='G_3.jpg' height='90'> <img src='G_1.jpg' height='90'> <img src='G_7.jpg' height='90'> <img src='G_2.jpg' height='90'> <img src='G_5.jpg' height='90'>","null","Animation1",""
"","","","","","html-keyboard-response","73","1342168","0.0-61.0","75","1","2025-01-31 01:57:07","af8d355d56820e421d246a7037deb6e6","98.207.36.106","Mozilla/5.0 (Windows NT 10.0; Win64; x64) AppleWebKit/537.36 (KHTML, like Gecko) Chrome/132.0.0.0 Safari/537.36","WebKit","Chrome","132.0.0.0","Windows","10.0","https://app.prolific.com/","en-US,en;q=0.9","5c6a36214fbf270001311702","67949641171f97c04e14fb34","679c2c39a06e55cc294e66e0","","null","<img   src='G_4.jpg' height='90'> <img   src='G_6.jpg' height='90'> <img id='swapped' src='G_3.jpg' height='90'> <img id='swapped'   src='G_8.jpg' height='90'> <img src='G_1.jpg' height='90'> <img src='G_7.jpg' height='90'> <img src='G_2.jpg' height='90'> <img src='G_5.jpg' height='90'>","null","Animation1",""
"","","","","","html-keyboard-response","74","1342471","0.0-62.0","75","1","2025-01-31 01:57:07","af8d355d56820e421d246a7037deb6e6","98.207.36.106","Mozilla/5.0 (Windows NT 10.0; Win64; x64) AppleWebKit/537.36 (KHTML, like Gecko) Chrome/132.0.0.0 Safari/537.36","WebKit","Chrome","132.0.0.0","Windows","10.0","https://app.prolific.com/","en-US,en;q=0.9","5c6a36214fbf270001311702","67949641171f97c04e14fb34","679c2c39a06e55cc294e66e0","","null","<img   src='G_4.jpg' height='90'> <img   src='G_6.jpg' height='90'> <img  src='G_3.jpg' height='90'> <img    src='G_8.jpg' height='90'> <img src='G_1.jpg' height='90'> <img src='G_7.jpg' height='90'> <img src='G_2.jpg' height='90'> <img src='G_5.jpg' height='90'>","null","Animation1",""
"","","","","","html-keyboard-response","75","1342985","0.0-63.0","75","1","2025-01-31 01:57:07","af8d355d56820e421d246a7037deb6e6","98.207.36.106","Mozilla/5.0 (Windows NT 10.0; Win64; x64) AppleWebKit/537.36 (KHTML, like Gecko) Chrome/132.0.0.0 Safari/537.36","WebKit","Chrome","132.0.0.0","Windows","10.0","https://app.prolific.com/","en-US,en;q=0.9","5c6a36214fbf270001311702","67949641171f97c04e14fb34","679c2c39a06e55cc294e66e0","","null","<img   src='G_4.jpg' height='90'> <img id='selected'   src='G_6.jpg' height='90'> <img  src='G_3.jpg' height='90'> <img    src='G_8.jpg' height='90'> <img src='G_1.jpg' height='90'> <img src='G_7.jpg' height='90'> <img src='G_2.jpg' height='90'> <img src='G_5.jpg' height='90'>","null","Animation1",""
"","","","","","html-keyboard-response","76","1343500","0.0-64.0","75","1","2025-01-31 01:57:07","af8d355d56820e421d246a7037deb6e6","98.207.36.106","Mozilla/5.0 (Windows NT 10.0; Win64; x64) AppleWebKit/537.36 (KHTML, like Gecko) Chrome/132.0.0.0 Safari/537.36","WebKit","Chrome","132.0.0.0","Windows","10.0","https://app.prolific.com/","en-US,en;q=0.9","5c6a36214fbf270001311702","67949641171f97c04e14fb34","679c2c39a06e55cc294e66e0","","null","<img   src='G_4.jpg' height='90'> <img id='selected'   src='G_6.jpg' height='90'> <img id='selected'  src='G_3.jpg' height='90'> <img    src='G_8.jpg' height='90'> <img src='G_1.jpg' height='90'> <img src='G_7.jpg' height='90'> <img src='G_2.jpg' height='90'> <img src='G_5.jpg' height='90'>","null","Animation1",""
"","","","","","html-keyboard-response","77","1344003","0.0-65.0","75","1","2025-01-31 01:57:07","af8d355d56820e421d246a7037deb6e6","98.207.36.106","Mozilla/5.0 (Windows NT 10.0; Win64; x64) AppleWebKit/537.36 (KHTML, like Gecko) Chrome/132.0.0.0 Safari/537.36","WebKit","Chrome","132.0.0.0","Windows","10.0","https://app.prolific.com/","en-US,en;q=0.9","5c6a36214fbf270001311702","67949641171f97c04e14fb34","679c2c39a06e55cc294e66e0","","null","<img   src='G_4.jpg' height='90'> <img id='swapped'  src='G_3.jpg' height='90'> <img id='swapped'   src='G_6.jpg' height='90'> <img    src='G_8.jpg' height='90'> <img src='G_1.jpg' height='90'> <img src='G_7.jpg' height='90'> <img src='G_2.jpg' height='90'> <img src='G_5.jpg' height='90'>","null","Animation1",""
"","","","","","html-keyboard-response","78","1344318","0.0-66.0","75","1","2025-01-31 01:57:07","af8d355d56820e421d246a7037deb6e6","98.207.36.106","Mozilla/5.0 (Windows NT 10.0; Win64; x64) AppleWebKit/537.36 (KHTML, like Gecko) Chrome/132.0.0.0 Safari/537.36","WebKit","Chrome","132.0.0.0","Windows","10.0","https://app.prolific.com/","en-US,en;q=0.9","5c6a36214fbf270001311702","67949641171f97c04e14fb34","679c2c39a06e55cc294e66e0","","null","<img   src='G_4.jpg' height='90'> <img   src='G_3.jpg' height='90'> <img    src='G_6.jpg' height='90'> <img    src='G_8.jpg' height='90'> <img src='G_1.jpg' height='90'> <img src='G_7.jpg' height='90'> <img src='G_2.jpg' height='90'> <img src='G_5.jpg' height='90'>","null","Animation1",""
"","","","","","html-keyboard-response","79","1344834","0.0-67.0","75","1","2025-01-31 01:57:07","af8d355d56820e421d246a7037deb6e6","98.207.36.106","Mozilla/5.0 (Windows NT 10.0; Win64; x64) AppleWebKit/537.36 (KHTML, like Gecko) Chrome/132.0.0.0 Safari/537.36","WebKit","Chrome","132.0.0.0","Windows","10.0","https://app.prolific.com/","en-US,en;q=0.9","5c6a36214fbf270001311702","67949641171f97c04e14fb34","679c2c39a06e55cc294e66e0","","null","<img id='selected'   src='G_4.jpg' height='90'> <img   src='G_3.jpg' height='90'> <img    src='G_6.jpg' height='90'> <img    src='G_8.jpg' height='90'> <img src='G_1.jpg' height='90'> <img src='G_7.jpg' height='90'> <img src='G_2.jpg' height='90'> <img src='G_5.jpg' height='90'>","null","Animation1",""
"","","","","","html-keyboard-response","80","1345349","0.0-68.0","75","1","2025-01-31 01:57:07","af8d355d56820e421d246a7037deb6e6","98.207.36.106","Mozilla/5.0 (Windows NT 10.0; Win64; x64) AppleWebKit/537.36 (KHTML, like Gecko) Chrome/132.0.0.0 Safari/537.36","WebKit","Chrome","132.0.0.0","Windows","10.0","https://app.prolific.com/","en-US,en;q=0.9","5c6a36214fbf270001311702","67949641171f97c04e14fb34","679c2c39a06e55cc294e66e0","","null","<img id='selected'   src='G_4.jpg' height='90'> <img id='selected'   src='G_3.jpg' height='90'> <img    src='G_6.jpg' height='90'> <img    src='G_8.jpg' height='90'> <img src='G_1.jpg' height='90'> <img src='G_7.jpg' height='90'> <img src='G_2.jpg' height='90'> <img src='G_5.jpg' height='90'>","null","Animation1",""
"","","","","","html-keyboard-response","81","1345862","0.0-69.0","75","1","2025-01-31 01:57:07","af8d355d56820e421d246a7037deb6e6","98.207.36.106","Mozilla/5.0 (Windows NT 10.0; Win64; x64) AppleWebKit/537.36 (KHTML, like Gecko) Chrome/132.0.0.0 Safari/537.36","WebKit","Chrome","132.0.0.0","Windows","10.0","https://app.prolific.com/","en-US,en;q=0.9","5c6a36214fbf270001311702","67949641171f97c04e14fb34","679c2c39a06e55cc294e66e0","","null","<img id='swapped'   src='G_3.jpg' height='90'> <img id='swapped'   src='G_4.jpg' height='90'> <img    src='G_6.jpg' height='90'> <img    src='G_8.jpg' height='90'> <img src='G_1.jpg' height='90'> <img src='G_7.jpg' height='90'> <img src='G_2.jpg' height='90'> <img src='G_5.jpg' height='90'>","null","Animation1",""
"","","","","","html-keyboard-response","82","1346166","0.0-70.0","75","1","2025-01-31 01:57:07","af8d355d56820e421d246a7037deb6e6","98.207.36.106","Mozilla/5.0 (Windows NT 10.0; Win64; x64) AppleWebKit/537.36 (KHTML, like Gecko) Chrome/132.0.0.0 Safari/537.36","WebKit","Chrome","132.0.0.0","Windows","10.0","https://app.prolific.com/","en-US,en;q=0.9","5c6a36214fbf270001311702","67949641171f97c04e14fb34","679c2c39a06e55cc294e66e0","","null","<img    src='G_3.jpg' height='90'> <img    src='G_4.jpg' height='90'> <img    src='G_6.jpg' height='90'> <img    src='G_8.jpg' height='90'> <img src='G_1.jpg' height='90'> <img src='G_7.jpg' height='90'> <img src='G_2.jpg' height='90'> <img src='G_5.jpg' height='90'>","null","Animation1",""
"","","","","","html-keyboard-response","83","1346682","0.0-71.0","75","1","2025-01-31 01:57:07","af8d355d56820e421d246a7037deb6e6","98.207.36.106","Mozilla/5.0 (Windows NT 10.0; Win64; x64) AppleWebKit/537.36 (KHTML, like Gecko) Chrome/132.0.0.0 Safari/537.36","WebKit","Chrome","132.0.0.0","Windows","10.0","https://app.prolific.com/","en-US,en;q=0.9","5c6a36214fbf270001311702","67949641171f97c04e14fb34","679c2c39a06e55cc294e66e0","","null","<img    src='G_3.jpg' height='90'> <img    src='G_4.jpg' height='90'> <img    src='G_6.jpg' height='90'> <img id='selected'    src='G_8.jpg' height='90'> <img src='G_1.jpg' height='90'> <img src='G_7.jpg' height='90'> <img src='G_2.jpg' height='90'> <img src='G_5.jpg' height='90'>","null","Animation1",""
"","","","","","html-keyboard-response","84","1347198","0.0-72.0","75","1","2025-01-31 01:57:07","af8d355d56820e421d246a7037deb6e6","98.207.36.106","Mozilla/5.0 (Windows NT 10.0; Win64; x64) AppleWebKit/537.36 (KHTML, like Gecko) Chrome/132.0.0.0 Safari/537.36","WebKit","Chrome","132.0.0.0","Windows","10.0","https://app.prolific.com/","en-US,en;q=0.9","5c6a36214fbf270001311702","67949641171f97c04e14fb34","679c2c39a06e55cc294e66e0","","null","<img    src='G_3.jpg' height='90'> <img    src='G_4.jpg' height='90'> <img    src='G_6.jpg' height='90'> <img id='selected'    src='G_8.jpg' height='90'> <img id='selected' src='G_1.jpg' height='90'> <img src='G_7.jpg' height='90'> <img src='G_2.jpg' height='90'> <img src='G_5.jpg' height='90'>","null","Animation1",""
"","","","","","html-keyboard-response","85","1347713","0.0-73.0","75","1","2025-01-31 01:57:07","af8d355d56820e421d246a7037deb6e6","98.207.36.106","Mozilla/5.0 (Windows NT 10.0; Win64; x64) AppleWebKit/537.36 (KHTML, like Gecko) Chrome/132.0.0.0 Safari/537.36","WebKit","Chrome","132.0.0.0","Windows","10.0","https://app.prolific.com/","en-US,en;q=0.9","5c6a36214fbf270001311702","67949641171f97c04e14fb34","679c2c39a06e55cc294e66e0","","null","<img    src='G_3.jpg' height='90'> <img    src='G_4.jpg' height='90'> <img    src='G_6.jpg' height='90'> <img id='swapped' src='G_1.jpg' height='90'> <img id='swapped'    src='G_8.jpg' height='90'> <img src='G_7.jpg' height='90'> <img src='G_2.jpg' height='90'> <img src='G_5.jpg' height='90'>","null","Animation1",""
"","","","","","html-keyboard-response","86","1348030","0.0-74.0","75","1","2025-01-31 01:57:07","af8d355d56820e421d246a7037deb6e6","98.207.36.106","Mozilla/5.0 (Windows NT 10.0; Win64; x64) AppleWebKit/537.36 (KHTML, like Gecko) Chrome/132.0.0.0 Safari/537.36","WebKit","Chrome","132.0.0.0","Windows","10.0","https://app.prolific.com/","en-US,en;q=0.9","5c6a36214fbf270001311702","67949641171f97c04e14fb34","679c2c39a06e55cc294e66e0","","null","<img    src='G_3.jpg' height='90'> <img    src='G_4.jpg' height='90'> <img    src='G_6.jpg' height='90'> <img  src='G_1.jpg' height='90'> <img     src='G_8.jpg' height='90'> <img src='G_7.jpg' height='90'> <img src='G_2.jpg' height='90'> <img src='G_5.jpg' height='90'>","null","Animation1",""
"","","","","","html-keyboard-response","87","1348547","0.0-75.0","75","1","2025-01-31 01:57:07","af8d355d56820e421d246a7037deb6e6","98.207.36.106","Mozilla/5.0 (Windows NT 10.0; Win64; x64) AppleWebKit/537.36 (KHTML, like Gecko) Chrome/132.0.0.0 Safari/537.36","WebKit","Chrome","132.0.0.0","Windows","10.0","https://app.prolific.com/","en-US,en;q=0.9","5c6a36214fbf270001311702","67949641171f97c04e14fb34","679c2c39a06e55cc294e66e0","","null","<img    src='G_3.jpg' height='90'> <img    src='G_4.jpg' height='90'> <img id='selected'    src='G_6.jpg' height='90'> <img  src='G_1.jpg' height='90'> <img     src='G_8.jpg' height='90'> <img src='G_7.jpg' height='90'> <img src='G_2.jpg' height='90'> <img src='G_5.jpg' height='90'>","null","Animation1",""
"","","","","","html-keyboard-response","88","1349063","0.0-76.0","75","1","2025-01-31 01:57:07","af8d355d56820e421d246a7037deb6e6","98.207.36.106","Mozilla/5.0 (Windows NT 10.0; Win64; x64) AppleWebKit/537.36 (KHTML, like Gecko) Chrome/132.0.0.0 Safari/537.36","WebKit","Chrome","132.0.0.0","Windows","10.0","https://app.prolific.com/","en-US,en;q=0.9","5c6a36214fbf270001311702","67949641171f97c04e14fb34","679c2c39a06e55cc294e66e0","","null","<img    src='G_3.jpg' height='90'> <img    src='G_4.jpg' height='90'> <img id='selected'    src='G_6.jpg' height='90'> <img id='selected'  src='G_1.jpg' height='90'> <img     src='G_8.jpg' height='90'> <img src='G_7.jpg' height='90'> <img src='G_2.jpg' height='90'> <img src='G_5.jpg' height='90'>","null","Animation1",""
"","","","","","html-keyboard-response","89","1349580","0.0-77.0","75","1","2025-01-31 01:57:07","af8d355d56820e421d246a7037deb6e6","98.207.36.106","Mozilla/5.0 (Windows NT 10.0; Win64; x64) AppleWebKit/537.36 (KHTML, like Gecko) Chrome/132.0.0.0 Safari/537.36","WebKit","Chrome","132.0.0.0","Windows","10.0","https://app.prolific.com/","en-US,en;q=0.9","5c6a36214fbf270001311702","67949641171f97c04e14fb34","679c2c39a06e55cc294e66e0","","null","<img    src='G_3.jpg' height='90'> <img    src='G_4.jpg' height='90'> <img id='swapped'  src='G_1.jpg' height='90'> <img id='swapped'    src='G_6.jpg' height='90'> <img     src='G_8.jpg' height='90'> <img src='G_7.jpg' height='90'> <img src='G_2.jpg' height='90'> <img src='G_5.jpg' height='90'>","null","Animation1",""
"","","","","","html-keyboard-response","90","1349895","0.0-78.0","75","1","2025-01-31 01:57:07","af8d355d56820e421d246a7037deb6e6","98.207.36.106","Mozilla/5.0 (Windows NT 10.0; Win64; x64) AppleWebKit/537.36 (KHTML, like Gecko) Chrome/132.0.0.0 Safari/537.36","WebKit","Chrome","132.0.0.0","Windows","10.0","https://app.prolific.com/","en-US,en;q=0.9","5c6a36214fbf270001311702","67949641171f97c04e14fb34","679c2c39a06e55cc294e66e0","","null","<img    src='G_3.jpg' height='90'> <img    src='G_4.jpg' height='90'> <img   src='G_1.jpg' height='90'> <img     src='G_6.jpg' height='90'> <img     src='G_8.jpg' height='90'> <img src='G_7.jpg' height='90'> <img src='G_2.jpg' height='90'> <img src='G_5.jpg' height='90'>","null","Animation1",""
"","","","","","html-keyboard-response","91","1350411","0.0-79.0","75","1","2025-01-31 01:57:07","af8d355d56820e421d246a7037deb6e6","98.207.36.106","Mozilla/5.0 (Windows NT 10.0; Win64; x64) AppleWebKit/537.36 (KHTML, like Gecko) Chrome/132.0.0.0 Safari/537.36","WebKit","Chrome","132.0.0.0","Windows","10.0","https://app.prolific.com/","en-US,en;q=0.9","5c6a36214fbf270001311702","67949641171f97c04e14fb34","679c2c39a06e55cc294e66e0","","null","<img    src='G_3.jpg' height='90'> <img id='selected'    src='G_4.jpg' height='90'> <img   src='G_1.jpg' height='90'> <img     src='G_6.jpg' height='90'> <img     src='G_8.jpg' height='90'> <img src='G_7.jpg' height='90'> <img src='G_2.jpg' height='90'> <img src='G_5.jpg' height='90'>","null","Animation1",""
"","","","","","html-keyboard-response","92","1350926","0.0-80.0","75","1","2025-01-31 01:57:07","af8d355d56820e421d246a7037deb6e6","98.207.36.106","Mozilla/5.0 (Windows NT 10.0; Win64; x64) AppleWebKit/537.36 (KHTML, like Gecko) Chrome/132.0.0.0 Safari/537.36","WebKit","Chrome","132.0.0.0","Windows","10.0","https://app.prolific.com/","en-US,en;q=0.9","5c6a36214fbf270001311702","67949641171f97c04e14fb34","679c2c39a06e55cc294e66e0","","null","<img    src='G_3.jpg' height='90'> <img id='selected'    src='G_4.jpg' height='90'> <img id='selected'   src='G_1.jpg' height='90'> <img     src='G_6.jpg' height='90'> <img     src='G_8.jpg' height='90'> <img src='G_7.jpg' height='90'> <img src='G_2.jpg' height='90'> <img src='G_5.jpg' height='90'>","null","Animation1",""
"","","","","","html-keyboard-response","93","1351443","0.0-81.0","75","1","2025-01-31 01:57:07","af8d355d56820e421d246a7037deb6e6","98.207.36.106","Mozilla/5.0 (Windows NT 10.0; Win64; x64) AppleWebKit/537.36 (KHTML, like Gecko) Chrome/132.0.0.0 Safari/537.36","WebKit","Chrome","132.0.0.0","Windows","10.0","https://app.prolific.com/","en-US,en;q=0.9","5c6a36214fbf270001311702","67949641171f97c04e14fb34","679c2c39a06e55cc294e66e0","","null","<img    src='G_3.jpg' height='90'> <img id='swapped'   src='G_1.jpg' height='90'> <img id='swapped'    src='G_4.jpg' height='90'> <img     src='G_6.jpg' height='90'> <img     src='G_8.jpg' height='90'> <img src='G_7.jpg' height='90'> <img src='G_2.jpg' height='90'> <img src='G_5.jpg' height='90'>","null","Animation1",""
"","","","","","html-keyboard-response","94","1351759","0.0-82.0","75","1","2025-01-31 01:57:07","af8d355d56820e421d246a7037deb6e6","98.207.36.106","Mozilla/5.0 (Windows NT 10.0; Win64; x64) AppleWebKit/537.36 (KHTML, like Gecko) Chrome/132.0.0.0 Safari/537.36","WebKit","Chrome","132.0.0.0","Windows","10.0","https://app.prolific.com/","en-US,en;q=0.9","5c6a36214fbf270001311702","67949641171f97c04e14fb34","679c2c39a06e55cc294e66e0","","null","<img    src='G_3.jpg' height='90'> <img    src='G_1.jpg' height='90'> <img     src='G_4.jpg' height='90'> <img     src='G_6.jpg' height='90'> <img     src='G_8.jpg' height='90'> <img src='G_7.jpg' height='90'> <img src='G_2.jpg' height='90'> <img src='G_5.jpg' height='90'>","null","Animation1",""
"","","","","","html-keyboard-response","95","1352275","0.0-83.0","75","1","2025-01-31 01:57:07","af8d355d56820e421d246a7037deb6e6","98.207.36.106","Mozilla/5.0 (Windows NT 10.0; Win64; x64) AppleWebKit/537.36 (KHTML, like Gecko) Chrome/132.0.0.0 Safari/537.36","WebKit","Chrome","132.0.0.0","Windows","10.0","https://app.prolific.com/","en-US,en;q=0.9","5c6a36214fbf270001311702","67949641171f97c04e14fb34","679c2c39a06e55cc294e66e0","","null","<img id='selected'    src='G_3.jpg' height='90'> <img    src='G_1.jpg' height='90'> <img     src='G_4.jpg' height='90'> <img     src='G_6.jpg' height='90'> <img     src='G_8.jpg' height='90'> <img src='G_7.jpg' height='90'> <img src='G_2.jpg' height='90'> <img src='G_5.jpg' height='90'>","null","Animation1",""
"","","","","","html-keyboard-response","96","1352790","0.0-84.0","75","1","2025-01-31 01:57:07","af8d355d56820e421d246a7037deb6e6","98.207.36.106","Mozilla/5.0 (Windows NT 10.0; Win64; x64) AppleWebKit/537.36 (KHTML, like Gecko) Chrome/132.0.0.0 Safari/537.36","WebKit","Chrome","132.0.0.0","Windows","10.0","https://app.prolific.com/","en-US,en;q=0.9","5c6a36214fbf270001311702","67949641171f97c04e14fb34","679c2c39a06e55cc294e66e0","","null","<img id='selected'    src='G_3.jpg' height='90'> <img id='selected'    src='G_1.jpg' height='90'> <img     src='G_4.jpg' height='90'> <img     src='G_6.jpg' height='90'> <img     src='G_8.jpg' height='90'> <img src='G_7.jpg' height='90'> <img src='G_2.jpg' height='90'> <img src='G_5.jpg' height='90'>","null","Animation1",""
"","","","","","html-keyboard-response","97","1353307","0.0-85.0","75","1","2025-01-31 01:57:07","af8d355d56820e421d246a7037deb6e6","98.207.36.106","Mozilla/5.0 (Windows NT 10.0; Win64; x64) AppleWebKit/537.36 (KHTML, like Gecko) Chrome/132.0.0.0 Safari/537.36","WebKit","Chrome","132.0.0.0","Windows","10.0","https://app.prolific.com/","en-US,en;q=0.9","5c6a36214fbf270001311702","67949641171f97c04e14fb34","679c2c39a06e55cc294e66e0","","null","<img id='selected'    src='G_3.jpg' height='90'> <img id='selected'    src='G_1.jpg' height='90'> <img     src='G_4.jpg' height='90'> <img     src='G_6.jpg' height='90'> <img     src='G_8.jpg' height='90'> <img src='G_7.jpg' height='90'> <img src='G_2.jpg' height='90'> <img src='G_5.jpg' height='90'>","null","Animation1",""
"","","","","","html-keyboard-response","98","1353623","0.0-86.0","75","1","2025-01-31 01:57:07","af8d355d56820e421d246a7037deb6e6","98.207.36.106","Mozilla/5.0 (Windows NT 10.0; Win64; x64) AppleWebKit/537.36 (KHTML, like Gecko) Chrome/132.0.0.0 Safari/537.36","WebKit","Chrome","132.0.0.0","Windows","10.0","https://app.prolific.com/","en-US,en;q=0.9","5c6a36214fbf270001311702","67949641171f97c04e14fb34","679c2c39a06e55cc294e66e0","","null","<img     src='G_3.jpg' height='90'> <img     src='G_1.jpg' height='90'> <img     src='G_4.jpg' height='90'> <img     src='G_6.jpg' height='90'> <img     src='G_8.jpg' height='90'> <img src='G_7.jpg' height='90'> <img src='G_2.jpg' height='90'> <img src='G_5.jpg' height='90'>","null","Animation1",""
"","","","","","html-keyboard-response","99","1354139","0.0-87.0","75","1","2025-01-31 01:57:07","af8d355d56820e421d246a7037deb6e6","98.207.36.106","Mozilla/5.0 (Windows NT 10.0; Win64; x64) AppleWebKit/537.36 (KHTML, like Gecko) Chrome/132.0.0.0 Safari/537.36","WebKit","Chrome","132.0.0.0","Windows","10.0","https://app.prolific.com/","en-US,en;q=0.9","5c6a36214fbf270001311702","67949641171f97c04e14fb34","679c2c39a06e55cc294e66e0","","null","<img     src='G_3.jpg' height='90'> <img     src='G_1.jpg' height='90'> <img     src='G_4.jpg' height='90'> <img     src='G_6.jpg' height='90'> <img id='selected'     src='G_8.jpg' height='90'> <img src='G_7.jpg' height='90'> <img src='G_2.jpg' height='90'> <img src='G_5.jpg' height='90'>","null","Animation1",""
"","","","","","html-keyboard-response","100","1354654","0.0-88.0","75","1","2025-01-31 01:57:07","af8d355d56820e421d246a7037deb6e6","98.207.36.106","Mozilla/5.0 (Windows NT 10.0; Win64; x64) AppleWebKit/537.36 (KHTML, like Gecko) Chrome/132.0.0.0 Safari/537.36","WebKit","Chrome","132.0.0.0","Windows","10.0","https://app.prolific.com/","en-US,en;q=0.9","5c6a36214fbf270001311702","67949641171f97c04e14fb34","679c2c39a06e55cc294e66e0","","null","<img     src='G_3.jpg' height='90'> <img     src='G_1.jpg' height='90'> <img     src='G_4.jpg' height='90'> <img     src='G_6.jpg' height='90'> <img id='selected'     src='G_8.jpg' height='90'> <img id='selected' src='G_7.jpg' height='90'> <img src='G_2.jpg' height='90'> <img src='G_5.jpg' height='90'>","null","Animation1",""
"","","","","","html-keyboard-response","101","1355158","0.0-89.0","75","1","2025-01-31 01:57:07","af8d355d56820e421d246a7037deb6e6","98.207.36.106","Mozilla/5.0 (Windows NT 10.0; Win64; x64) AppleWebKit/537.36 (KHTML, like Gecko) Chrome/132.0.0.0 Safari/537.36","WebKit","Chrome","132.0.0.0","Windows","10.0","https://app.prolific.com/","en-US,en;q=0.9","5c6a36214fbf270001311702","67949641171f97c04e14fb34","679c2c39a06e55cc294e66e0","","null","<img     src='G_3.jpg' height='90'> <img     src='G_1.jpg' height='90'> <img     src='G_4.jpg' height='90'> <img     src='G_6.jpg' height='90'> <img id='swapped' src='G_7.jpg' height='90'> <img id='swapped'     src='G_8.jpg' height='90'> <img src='G_2.jpg' height='90'> <img src='G_5.jpg' height='90'>","null","Animation1",""
"","","","","","html-keyboard-response","102","1355461","0.0-90.0","75","1","2025-01-31 01:57:07","af8d355d56820e421d246a7037deb6e6","98.207.36.106","Mozilla/5.0 (Windows NT 10.0; Win64; x64) AppleWebKit/537.36 (KHTML, like Gecko) Chrome/132.0.0.0 Safari/537.36","WebKit","Chrome","132.0.0.0","Windows","10.0","https://app.prolific.com/","en-US,en;q=0.9","5c6a36214fbf270001311702","67949641171f97c04e14fb34","679c2c39a06e55cc294e66e0","","null","<img     src='G_3.jpg' height='90'> <img     src='G_1.jpg' height='90'> <img     src='G_4.jpg' height='90'> <img     src='G_6.jpg' height='90'> <img  src='G_7.jpg' height='90'> <img      src='G_8.jpg' height='90'> <img src='G_2.jpg' height='90'> <img src='G_5.jpg' height='90'>","null","Animation1",""
"","","","","","html-keyboard-response","103","1355966","0.0-91.0","75","1","2025-01-31 01:57:07","af8d355d56820e421d246a7037deb6e6","98.207.36.106","Mozilla/5.0 (Windows NT 10.0; Win64; x64) AppleWebKit/537.36 (KHTML, like Gecko) Chrome/132.0.0.0 Safari/537.36","WebKit","Chrome","132.0.0.0","Windows","10.0","https://app.prolific.com/","en-US,en;q=0.9","5c6a36214fbf270001311702","67949641171f97c04e14fb34","679c2c39a06e55cc294e66e0","","null","<img     src='G_3.jpg' height='90'> <img     src='G_1.jpg' height='90'> <img     src='G_4.jpg' height='90'> <img id='selected'     src='G_6.jpg' height='90'> <img  src='G_7.jpg' height='90'> <img      src='G_8.jpg' height='90'> <img src='G_2.jpg' height='90'> <img src='G_5.jpg' height='90'>","null","Animation1",""
"","","","","","html-keyboard-response","104","1356470","0.0-92.0","75","1","2025-01-31 01:57:07","af8d355d56820e421d246a7037deb6e6","98.207.36.106","Mozilla/5.0 (Windows NT 10.0; Win64; x64) AppleWebKit/537.36 (KHTML, like Gecko) Chrome/132.0.0.0 Safari/537.36","WebKit","Chrome","132.0.0.0","Windows","10.0","https://app.prolific.com/","en-US,en;q=0.9","5c6a36214fbf270001311702","67949641171f97c04e14fb34","679c2c39a06e55cc294e66e0","","null","<img     src='G_3.jpg' height='90'> <img     src='G_1.jpg' height='90'> <img     src='G_4.jpg' height='90'> <img id='selected'     src='G_6.jpg' height='90'> <img id='selected'  src='G_7.jpg' height='90'> <img      src='G_8.jpg' height='90'> <img src='G_2.jpg' height='90'> <img src='G_5.jpg' height='90'>","null","Animation1",""
"","","","","","html-keyboard-response","105","1356986","0.0-93.0","75","1","2025-01-31 01:57:07","af8d355d56820e421d246a7037deb6e6","98.207.36.106","Mozilla/5.0 (Windows NT 10.0; Win64; x64) AppleWebKit/537.36 (KHTML, like Gecko) Chrome/132.0.0.0 Safari/537.36","WebKit","Chrome","132.0.0.0","Windows","10.0","https://app.prolific.com/","en-US,en;q=0.9","5c6a36214fbf270001311702","67949641171f97c04e14fb34","679c2c39a06e55cc294e66e0","","null","<img     src='G_3.jpg' height='90'> <img     src='G_1.jpg' height='90'> <img     src='G_4.jpg' height='90'> <img id='selected'     src='G_6.jpg' height='90'> <img id='selected'  src='G_7.jpg' height='90'> <img      src='G_8.jpg' height='90'> <img src='G_2.jpg' height='90'> <img src='G_5.jpg' height='90'>","null","Animation1",""
"","","","","","html-keyboard-response","106","1357302","0.0-94.0","75","1","2025-01-31 01:57:07","af8d355d56820e421d246a7037deb6e6","98.207.36.106","Mozilla/5.0 (Windows NT 10.0; Win64; x64) AppleWebKit/537.36 (KHTML, like Gecko) Chrome/132.0.0.0 Safari/537.36","WebKit","Chrome","132.0.0.0","Windows","10.0","https://app.prolific.com/","en-US,en;q=0.9","5c6a36214fbf270001311702","67949641171f97c04e14fb34","679c2c39a06e55cc294e66e0","","null","<img     src='G_3.jpg' height='90'> <img     src='G_1.jpg' height='90'> <img     src='G_4.jpg' height='90'> <img      src='G_6.jpg' height='90'> <img   src='G_7.jpg' height='90'> <img      src='G_8.jpg' height='90'> <img src='G_2.jpg' height='90'> <img src='G_5.jpg' height='90'>","null","Animation1",""
"","","","","","html-keyboard-response","107","1357819","0.0-95.0","75","1","2025-01-31 01:57:07","af8d355d56820e421d246a7037deb6e6","98.207.36.106","Mozilla/5.0 (Windows NT 10.0; Win64; x64) AppleWebKit/537.36 (KHTML, like Gecko) Chrome/132.0.0.0 Safari/537.36","WebKit","Chrome","132.0.0.0","Windows","10.0","https://app.prolific.com/","en-US,en;q=0.9","5c6a36214fbf270001311702","67949641171f97c04e14fb34","679c2c39a06e55cc294e66e0","","null","<img     src='G_3.jpg' height='90'> <img     src='G_1.jpg' height='90'> <img     src='G_4.jpg' height='90'> <img      src='G_6.jpg' height='90'> <img   src='G_7.jpg' height='90'> <img id='selected'      src='G_8.jpg' height='90'> <img src='G_2.jpg' height='90'> <img src='G_5.jpg' height='90'>","null","Animation1",""
"","","","","","html-keyboard-response","108","1358322","0.0-96.0","75","1","2025-01-31 01:57:07","af8d355d56820e421d246a7037deb6e6","98.207.36.106","Mozilla/5.0 (Windows NT 10.0; Win64; x64) AppleWebKit/537.36 (KHTML, like Gecko) Chrome/132.0.0.0 Safari/537.36","WebKit","Chrome","132.0.0.0","Windows","10.0","https://app.prolific.com/","en-US,en;q=0.9","5c6a36214fbf270001311702","67949641171f97c04e14fb34","679c2c39a06e55cc294e66e0","","null","<img     src='G_3.jpg' height='90'> <img     src='G_1.jpg' height='90'> <img     src='G_4.jpg' height='90'> <img      src='G_6.jpg' height='90'> <img   src='G_7.jpg' height='90'> <img id='selected'      src='G_8.jpg' height='90'> <img id='selected' src='G_2.jpg' height='90'> <img src='G_5.jpg' height='90'>","null","Animation1",""
"","","","","","html-keyboard-response","109","1358835","0.0-97.0","75","1","2025-01-31 01:57:07","af8d355d56820e421d246a7037deb6e6","98.207.36.106","Mozilla/5.0 (Windows NT 10.0; Win64; x64) AppleWebKit/537.36 (KHTML, like Gecko) Chrome/132.0.0.0 Safari/537.36","WebKit","Chrome","132.0.0.0","Windows","10.0","https://app.prolific.com/","en-US,en;q=0.9","5c6a36214fbf270001311702","67949641171f97c04e14fb34","679c2c39a06e55cc294e66e0","","null","<img     src='G_3.jpg' height='90'> <img     src='G_1.jpg' height='90'> <img     src='G_4.jpg' height='90'> <img      src='G_6.jpg' height='90'> <img   src='G_7.jpg' height='90'> <img id='selected'      src='G_8.jpg' height='90'> <img id='selected' src='G_2.jpg' height='90'> <img src='G_5.jpg' height='90'>","null","Animation1",""
"","","","","","html-keyboard-response","110","1359151","0.0-98.0","75","1","2025-01-31 01:57:07","af8d355d56820e421d246a7037deb6e6","98.207.36.106","Mozilla/5.0 (Windows NT 10.0; Win64; x64) AppleWebKit/537.36 (KHTML, like Gecko) Chrome/132.0.0.0 Safari/537.36","WebKit","Chrome","132.0.0.0","Windows","10.0","https://app.prolific.com/","en-US,en;q=0.9","5c6a36214fbf270001311702","67949641171f97c04e14fb34","679c2c39a06e55cc294e66e0","","null","<img     src='G_3.jpg' height='90'> <img     src='G_1.jpg' height='90'> <img     src='G_4.jpg' height='90'> <img      src='G_6.jpg' height='90'> <img   src='G_7.jpg' height='90'> <img       src='G_8.jpg' height='90'> <img  src='G_2.jpg' height='90'> <img src='G_5.jpg' height='90'>","null","Animation1",""
"","","","","","html-keyboard-response","111","1359667","0.0-99.0","75","1","2025-01-31 01:57:07","af8d355d56820e421d246a7037deb6e6","98.207.36.106","Mozilla/5.0 (Windows NT 10.0; Win64; x64) AppleWebKit/537.36 (KHTML, like Gecko) Chrome/132.0.0.0 Safari/537.36","WebKit","Chrome","132.0.0.0","Windows","10.0","https://app.prolific.com/","en-US,en;q=0.9","5c6a36214fbf270001311702","67949641171f97c04e14fb34","679c2c39a06e55cc294e66e0","","null","<img     src='G_3.jpg' height='90'> <img     src='G_1.jpg' height='90'> <img     src='G_4.jpg' height='90'> <img      src='G_6.jpg' height='90'> <img   src='G_7.jpg' height='90'> <img       src='G_8.jpg' height='90'> <img id='selected'  src='G_2.jpg' height='90'> <img src='G_5.jpg' height='90'>","null","Animation1",""
"","","","","","html-keyboard-response","112","1360184","0.0-100.0","75","1","2025-01-31 01:57:07","af8d355d56820e421d246a7037deb6e6","98.207.36.106","Mozilla/5.0 (Windows NT 10.0; Win64; x64) AppleWebKit/537.36 (KHTML, like Gecko) Chrome/132.0.0.0 Safari/537.36","WebKit","Chrome","132.0.0.0","Windows","10.0","https://app.prolific.com/","en-US,en;q=0.9","5c6a36214fbf270001311702","67949641171f97c04e14fb34","679c2c39a06e55cc294e66e0","","null","<img     src='G_3.jpg' height='90'> <img     src='G_1.jpg' height='90'> <img     src='G_4.jpg' height='90'> <img      src='G_6.jpg' height='90'> <img   src='G_7.jpg' height='90'> <img       src='G_8.jpg' height='90'> <img id='selected'  src='G_2.jpg' height='90'> <img id='selected' src='G_5.jpg' height='90'>","null","Animation1",""
"","","","","","html-keyboard-response","113","1360697","0.0-101.0","75","1","2025-01-31 01:57:07","af8d355d56820e421d246a7037deb6e6","98.207.36.106","Mozilla/5.0 (Windows NT 10.0; Win64; x64) AppleWebKit/537.36 (KHTML, like Gecko) Chrome/132.0.0.0 Safari/537.36","WebKit","Chrome","132.0.0.0","Windows","10.0","https://app.prolific.com/","en-US,en;q=0.9","5c6a36214fbf270001311702","67949641171f97c04e14fb34","679c2c39a06e55cc294e66e0","","null","<img     src='G_3.jpg' height='90'> <img     src='G_1.jpg' height='90'> <img     src='G_4.jpg' height='90'> <img      src='G_6.jpg' height='90'> <img   src='G_7.jpg' height='90'> <img       src='G_8.jpg' height='90'> <img id='swapped' src='G_5.jpg' height='90'> <img id='swapped'  src='G_2.jpg' height='90'>","null","Animation1",""
"","","","","","html-keyboard-response","114","1361002","0.0-102.0","75","1","2025-01-31 01:57:07","af8d355d56820e421d246a7037deb6e6","98.207.36.106","Mozilla/5.0 (Windows NT 10.0; Win64; x64) AppleWebKit/537.36 (KHTML, like Gecko) Chrome/132.0.0.0 Safari/537.36","WebKit","Chrome","132.0.0.0","Windows","10.0","https://app.prolific.com/","en-US,en;q=0.9","5c6a36214fbf270001311702","67949641171f97c04e14fb34","679c2c39a06e55cc294e66e0","","null","<img     src='G_3.jpg' height='90'> <img     src='G_1.jpg' height='90'> <img     src='G_4.jpg' height='90'> <img      src='G_6.jpg' height='90'> <img   src='G_7.jpg' height='90'> <img       src='G_8.jpg' height='90'> <img  src='G_5.jpg' height='90'> <img   src='G_2.jpg' height='90'>","null","Animation1",""
"","","","","","html-keyboard-response","115","1361515","0.0-103.0","75","1","2025-01-31 01:57:07","af8d355d56820e421d246a7037deb6e6","98.207.36.106","Mozilla/5.0 (Windows NT 10.0; Win64; x64) AppleWebKit/537.36 (KHTML, like Gecko) Chrome/132.0.0.0 Safari/537.36","WebKit","Chrome","132.0.0.0","Windows","10.0","https://app.prolific.com/","en-US,en;q=0.9","5c6a36214fbf270001311702","67949641171f97c04e14fb34","679c2c39a06e55cc294e66e0","","null","<img     src='G_3.jpg' height='90'> <img     src='G_1.jpg' height='90'> <img     src='G_4.jpg' height='90'> <img      src='G_6.jpg' height='90'> <img   src='G_7.jpg' height='90'> <img id='selected'       src='G_8.jpg' height='90'> <img  src='G_5.jpg' height='90'> <img   src='G_2.jpg' height='90'>","null","Animation1",""
"","","","","","html-keyboard-response","116","1362031","0.0-104.0","75","1","2025-01-31 01:57:07","af8d355d56820e421d246a7037deb6e6","98.207.36.106","Mozilla/5.0 (Windows NT 10.0; Win64; x64) AppleWebKit/537.36 (KHTML, like Gecko) Chrome/132.0.0.0 Safari/537.36","WebKit","Chrome","132.0.0.0","Windows","10.0","https://app.prolific.com/","en-US,en;q=0.9","5c6a36214fbf270001311702","67949641171f97c04e14fb34","679c2c39a06e55cc294e66e0","","null","<img     src='G_3.jpg' height='90'> <img     src='G_1.jpg' height='90'> <img     src='G_4.jpg' height='90'> <img      src='G_6.jpg' height='90'> <img   src='G_7.jpg' height='90'> <img id='selected'       src='G_8.jpg' height='90'> <img id='selected'  src='G_5.jpg' height='90'> <img   src='G_2.jpg' height='90'>","null","Animation1",""
"","","","","","html-keyboard-response","117","1362542","0.0-105.0","75","1","2025-01-31 01:57:07","af8d355d56820e421d246a7037deb6e6","98.207.36.106","Mozilla/5.0 (Windows NT 10.0; Win64; x64) AppleWebKit/537.36 (KHTML, like Gecko) Chrome/132.0.0.0 Safari/537.36","WebKit","Chrome","132.0.0.0","Windows","10.0","https://app.prolific.com/","en-US,en;q=0.9","5c6a36214fbf270001311702","67949641171f97c04e14fb34","679c2c39a06e55cc294e66e0","","null","<img     src='G_3.jpg' height='90'> <img     src='G_1.jpg' height='90'> <img     src='G_4.jpg' height='90'> <img      src='G_6.jpg' height='90'> <img   src='G_7.jpg' height='90'> <img id='selected'       src='G_8.jpg' height='90'> <img id='selected'  src='G_5.jpg' height='90'> <img   src='G_2.jpg' height='90'>","null","Animation1",""
"","","","","","html-keyboard-response","118","1362848","0.0-106.0","75","1","2025-01-31 01:57:07","af8d355d56820e421d246a7037deb6e6","98.207.36.106","Mozilla/5.0 (Windows NT 10.0; Win64; x64) AppleWebKit/537.36 (KHTML, like Gecko) Chrome/132.0.0.0 Safari/537.36","WebKit","Chrome","132.0.0.0","Windows","10.0","https://app.prolific.com/","en-US,en;q=0.9","5c6a36214fbf270001311702","67949641171f97c04e14fb34","679c2c39a06e55cc294e66e0","","null","<img     src='G_3.jpg' height='90'> <img     src='G_1.jpg' height='90'> <img     src='G_4.jpg' height='90'> <img      src='G_6.jpg' height='90'> <img   src='G_7.jpg' height='90'> <img        src='G_8.jpg' height='90'> <img   src='G_5.jpg' height='90'> <img   src='G_2.jpg' height='90'>","null","Animation1",""
"","","","","","html-keyboard-response","119","1364797","0.0-107.0","75","1","2025-01-31 01:57:07","af8d355d56820e421d246a7037deb6e6","98.207.36.106","Mozilla/5.0 (Windows NT 10.0; Win64; x64) AppleWebKit/537.36 (KHTML, like Gecko) Chrome/132.0.0.0 Safari/537.36","WebKit","Chrome","132.0.0.0","Windows","10.0","https://app.prolific.com/","en-US,en;q=0.9","5c6a36214fbf270001311702","67949641171f97c04e14fb34","679c2c39a06e55cc294e66e0","","1946","[""Did you notice any patterns? <br><br>Press Enter to watch that example again and follow the steps of Omgne Sort.""]","enter","",""
"","","","","","html-button-response","120","1365211","0.0-108.0","75","1","2025-01-31 01:57:07","af8d355d56820e421d246a7037deb6e6","98.207.36.106","Mozilla/5.0 (Windows NT 10.0; Win64; x64) AppleWebKit/537.36 (KHTML, like Gecko) Chrome/132.0.0.0 Safari/537.36","WebKit","Chrome","132.0.0.0","Windows","10.0","https://app.prolific.com/","en-US,en;q=0.9","5c6a36214fbf270001311702","67949641171f97c04e14fb34","679c2c39a06e55cc294e66e0","","null","<img id='selected' src='G_6.jpg' height='90'> <img src='G_8.jpg' height='90'> <img src='G_4.jpg' height='90'> <img src='G_3.jpg' height='90'> <img src='G_1.jpg' height='90'> <img src='G_7.jpg' height='90'> <img src='G_2.jpg' height='90'> <img src='G_5.jpg' height='90'>","null","Learning example 1",""
"","","","","","html-button-response","121","1365516","0.0-109.0","75","1","2025-01-31 01:57:07","af8d355d56820e421d246a7037deb6e6","98.207.36.106","Mozilla/5.0 (Windows NT 10.0; Win64; x64) AppleWebKit/537.36 (KHTML, like Gecko) Chrome/132.0.0.0 Safari/537.36","WebKit","Chrome","132.0.0.0","Windows","10.0","https://app.prolific.com/","en-US,en;q=0.9","5c6a36214fbf270001311702","67949641171f97c04e14fb34","679c2c39a06e55cc294e66e0","","null","<img id='selected' src='G_6.jpg' height='90'> <img id='selected' src='G_8.jpg' height='90'> <img src='G_4.jpg' height='90'> <img src='G_3.jpg' height='90'> <img src='G_1.jpg' height='90'> <img src='G_7.jpg' height='90'> <img src='G_2.jpg' height='90'> <img src='G_5.jpg' height='90'>","null","Learning example 1",""
"","","","","","html-button-response","122","1365830","0.0-110.0","75","1","2025-01-31 01:57:07","af8d355d56820e421d246a7037deb6e6","98.207.36.106","Mozilla/5.0 (Windows NT 10.0; Win64; x64) AppleWebKit/537.36 (KHTML, like Gecko) Chrome/132.0.0.0 Safari/537.36","WebKit","Chrome","132.0.0.0","Windows","10.0","https://app.prolific.com/","en-US,en;q=0.9","5c6a36214fbf270001311702","67949641171f97c04e14fb34","679c2c39a06e55cc294e66e0","","null","<img id='selected' src='G_6.jpg' height='90'> <img id='selected' src='G_8.jpg' height='90'> <img src='G_4.jpg' height='90'> <img src='G_3.jpg' height='90'> <img src='G_1.jpg' height='90'> <img src='G_7.jpg' height='90'> <img src='G_2.jpg' height='90'> <img src='G_5.jpg' height='90'>","null","Learning example 1",""
"","","","","","html-button-response","123","1369108","0.0-111.0-0.0-0.0","75","1","2025-01-31 01:57:07","af8d355d56820e421d246a7037deb6e6","98.207.36.106","Mozilla/5.0 (Windows NT 10.0; Win64; x64) AppleWebKit/537.36 (KHTML, like Gecko) Chrome/132.0.0.0 Safari/537.36","WebKit","Chrome","132.0.0.0","Windows","10.0","https://app.prolific.com/","en-US,en;q=0.9","5c6a36214fbf270001311702","67949641171f97c04e14fb34","679c2c39a06e55cc294e66e0","","3274","<img id='selected' src='G_6.jpg' height='90'> <img id='selected' src='G_8.jpg' height='90'> <img src='G_4.jpg' height='90'> <img src='G_3.jpg' height='90'> <img src='G_1.jpg' height='90'> <img src='G_7.jpg' height='90'> <img src='G_2.jpg' height='90'> <img src='G_5.jpg' height='90'>","0","Learning example 1",""
"","","","","","html-button-response","124","1370091","0.0-111.1-0.1-0.1","75","1","2025-01-31 01:57:07","af8d355d56820e421d246a7037deb6e6","98.207.36.106","Mozilla/5.0 (Windows NT 10.0; Win64; x64) AppleWebKit/537.36 (KHTML, like Gecko) Chrome/132.0.0.0 Safari/537.36","WebKit","Chrome","132.0.0.0","Windows","10.0","https://app.prolific.com/","en-US,en;q=0.9","5c6a36214fbf270001311702","67949641171f97c04e14fb34","679c2c39a06e55cc294e66e0","","979","<img id='selected' src='G_6.jpg' height='90'> <img id='selected' src='G_8.jpg' height='90'> <img src='G_4.jpg' height='90'> <img src='G_3.jpg' height='90'> <img src='G_1.jpg' height='90'> <img src='G_7.jpg' height='90'> <img src='G_2.jpg' height='90'> <img src='G_5.jpg' height='90'>","1","Learning example 1",""
"","","","","","html-button-response","125","1370295","0.0-112.0","75","1","2025-01-31 01:57:07","af8d355d56820e421d246a7037deb6e6","98.207.36.106","Mozilla/5.0 (Windows NT 10.0; Win64; x64) AppleWebKit/537.36 (KHTML, like Gecko) Chrome/132.0.0.0 Safari/537.36","WebKit","Chrome","132.0.0.0","Windows","10.0","https://app.prolific.com/","en-US,en;q=0.9","5c6a36214fbf270001311702","67949641171f97c04e14fb34","679c2c39a06e55cc294e66e0","","null","<img  src='G_6.jpg' height='90'> <img  src='G_8.jpg' height='90'> <img src='G_4.jpg' height='90'> <img src='G_3.jpg' height='90'> <img src='G_1.jpg' height='90'> <img src='G_7.jpg' height='90'> <img src='G_2.jpg' height='90'> <img src='G_5.jpg' height='90'>","null","Learning example 1",""
"","","","","","html-button-response","126","1370706","0.0-113.0","75","1","2025-01-31 01:57:07","af8d355d56820e421d246a7037deb6e6","98.207.36.106","Mozilla/5.0 (Windows NT 10.0; Win64; x64) AppleWebKit/537.36 (KHTML, like Gecko) Chrome/132.0.0.0 Safari/537.36","WebKit","Chrome","132.0.0.0","Windows","10.0","https://app.prolific.com/","en-US,en;q=0.9","5c6a36214fbf270001311702","67949641171f97c04e14fb34","679c2c39a06e55cc294e66e0","","null","<img  src='G_6.jpg' height='90'> <img id='selected'  src='G_8.jpg' height='90'> <img src='G_4.jpg' height='90'> <img src='G_3.jpg' height='90'> <img src='G_1.jpg' height='90'> <img src='G_7.jpg' height='90'> <img src='G_2.jpg' height='90'> <img src='G_5.jpg' height='90'>","null","Learning example 1",""
"","","","","","html-button-response","127","1371021","0.0-114.0","75","1","2025-01-31 01:57:07","af8d355d56820e421d246a7037deb6e6","98.207.36.106","Mozilla/5.0 (Windows NT 10.0; Win64; x64) AppleWebKit/537.36 (KHTML, like Gecko) Chrome/132.0.0.0 Safari/537.36","WebKit","Chrome","132.0.0.0","Windows","10.0","https://app.prolific.com/","en-US,en;q=0.9","5c6a36214fbf270001311702","67949641171f97c04e14fb34","679c2c39a06e55cc294e66e0","","null","<img  src='G_6.jpg' height='90'> <img id='selected'  src='G_8.jpg' height='90'> <img id='selected' src='G_4.jpg' height='90'> <img src='G_3.jpg' height='90'> <img src='G_1.jpg' height='90'> <img src='G_7.jpg' height='90'> <img src='G_2.jpg' height='90'> <img src='G_5.jpg' height='90'>","null","Learning example 1",""
"","","","","","html-button-response","128","1371338","0.0-115.0","75","1","2025-01-31 01:57:07","af8d355d56820e421d246a7037deb6e6","98.207.36.106","Mozilla/5.0 (Windows NT 10.0; Win64; x64) AppleWebKit/537.36 (KHTML, like Gecko) Chrome/132.0.0.0 Safari/537.36","WebKit","Chrome","132.0.0.0","Windows","10.0","https://app.prolific.com/","en-US,en;q=0.9","5c6a36214fbf270001311702","67949641171f97c04e14fb34","679c2c39a06e55cc294e66e0","","null","<img  src='G_6.jpg' height='90'> <img id='swapped' src='G_4.jpg' height='90'> <img id='swapped'  src='G_8.jpg' height='90'> <img src='G_3.jpg' height='90'> <img src='G_1.jpg' height='90'> <img src='G_7.jpg' height='90'> <img src='G_2.jpg' height='90'> <img src='G_5.jpg' height='90'>","null","Learning example 1",""
"","","","","","html-button-response","129","1371872","0.0-116.0-0.0-0.0","75","1","2025-01-31 01:57:07","af8d355d56820e421d246a7037deb6e6","98.207.36.106","Mozilla/5.0 (Windows NT 10.0; Win64; x64) AppleWebKit/537.36 (KHTML, like Gecko) Chrome/132.0.0.0 Safari/537.36","WebKit","Chrome","132.0.0.0","Windows","10.0","https://app.prolific.com/","en-US,en;q=0.9","5c6a36214fbf270001311702","67949641171f97c04e14fb34","679c2c39a06e55cc294e66e0","","531","<img  src='G_6.jpg' height='90'> <img id='swapped' src='G_4.jpg' height='90'> <img id='swapped'  src='G_8.jpg' height='90'> <img src='G_3.jpg' height='90'> <img src='G_1.jpg' height='90'> <img src='G_7.jpg' height='90'> <img src='G_2.jpg' height='90'> <img src='G_5.jpg' height='90'>","1","Learning example 1",""
"","","","","","html-button-response","130","1373003","0.0-116.1-0.1-0.1","75","1","2025-01-31 01:57:07","af8d355d56820e421d246a7037deb6e6","98.207.36.106","Mozilla/5.0 (Windows NT 10.0; Win64; x64) AppleWebKit/537.36 (KHTML, like Gecko) Chrome/132.0.0.0 Safari/537.36","WebKit","Chrome","132.0.0.0","Windows","10.0","https://app.prolific.com/","en-US,en;q=0.9","5c6a36214fbf270001311702","67949641171f97c04e14fb34","679c2c39a06e55cc294e66e0","","1127","<img  src='G_6.jpg' height='90'> <img id='swapped' src='G_4.jpg' height='90'> <img id='swapped'  src='G_8.jpg' height='90'> <img src='G_3.jpg' height='90'> <img src='G_1.jpg' height='90'> <img src='G_7.jpg' height='90'> <img src='G_2.jpg' height='90'> <img src='G_5.jpg' height='90'>","2","Learning example 1",""
"","","","","","html-button-response","131","1373217","0.0-117.0","75","1","2025-01-31 01:57:07","af8d355d56820e421d246a7037deb6e6","98.207.36.106","Mozilla/5.0 (Windows NT 10.0; Win64; x64) AppleWebKit/537.36 (KHTML, like Gecko) Chrome/132.0.0.0 Safari/537.36","WebKit","Chrome","132.0.0.0","Windows","10.0","https://app.prolific.com/","en-US,en;q=0.9","5c6a36214fbf270001311702","67949641171f97c04e14fb34","679c2c39a06e55cc294e66e0","","null","<img  src='G_6.jpg' height='90'> <img  src='G_4.jpg' height='90'> <img   src='G_8.jpg' height='90'> <img src='G_3.jpg' height='90'> <img src='G_1.jpg' height='90'> <img src='G_7.jpg' height='90'> <img src='G_2.jpg' height='90'> <img src='G_5.jpg' height='90'>","null","Learning example 1",""
"","","","","","html-button-response","132","1373634","0.0-118.0","75","1","2025-01-31 01:57:07","af8d355d56820e421d246a7037deb6e6","98.207.36.106","Mozilla/5.0 (Windows NT 10.0; Win64; x64) AppleWebKit/537.36 (KHTML, like Gecko) Chrome/132.0.0.0 Safari/537.36","WebKit","Chrome","132.0.0.0","Windows","10.0","https://app.prolific.com/","en-US,en;q=0.9","5c6a36214fbf270001311702","67949641171f97c04e14fb34","679c2c39a06e55cc294e66e0","","null","<img id='selected'  src='G_6.jpg' height='90'> <img  src='G_4.jpg' height='90'> <img   src='G_8.jpg' height='90'> <img src='G_3.jpg' height='90'> <img src='G_1.jpg' height='90'> <img src='G_7.jpg' height='90'> <img src='G_2.jpg' height='90'> <img src='G_5.jpg' height='90'>","null","Learning example 1",""
"","","","","","html-button-response","133","1373952","0.0-119.0","75","1","2025-01-31 01:57:07","af8d355d56820e421d246a7037deb6e6","98.207.36.106","Mozilla/5.0 (Windows NT 10.0; Win64; x64) AppleWebKit/537.36 (KHTML, like Gecko) Chrome/132.0.0.0 Safari/537.36","WebKit","Chrome","132.0.0.0","Windows","10.0","https://app.prolific.com/","en-US,en;q=0.9","5c6a36214fbf270001311702","67949641171f97c04e14fb34","679c2c39a06e55cc294e66e0","","null","<img id='selected'  src='G_6.jpg' height='90'> <img id='selected'  src='G_4.jpg' height='90'> <img   src='G_8.jpg' height='90'> <img src='G_3.jpg' height='90'> <img src='G_1.jpg' height='90'> <img src='G_7.jpg' height='90'> <img src='G_2.jpg' height='90'> <img src='G_5.jpg' height='90'>","null","Learning example 1",""
"","","","","","html-button-response","134","1374265","0.0-120.0","75","1","2025-01-31 01:57:07","af8d355d56820e421d246a7037deb6e6","98.207.36.106","Mozilla/5.0 (Windows NT 10.0; Win64; x64) AppleWebKit/537.36 (KHTML, like Gecko) Chrome/132.0.0.0 Safari/537.36","WebKit","Chrome","132.0.0.0","Windows","10.0","https://app.prolific.com/","en-US,en;q=0.9","5c6a36214fbf270001311702","67949641171f97c04e14fb34","679c2c39a06e55cc294e66e0","","null","<img id='swapped'  src='G_4.jpg' height='90'> <img id='swapped'  src='G_6.jpg' height='90'> <img   src='G_8.jpg' height='90'> <img src='G_3.jpg' height='90'> <img src='G_1.jpg' height='90'> <img src='G_7.jpg' height='90'> <img src='G_2.jpg' height='90'> <img src='G_5.jpg' height='90'>","null","Learning example 1",""
"","","","","","html-button-response","135","1374934","0.0-121.0-0.0-0.0","75","1","2025-01-31 01:57:07","af8d355d56820e421d246a7037deb6e6","98.207.36.106","Mozilla/5.0 (Windows NT 10.0; Win64; x64) AppleWebKit/537.36 (KHTML, like Gecko) Chrome/132.0.0.0 Safari/537.36","WebKit","Chrome","132.0.0.0","Windows","10.0","https://app.prolific.com/","en-US,en;q=0.9","5c6a36214fbf270001311702","67949641171f97c04e14fb34","679c2c39a06e55cc294e66e0","","665","<img id='swapped'  src='G_4.jpg' height='90'> <img id='swapped'  src='G_6.jpg' height='90'> <img   src='G_8.jpg' height='90'> <img src='G_3.jpg' height='90'> <img src='G_1.jpg' height='90'> <img src='G_7.jpg' height='90'> <img src='G_2.jpg' height='90'> <img src='G_5.jpg' height='90'>","0","Learning example 1",""
"","","","","","html-button-response","136","1375899","0.0-121.1-0.1-0.1","75","1","2025-01-31 01:57:07","af8d355d56820e421d246a7037deb6e6","98.207.36.106","Mozilla/5.0 (Windows NT 10.0; Win64; x64) AppleWebKit/537.36 (KHTML, like Gecko) Chrome/132.0.0.0 Safari/537.36","WebKit","Chrome","132.0.0.0","Windows","10.0","https://app.prolific.com/","en-US,en;q=0.9","5c6a36214fbf270001311702","67949641171f97c04e14fb34","679c2c39a06e55cc294e66e0","","960","<img id='swapped'  src='G_4.jpg' height='90'> <img id='swapped'  src='G_6.jpg' height='90'> <img   src='G_8.jpg' height='90'> <img src='G_3.jpg' height='90'> <img src='G_1.jpg' height='90'> <img src='G_7.jpg' height='90'> <img src='G_2.jpg' height='90'> <img src='G_5.jpg' height='90'>","1","Learning example 1",""
"","","","","","html-button-response","137","1376115","0.0-122.0","75","1","2025-01-31 01:57:07","af8d355d56820e421d246a7037deb6e6","98.207.36.106","Mozilla/5.0 (Windows NT 10.0; Win64; x64) AppleWebKit/537.36 (KHTML, like Gecko) Chrome/132.0.0.0 Safari/537.36","WebKit","Chrome","132.0.0.0","Windows","10.0","https://app.prolific.com/","en-US,en;q=0.9","5c6a36214fbf270001311702","67949641171f97c04e14fb34","679c2c39a06e55cc294e66e0","","null","<img   src='G_4.jpg' height='90'> <img   src='G_6.jpg' height='90'> <img   src='G_8.jpg' height='90'> <img src='G_3.jpg' height='90'> <img src='G_1.jpg' height='90'> <img src='G_7.jpg' height='90'> <img src='G_2.jpg' height='90'> <img src='G_5.jpg' height='90'>","null","Learning example 1",""
"","","","","","html-button-response","138","1376531","0.0-123.0","75","1","2025-01-31 01:57:07","af8d355d56820e421d246a7037deb6e6","98.207.36.106","Mozilla/5.0 (Windows NT 10.0; Win64; x64) AppleWebKit/537.36 (KHTML, like Gecko) Chrome/132.0.0.0 Safari/537.36","WebKit","Chrome","132.0.0.0","Windows","10.0","https://app.prolific.com/","en-US,en;q=0.9","5c6a36214fbf270001311702","67949641171f97c04e14fb34","679c2c39a06e55cc294e66e0","","null","<img   src='G_4.jpg' height='90'> <img   src='G_6.jpg' height='90'> <img id='selected'   src='G_8.jpg' height='90'> <img src='G_3.jpg' height='90'> <img src='G_1.jpg' height='90'> <img src='G_7.jpg' height='90'> <img src='G_2.jpg' height='90'> <img src='G_5.jpg' height='90'>","null","Learning example 1",""
"","","","","","html-button-response","139","1376835","0.0-124.0","75","1","2025-01-31 01:57:07","af8d355d56820e421d246a7037deb6e6","98.207.36.106","Mozilla/5.0 (Windows NT 10.0; Win64; x64) AppleWebKit/537.36 (KHTML, like Gecko) Chrome/132.0.0.0 Safari/537.36","WebKit","Chrome","132.0.0.0","Windows","10.0","https://app.prolific.com/","en-US,en;q=0.9","5c6a36214fbf270001311702","67949641171f97c04e14fb34","679c2c39a06e55cc294e66e0","","null","<img   src='G_4.jpg' height='90'> <img   src='G_6.jpg' height='90'> <img id='selected'   src='G_8.jpg' height='90'> <img id='selected' src='G_3.jpg' height='90'> <img src='G_1.jpg' height='90'> <img src='G_7.jpg' height='90'> <img src='G_2.jpg' height='90'> <img src='G_5.jpg' height='90'>","null","Learning example 1",""
"","","","","","html-button-response","140","1377147","0.0-125.0","75","1","2025-01-31 01:57:07","af8d355d56820e421d246a7037deb6e6","98.207.36.106","Mozilla/5.0 (Windows NT 10.0; Win64; x64) AppleWebKit/537.36 (KHTML, like Gecko) Chrome/132.0.0.0 Safari/537.36","WebKit","Chrome","132.0.0.0","Windows","10.0","https://app.prolific.com/","en-US,en;q=0.9","5c6a36214fbf270001311702","67949641171f97c04e14fb34","679c2c39a06e55cc294e66e0","","null","<img   src='G_4.jpg' height='90'> <img   src='G_6.jpg' height='90'> <img id='swapped' src='G_3.jpg' height='90'> <img id='swapped'   src='G_8.jpg' height='90'> <img src='G_1.jpg' height='90'> <img src='G_7.jpg' height='90'> <img src='G_2.jpg' height='90'> <img src='G_5.jpg' height='90'>","null","Learning example 1",""
"","","","","","html-button-response","141","1378097","0.0-126.0-0.0-0.0","75","1","2025-01-31 01:57:07","af8d355d56820e421d246a7037deb6e6","98.207.36.106","Mozilla/5.0 (Windows NT 10.0; Win64; x64) AppleWebKit/537.36 (KHTML, like Gecko) Chrome/132.0.0.0 Safari/537.36","WebKit","Chrome","132.0.0.0","Windows","10.0","https://app.prolific.com/","en-US,en;q=0.9","5c6a36214fbf270001311702","67949641171f97c04e14fb34","679c2c39a06e55cc294e66e0","","945","<img   src='G_4.jpg' height='90'> <img   src='G_6.jpg' height='90'> <img id='swapped' src='G_3.jpg' height='90'> <img id='swapped'   src='G_8.jpg' height='90'> <img src='G_1.jpg' height='90'> <img src='G_7.jpg' height='90'> <img src='G_2.jpg' height='90'> <img src='G_5.jpg' height='90'>","2","Learning example 1",""
