"success","timeout","failed_images","failed_audio","failed_video","trial_type","trial_index","time_elapsed","internal_node_id","run_id","condition","recorded_at","source_code_version","ip","user_agent","device","browser","browser_version","platform","platform_version","referer","accept_language","PROLIFIC_PID","STUDY_ID","SESSION_ID","view_history","rt","stimulus","response","phase","question_order"
"true","false","[]","[]","[]","preload","0","141","0.0-0.0","76","1","2025-01-31 02:10:10","af8d355d56820e421d246a7037deb6e6","100.7.95.150","Mozilla/5.0 (Macintosh; Intel Mac OS X 10_15_7) AppleWebKit/537.36 (KHTML, like Gecko) Chrome/132.0.0.0 Safari/537.36","Macintosh","Chrome","132.0.0.0","OS X","10_15_7","https://app.prolific.com/","en-US,en;q=0.9,zh-CN;q=0.8,zh;q=0.7","5f4eb642ce413e0ecc88e227","67949641171f97c04e14fb34","679c30f237d1588852af609c","","","","","",""
"","","","","","instructions","1","5044","0.0-1.0","76","1","2025-01-31 02:10:10","af8d355d56820e421d246a7037deb6e6","100.7.95.150","Mozilla/5.0 (Macintosh; Intel Mac OS X 10_15_7) AppleWebKit/537.36 (KHTML, like Gecko) Chrome/132.0.0.0 Safari/537.36","Macintosh","Chrome","132.0.0.0","OS X","10_15_7","https://app.prolific.com/","en-US,en;q=0.9,zh-CN;q=0.8,zh;q=0.7","5f4eb642ce413e0ecc88e227","67949641171f97c04e14fb34","679c30f237d1588852af609c","[{""page_index"":0,""viewing_time"":4902}]","4902","","","",""
"","","","","","html-keyboard-response","2","5547","0.0-2.0","76","1","2025-01-31 02:10:10","af8d355d56820e421d246a7037deb6e6","100.7.95.150","Mozilla/5.0 (Macintosh; Intel Mac OS X 10_15_7) AppleWebKit/537.36 (KHTML, like Gecko) Chrome/132.0.0.0 Safari/537.36","Macintosh","Chrome","132.0.0.0","OS X","10_15_7","https://app.prolific.com/","en-US,en;q=0.9,zh-CN;q=0.8,zh;q=0.7","5f4eb642ce413e0ecc88e227","67949641171f97c04e14fb34","679c30f237d1588852af609c","","null","<p> + <p/>","null","",""
"","","","","","instructions","3","69565","0.0-3.0","76","1","2025-01-31 02:10:10","af8d355d56820e421d246a7037deb6e6","100.7.95.150","Mozilla/5.0 (Macintosh; Intel Mac OS X 10_15_7) AppleWebKit/537.36 (KHTML, like Gecko) Chrome/132.0.0.0 Safari/537.36","Macintosh","Chrome","132.0.0.0","OS X","10_15_7","https://app.prolific.com/","en-US,en;q=0.9,zh-CN;q=0.8,zh;q=0.7","5f4eb642ce413e0ecc88e227","67949641171f97c04e14fb34","679c30f237d1588852af609c","[{""page_index"":0,""viewing_time"":2000},{""page_index"":1,""viewing_time"":8417},{""page_index"":2,""viewing_time"":7608},{""page_index"":3,""viewing_time"":3465},{""page_index"":4,""viewing_time"":42527}]","64017","","","",""
"","","","","","html-button-response","4","71553","0.0-4.0-0.0-0.0","76","1","2025-01-31 02:10:10","af8d355d56820e421d246a7037deb6e6","100.7.95.150","Mozilla/5.0 (Macintosh; Intel Mac OS X 10_15_7) AppleWebKit/537.36 (KHTML, like Gecko) Chrome/132.0.0.0 Safari/537.36","Macintosh","Chrome","132.0.0.0","OS X","10_15_7","https://app.prolific.com/","en-US,en;q=0.9,zh-CN;q=0.8,zh;q=0.7","5f4eb642ce413e0ecc88e227","67949641171f97c04e14fb34","679c30f237d1588852af609c","","1982","","0","Intro Trial",""
"","","","","","html-button-response","5","72124","0.0-4.1-0.1-0.1","76","1","2025-01-31 02:10:10","af8d355d56820e421d246a7037deb6e6","100.7.95.150","Mozilla/5.0 (Macintosh; Intel Mac OS X 10_15_7) AppleWebKit/537.36 (KHTML, like Gecko) Chrome/132.0.0.0 Safari/537.36","Macintosh","Chrome","132.0.0.0","OS X","10_15_7","https://app.prolific.com/","en-US,en;q=0.9,zh-CN;q=0.8,zh;q=0.7","5f4eb642ce413e0ecc88e227","67949641171f97c04e14fb34","679c30f237d1588852af609c","","568","","1","Intro Trial",""
"","","","","","html-button-response","6","80565","0.0-4.2-0.2-0.2","76","1","2025-01-31 02:10:10","af8d355d56820e421d246a7037deb6e6","100.7.95.150","Mozilla/5.0 (Macintosh; Intel Mac OS X 10_15_7) AppleWebKit/537.36 (KHTML, like Gecko) Chrome/132.0.0.0 Safari/537.36","Macintosh","Chrome","132.0.0.0","OS X","10_15_7","https://app.prolific.com/","en-US,en;q=0.9,zh-CN;q=0.8,zh;q=0.7","5f4eb642ce413e0ecc88e227","67949641171f97c04e14fb34","679c30f237d1588852af609c","","8439","","2","Intro Trial",""
"","","","","","html-button-response","7","81379","0.0-4.3-0.3-0.3","76","1","2025-01-31 02:10:10","af8d355d56820e421d246a7037deb6e6","100.7.95.150","Mozilla/5.0 (Macintosh; Intel Mac OS X 10_15_7) AppleWebKit/537.36 (KHTML, like Gecko) Chrome/132.0.0.0 Safari/537.36","Macintosh","Chrome","132.0.0.0","OS X","10_15_7","https://app.prolific.com/","en-US,en;q=0.9,zh-CN;q=0.8,zh;q=0.7","5f4eb642ce413e0ecc88e227","67949641171f97c04e14fb34","679c30f237d1588852af609c","","812","","0","Intro Trial",""
"","","","","","html-button-response","8","93947","0.0-4.4-0.4-0.4","76","1","2025-01-31 02:10:10","af8d355d56820e421d246a7037deb6e6","100.7.95.150","Mozilla/5.0 (Macintosh; Intel Mac OS X 10_15_7) AppleWebKit/537.36 (KHTML, like Gecko) Chrome/132.0.0.0 Safari/537.36","Macintosh","Chrome","132.0.0.0","OS X","10_15_7","https://app.prolific.com/","en-US,en;q=0.9,zh-CN;q=0.8,zh;q=0.7","5f4eb642ce413e0ecc88e227","67949641171f97c04e14fb34","679c30f237d1588852af609c","","12565","","2","Intro Trial",""
"","","","","","html-button-response","9","95401","0.0-4.5-0.5-0.5","76","1","2025-01-31 02:10:10","af8d355d56820e421d246a7037deb6e6","100.7.95.150","Mozilla/5.0 (Macintosh; Intel Mac OS X 10_15_7) AppleWebKit/537.36 (KHTML, like Gecko) Chrome/132.0.0.0 Safari/537.36","Macintosh","Chrome","132.0.0.0","OS X","10_15_7","https://app.prolific.com/","en-US,en;q=0.9,zh-CN;q=0.8,zh;q=0.7","5f4eb642ce413e0ecc88e227","67949641171f97c04e14fb34","679c30f237d1588852af609c","","1452","","0","Intro Trial",""
"","","","","","html-button-response","10","98776","0.0-4.6-0.6-0.6","76","1","2025-01-31 02:10:10","af8d355d56820e421d246a7037deb6e6","100.7.95.150","Mozilla/5.0 (Macintosh; Intel Mac OS X 10_15_7) AppleWebKit/537.36 (KHTML, like Gecko) Chrome/132.0.0.0 Safari/537.36","Macintosh","Chrome","132.0.0.0","OS X","10_15_7","https://app.prolific.com/","en-US,en;q=0.9,zh-CN;q=0.8,zh;q=0.7","5f4eb642ce413e0ecc88e227","67949641171f97c04e14fb34","679c30f237d1588852af609c","","3372","","2","Intro Trial",""
"","","","","","html-button-response","11","99225","0.0-4.7-0.7-0.7","76","1","2025-01-31 02:10:10","af8d355d56820e421d246a7037deb6e6","100.7.95.150","Mozilla/5.0 (Macintosh; Intel Mac OS X 10_15_7) AppleWebKit/537.36 (KHTML, like Gecko) Chrome/132.0.0.0 Safari/537.36","Macintosh","Chrome","132.0.0.0","OS X","10_15_7","https://app.prolific.com/","en-US,en;q=0.9,zh-CN;q=0.8,zh;q=0.7","5f4eb642ce413e0ecc88e227","67949641171f97c04e14fb34","679c30f237d1588852af609c","","448","","1","Intro Trial",""
"","","","","","html-button-response","12","100306","0.0-4.8-0.8-0.8","76","1","2025-01-31 02:10:10","af8d355d56820e421d246a7037deb6e6","100.7.95.150","Mozilla/5.0 (Macintosh; Intel Mac OS X 10_15_7) AppleWebKit/537.36 (KHTML, like Gecko) Chrome/132.0.0.0 Safari/537.36","Macintosh","Chrome","132.0.0.0","OS X","10_15_7","https://app.prolific.com/","en-US,en;q=0.9,zh-CN;q=0.8,zh;q=0.7","5f4eb642ce413e0ecc88e227","67949641171f97c04e14fb34","679c30f237d1588852af609c","","1081","","3","Intro Trial",""
"","","","","","html-button-response","13","100697","0.0-4.9-0.9-0.9","76","1","2025-01-31 02:10:10","af8d355d56820e421d246a7037deb6e6","100.7.95.150","Mozilla/5.0 (Macintosh; Intel Mac OS X 10_15_7) AppleWebKit/537.36 (KHTML, like Gecko) Chrome/132.0.0.0 Safari/537.36","Macintosh","Chrome","132.0.0.0","OS X","10_15_7","https://app.prolific.com/","en-US,en;q=0.9,zh-CN;q=0.8,zh;q=0.7","5f4eb642ce413e0ecc88e227","67949641171f97c04e14fb34","679c30f237d1588852af609c","","389","","2","Intro Trial",""
"","","","","","html-button-response","14","101401","0.0-4.10-0.10-0.10","76","1","2025-01-31 02:10:10","af8d355d56820e421d246a7037deb6e6","100.7.95.150","Mozilla/5.0 (Macintosh; Intel Mac OS X 10_15_7) AppleWebKit/537.36 (KHTML, like Gecko) Chrome/132.0.0.0 Safari/537.36","Macintosh","Chrome","132.0.0.0","OS X","10_15_7","https://app.prolific.com/","en-US,en;q=0.9,zh-CN;q=0.8,zh;q=0.7","5f4eb642ce413e0ecc88e227","67949641171f97c04e14fb34","679c30f237d1588852af609c","","703","","3","Intro Trial",""
"","","","","","html-button-response","15","101867","0.0-4.11-0.11-0.11","76","1","2025-01-31 02:10:10","af8d355d56820e421d246a7037deb6e6","100.7.95.150","Mozilla/5.0 (Macintosh; Intel Mac OS X 10_15_7) AppleWebKit/537.36 (KHTML, like Gecko) Chrome/132.0.0.0 Safari/537.36","Macintosh","Chrome","132.0.0.0","OS X","10_15_7","https://app.prolific.com/","en-US,en;q=0.9,zh-CN;q=0.8,zh;q=0.7","5f4eb642ce413e0ecc88e227","67949641171f97c04e14fb34","679c30f237d1588852af609c","","463","","1","Intro Trial",""
"","","","","","html-button-response","16","102708","0.0-4.12-0.12-0.12","76","1","2025-01-31 02:10:10","af8d355d56820e421d246a7037deb6e6","100.7.95.150","Mozilla/5.0 (Macintosh; Intel Mac OS X 10_15_7) AppleWebKit/537.36 (KHTML, like Gecko) Chrome/132.0.0.0 Safari/537.36","Macintosh","Chrome","132.0.0.0","OS X","10_15_7","https://app.prolific.com/","en-US,en;q=0.9,zh-CN;q=0.8,zh;q=0.7","5f4eb642ce413e0ecc88e227","67949641171f97c04e14fb34","679c30f237d1588852af609c","","840","","4","Intro Trial",""
"","","","","","html-button-response","17","103336","0.0-4.13-0.13-0.13","76","1","2025-01-31 02:10:10","af8d355d56820e421d246a7037deb6e6","100.7.95.150","Mozilla/5.0 (Macintosh; Intel Mac OS X 10_15_7) AppleWebKit/537.36 (KHTML, like Gecko) Chrome/132.0.0.0 Safari/537.36","Macintosh","Chrome","132.0.0.0","OS X","10_15_7","https://app.prolific.com/","en-US,en;q=0.9,zh-CN;q=0.8,zh;q=0.7","5f4eb642ce413e0ecc88e227","67949641171f97c04e14fb34","679c30f237d1588852af609c","","625","","2","Intro Trial",""
"","","","","","html-button-response","18","104477","0.0-4.14-0.14-0.14","76","1","2025-01-31 02:10:10","af8d355d56820e421d246a7037deb6e6","100.7.95.150","Mozilla/5.0 (Macintosh; Intel Mac OS X 10_15_7) AppleWebKit/537.36 (KHTML, like Gecko) Chrome/132.0.0.0 Safari/537.36","Macintosh","Chrome","132.0.0.0","OS X","10_15_7","https://app.prolific.com/","en-US,en;q=0.9,zh-CN;q=0.8,zh;q=0.7","5f4eb642ce413e0ecc88e227","67949641171f97c04e14fb34","679c30f237d1588852af609c","","1139","","4","Intro Trial",""
"","","","","","html-button-response","19","104866","0.0-4.15-0.15-0.15","76","1","2025-01-31 02:10:10","af8d355d56820e421d246a7037deb6e6","100.7.95.150","Mozilla/5.0 (Macintosh; Intel Mac OS X 10_15_7) AppleWebKit/537.36 (KHTML, like Gecko) Chrome/132.0.0.0 Safari/537.36","Macintosh","Chrome","132.0.0.0","OS X","10_15_7","https://app.prolific.com/","en-US,en;q=0.9,zh-CN;q=0.8,zh;q=0.7","5f4eb642ce413e0ecc88e227","67949641171f97c04e14fb34","679c30f237d1588852af609c","","388","","3","Intro Trial",""
"","","","","","html-button-response","20","105782","0.0-4.16-0.16-0.16","76","1","2025-01-31 02:10:10","af8d355d56820e421d246a7037deb6e6","100.7.95.150","Mozilla/5.0 (Macintosh; Intel Mac OS X 10_15_7) AppleWebKit/537.36 (KHTML, like Gecko) Chrome/132.0.0.0 Safari/537.36","Macintosh","Chrome","132.0.0.0","OS X","10_15_7","https://app.prolific.com/","en-US,en;q=0.9,zh-CN;q=0.8,zh;q=0.7","5f4eb642ce413e0ecc88e227","67949641171f97c04e14fb34","679c30f237d1588852af609c","","914","","4","Intro Trial",""
"","","","","","html-button-response","21","106365","0.0-4.17-0.17-0.17","76","1","2025-01-31 02:10:10","af8d355d56820e421d246a7037deb6e6","100.7.95.150","Mozilla/5.0 (Macintosh; Intel Mac OS X 10_15_7) AppleWebKit/537.36 (KHTML, like Gecko) Chrome/132.0.0.0 Safari/537.36","Macintosh","Chrome","132.0.0.0","OS X","10_15_7","https://app.prolific.com/","en-US,en;q=0.9,zh-CN;q=0.8,zh;q=0.7","5f4eb642ce413e0ecc88e227","67949641171f97c04e14fb34","679c30f237d1588852af609c","","581","","3","Intro Trial",""
"","","","","","html-button-response","22","107030","0.0-4.18-0.18-0.18","76","1","2025-01-31 02:10:10","af8d355d56820e421d246a7037deb6e6","100.7.95.150","Mozilla/5.0 (Macintosh; Intel Mac OS X 10_15_7) AppleWebKit/537.36 (KHTML, like Gecko) Chrome/132.0.0.0 Safari/537.36","Macintosh","Chrome","132.0.0.0","OS X","10_15_7","https://app.prolific.com/","en-US,en;q=0.9,zh-CN;q=0.8,zh;q=0.7","5f4eb642ce413e0ecc88e227","67949641171f97c04e14fb34","679c30f237d1588852af609c","","663","","3","Intro Trial",""
"","","","","","html-button-response","23","107507","0.0-4.19-0.19-0.19","76","1","2025-01-31 02:10:10","af8d355d56820e421d246a7037deb6e6","100.7.95.150","Mozilla/5.0 (Macintosh; Intel Mac OS X 10_15_7) AppleWebKit/537.36 (KHTML, like Gecko) Chrome/132.0.0.0 Safari/537.36","Macintosh","Chrome","132.0.0.0","OS X","10_15_7","https://app.prolific.com/","en-US,en;q=0.9,zh-CN;q=0.8,zh;q=0.7","5f4eb642ce413e0ecc88e227","67949641171f97c04e14fb34","679c30f237d1588852af609c","","474","","2","Intro Trial",""
"","","","","","html-button-response","24","108106","0.0-4.20-0.20-0.20","76","1","2025-01-31 02:10:10","af8d355d56820e421d246a7037deb6e6","100.7.95.150","Mozilla/5.0 (Macintosh; Intel Mac OS X 10_15_7) AppleWebKit/537.36 (KHTML, like Gecko) Chrome/132.0.0.0 Safari/537.36","Macintosh","Chrome","132.0.0.0","OS X","10_15_7","https://app.prolific.com/","en-US,en;q=0.9,zh-CN;q=0.8,zh;q=0.7","5f4eb642ce413e0ecc88e227","67949641171f97c04e14fb34","679c30f237d1588852af609c","","596","","2","Intro Trial",""
"","","","","","html-button-response","25","108556","0.0-4.21-0.21-0.21","76","1","2025-01-31 02:10:10","af8d355d56820e421d246a7037deb6e6","100.7.95.150","Mozilla/5.0 (Macintosh; Intel Mac OS X 10_15_7) AppleWebKit/537.36 (KHTML, like Gecko) Chrome/132.0.0.0 Safari/537.36","Macintosh","Chrome","132.0.0.0","OS X","10_15_7","https://app.prolific.com/","en-US,en;q=0.9,zh-CN;q=0.8,zh;q=0.7","5f4eb642ce413e0ecc88e227","67949641171f97c04e14fb34","679c30f237d1588852af609c","","449","","1","Intro Trial",""
"","","","","","html-button-response","26","110028","0.0-4.22-0.22-0.22","76","1","2025-01-31 02:10:10","af8d355d56820e421d246a7037deb6e6","100.7.95.150","Mozilla/5.0 (Macintosh; Intel Mac OS X 10_15_7) AppleWebKit/537.36 (KHTML, like Gecko) Chrome/132.0.0.0 Safari/537.36","Macintosh","Chrome","132.0.0.0","OS X","10_15_7","https://app.prolific.com/","en-US,en;q=0.9,zh-CN;q=0.8,zh;q=0.7","5f4eb642ce413e0ecc88e227","67949641171f97c04e14fb34","679c30f237d1588852af609c","","1470","","2","Intro Trial",""
"","","","","","html-button-response","27","110479","0.0-4.23-0.23-0.23","76","1","2025-01-31 02:10:10","af8d355d56820e421d246a7037deb6e6","100.7.95.150","Mozilla/5.0 (Macintosh; Intel Mac OS X 10_15_7) AppleWebKit/537.36 (KHTML, like Gecko) Chrome/132.0.0.0 Safari/537.36","Macintosh","Chrome","132.0.0.0","OS X","10_15_7","https://app.prolific.com/","en-US,en;q=0.9,zh-CN;q=0.8,zh;q=0.7","5f4eb642ce413e0ecc88e227","67949641171f97c04e14fb34","679c30f237d1588852af609c","","449","","3","Intro Trial",""
"","","","","","html-button-response","28","112231","0.0-4.24-0.24-0.24","76","1","2025-01-31 02:10:10","af8d355d56820e421d246a7037deb6e6","100.7.95.150","Mozilla/5.0 (Macintosh; Intel Mac OS X 10_15_7) AppleWebKit/537.36 (KHTML, like Gecko) Chrome/132.0.0.0 Safari/537.36","Macintosh","Chrome","132.0.0.0","OS X","10_15_7","https://app.prolific.com/","en-US,en;q=0.9,zh-CN;q=0.8,zh;q=0.7","5f4eb642ce413e0ecc88e227","67949641171f97c04e14fb34","679c30f237d1588852af609c","","1749","","0","Intro Trial",""
"","","","","","html-button-response","29","112729","0.0-4.25-0.25-0.25","76","1","2025-01-31 02:10:10","af8d355d56820e421d246a7037deb6e6","100.7.95.150","Mozilla/5.0 (Macintosh; Intel Mac OS X 10_15_7) AppleWebKit/537.36 (KHTML, like Gecko) Chrome/132.0.0.0 Safari/537.36","Macintosh","Chrome","132.0.0.0","OS X","10_15_7","https://app.prolific.com/","en-US,en;q=0.9,zh-CN;q=0.8,zh;q=0.7","5f4eb642ce413e0ecc88e227","67949641171f97c04e14fb34","679c30f237d1588852af609c","","497","","1","Intro Trial",""
"","","","","","html-button-response","30","114031","0.0-4.26-0.26-0.26","76","1","2025-01-31 02:10:10","af8d355d56820e421d246a7037deb6e6","100.7.95.150","Mozilla/5.0 (Macintosh; Intel Mac OS X 10_15_7) AppleWebKit/537.36 (KHTML, like Gecko) Chrome/132.0.0.0 Safari/537.36","Macintosh","Chrome","132.0.0.0","OS X","10_15_7","https://app.prolific.com/","en-US,en;q=0.9,zh-CN;q=0.8,zh;q=0.7","5f4eb642ce413e0ecc88e227","67949641171f97c04e14fb34","679c30f237d1588852af609c","","1301","","2","Intro Trial",""
"","","","","","html-button-response","31","115066","0.0-4.27-0.27-0.27","76","1","2025-01-31 02:10:10","af8d355d56820e421d246a7037deb6e6","100.7.95.150","Mozilla/5.0 (Macintosh; Intel Mac OS X 10_15_7) AppleWebKit/537.36 (KHTML, like Gecko) Chrome/132.0.0.0 Safari/537.36","Macintosh","Chrome","132.0.0.0","OS X","10_15_7","https://app.prolific.com/","en-US,en;q=0.9,zh-CN;q=0.8,zh;q=0.7","5f4eb642ce413e0ecc88e227","67949641171f97c04e14fb34","679c30f237d1588852af609c","","1031","","1","Intro Trial",""
"","","","","","html-button-response","32","115817","0.0-4.28-0.28-0.28","76","1","2025-01-31 02:10:10","af8d355d56820e421d246a7037deb6e6","100.7.95.150","Mozilla/5.0 (Macintosh; Intel Mac OS X 10_15_7) AppleWebKit/537.36 (KHTML, like Gecko) Chrome/132.0.0.0 Safari/537.36","Macintosh","Chrome","132.0.0.0","OS X","10_15_7","https://app.prolific.com/","en-US,en;q=0.9,zh-CN;q=0.8,zh;q=0.7","5f4eb642ce413e0ecc88e227","67949641171f97c04e14fb34","679c30f237d1588852af609c","","748","","1","Intro Trial",""
"","","","","","html-button-response","33","116373","0.0-4.29-0.29-0.29","76","1","2025-01-31 02:10:10","af8d355d56820e421d246a7037deb6e6","100.7.95.150","Mozilla/5.0 (Macintosh; Intel Mac OS X 10_15_7) AppleWebKit/537.36 (KHTML, like Gecko) Chrome/132.0.0.0 Safari/537.36","Macintosh","Chrome","132.0.0.0","OS X","10_15_7","https://app.prolific.com/","en-US,en;q=0.9,zh-CN;q=0.8,zh;q=0.7","5f4eb642ce413e0ecc88e227","67949641171f97c04e14fb34","679c30f237d1588852af609c","","552","","3","Intro Trial",""
"","","","","","html-button-response","34","117212","0.0-4.30-0.30-0.30","76","1","2025-01-31 02:10:10","af8d355d56820e421d246a7037deb6e6","100.7.95.150","Mozilla/5.0 (Macintosh; Intel Mac OS X 10_15_7) AppleWebKit/537.36 (KHTML, like Gecko) Chrome/132.0.0.0 Safari/537.36","Macintosh","Chrome","132.0.0.0","OS X","10_15_7","https://app.prolific.com/","en-US,en;q=0.9,zh-CN;q=0.8,zh;q=0.7","5f4eb642ce413e0ecc88e227","67949641171f97c04e14fb34","679c30f237d1588852af609c","","834","","1","Intro Trial",""
"","","","","","html-button-response","35","117736","0.0-4.31-0.31-0.31","76","1","2025-01-31 02:10:10","af8d355d56820e421d246a7037deb6e6","100.7.95.150","Mozilla/5.0 (Macintosh; Intel Mac OS X 10_15_7) AppleWebKit/537.36 (KHTML, like Gecko) Chrome/132.0.0.0 Safari/537.36","Macintosh","Chrome","132.0.0.0","OS X","10_15_7","https://app.prolific.com/","en-US,en;q=0.9,zh-CN;q=0.8,zh;q=0.7","5f4eb642ce413e0ecc88e227","67949641171f97c04e14fb34","679c30f237d1588852af609c","","520","","4","Intro Trial",""
"","","","","","html-button-response","36","118275","0.0-4.32-0.32-0.32","76","1","2025-01-31 02:10:10","af8d355d56820e421d246a7037deb6e6","100.7.95.150","Mozilla/5.0 (Macintosh; Intel Mac OS X 10_15_7) AppleWebKit/537.36 (KHTML, like Gecko) Chrome/132.0.0.0 Safari/537.36","Macintosh","Chrome","132.0.0.0","OS X","10_15_7","https://app.prolific.com/","en-US,en;q=0.9,zh-CN;q=0.8,zh;q=0.7","5f4eb642ce413e0ecc88e227","67949641171f97c04e14fb34","679c30f237d1588852af609c","","535","","4","Intro Trial",""
"","","","","","html-button-response","37","118863","0.0-4.33-0.33-0.33","76","1","2025-01-31 02:10:10","af8d355d56820e421d246a7037deb6e6","100.7.95.150","Mozilla/5.0 (Macintosh; Intel Mac OS X 10_15_7) AppleWebKit/537.36 (KHTML, like Gecko) Chrome/132.0.0.0 Safari/537.36","Macintosh","Chrome","132.0.0.0","OS X","10_15_7","https://app.prolific.com/","en-US,en;q=0.9,zh-CN;q=0.8,zh;q=0.7","5f4eb642ce413e0ecc88e227","67949641171f97c04e14fb34","679c30f237d1588852af609c","","587","","5","Intro Trial",""
"","","","","","html-keyboard-response","38","123089","0.0-5.0","76","1","2025-01-31 02:10:10","af8d355d56820e421d246a7037deb6e6","100.7.95.150","Mozilla/5.0 (Macintosh; Intel Mac OS X 10_15_7) AppleWebKit/537.36 (KHTML, like Gecko) Chrome/132.0.0.0 Safari/537.36","Macintosh","Chrome","132.0.0.0","OS X","10_15_7","https://app.prolific.com/","en-US,en;q=0.9,zh-CN;q=0.8,zh;q=0.7","5f4eb642ce413e0ecc88e227","67949641171f97c04e14fb34","679c30f237d1588852af609c","","4221","[""You sorted correctly by using the balance 16 times. <br><br> <img src='G_5.jpg' height='90'><img src='G_2.jpg' height='90'><img src='G_3.jpg' height='90'><img src='G_1.jpg' height='90'><img src='G_4.jpg' height='90'><br><br> Your final order is 1,2,3,4,5<br><br><br>Omgne Sort in this game will allow you to sort correctly by using the balance 8 times. Press Enter to learn it!""]","enter","",""
"","","","","","html-keyboard-response","39","123935","0.0-6.0","76","1","2025-01-31 02:10:10","af8d355d56820e421d246a7037deb6e6","100.7.95.150","Mozilla/5.0 (Macintosh; Intel Mac OS X 10_15_7) AppleWebKit/537.36 (KHTML, like Gecko) Chrome/132.0.0.0 Safari/537.36","Macintosh","Chrome","132.0.0.0","OS X","10_15_7","https://app.prolific.com/","en-US,en;q=0.9,zh-CN;q=0.8,zh;q=0.7","5f4eb642ce413e0ecc88e227","67949641171f97c04e14fb34","679c30f237d1588852af609c","","844","<p>Welcome to the learning phase! <br><br> You will learn by six examples. The following learning trials will not be used to calculate your performance. <br><br> Press Enter to continue.<p/>","enter","",""
"","","","","","html-keyboard-response","40","124699","0.0-7.0","76","1","2025-01-31 02:10:10","af8d355d56820e421d246a7037deb6e6","100.7.95.150","Mozilla/5.0 (Macintosh; Intel Mac OS X 10_15_7) AppleWebKit/537.36 (KHTML, like Gecko) Chrome/132.0.0.0 Safari/537.36","Macintosh","Chrome","132.0.0.0","OS X","10_15_7","https://app.prolific.com/","en-US,en;q=0.9,zh-CN;q=0.8,zh;q=0.7","5f4eb642ce413e0ecc88e227","67949641171f97c04e14fb34","679c30f237d1588852af609c","","762","[""Example 1<br><br>You will watch Omnge Sort in action. Try to identify any patterns in the comparisons made by this method. <br><br>Press Enter to continue.""]","enter","",""
"","","","","","html-keyboard-response","41","125203","0.0-8.0","76","1","2025-01-31 02:10:10","af8d355d56820e421d246a7037deb6e6","100.7.95.150","Mozilla/5.0 (Macintosh; Intel Mac OS X 10_15_7) AppleWebKit/537.36 (KHTML, like Gecko) Chrome/132.0.0.0 Safari/537.36","Macintosh","Chrome","132.0.0.0","OS X","10_15_7","https://app.prolific.com/","en-US,en;q=0.9,zh-CN;q=0.8,zh;q=0.7","5f4eb642ce413e0ecc88e227","67949641171f97c04e14fb34","679c30f237d1588852af609c","","null","<img id='selected' src='G_5.jpg' height='90'> <img src='G_3.jpg' height='90'> <img src='G_9.jpg' height='90'> <img src='G_7.jpg' height='90'> <img src='G_1.jpg' height='90'>","null","Animation0",""
"","","","","","html-keyboard-response","42","125708","0.0-9.0","76","1","2025-01-31 02:10:10","af8d355d56820e421d246a7037deb6e6","100.7.95.150","Mozilla/5.0 (Macintosh; Intel Mac OS X 10_15_7) AppleWebKit/537.36 (KHTML, like Gecko) Chrome/132.0.0.0 Safari/537.36","Macintosh","Chrome","132.0.0.0","OS X","10_15_7","https://app.prolific.com/","en-US,en;q=0.9,zh-CN;q=0.8,zh;q=0.7","5f4eb642ce413e0ecc88e227","67949641171f97c04e14fb34","679c30f237d1588852af609c","","null","<img id='selected' src='G_5.jpg' height='90'> <img id='selected' src='G_3.jpg' height='90'> <img src='G_9.jpg' height='90'> <img src='G_7.jpg' height='90'> <img src='G_1.jpg' height='90'>","null","Animation0",""
"","","","","","html-keyboard-response","43","126213","0.0-10.0","76","1","2025-01-31 02:10:10","af8d355d56820e421d246a7037deb6e6","100.7.95.150","Mozilla/5.0 (Macintosh; Intel Mac OS X 10_15_7) AppleWebKit/537.36 (KHTML, like Gecko) Chrome/132.0.0.0 Safari/537.36","Macintosh","Chrome","132.0.0.0","OS X","10_15_7","https://app.prolific.com/","en-US,en;q=0.9,zh-CN;q=0.8,zh;q=0.7","5f4eb642ce413e0ecc88e227","67949641171f97c04e14fb34","679c30f237d1588852af609c","","null","<img id='swapped' src='G_3.jpg' height='90'> <img id='swapped' src='G_5.jpg' height='90'> <img src='G_9.jpg' height='90'> <img src='G_7.jpg' height='90'> <img src='G_1.jpg' height='90'>","null","Animation0",""
"","","","","","html-keyboard-response","44","126516","0.0-11.0","76","1","2025-01-31 02:10:10","af8d355d56820e421d246a7037deb6e6","100.7.95.150","Mozilla/5.0 (Macintosh; Intel Mac OS X 10_15_7) AppleWebKit/537.36 (KHTML, like Gecko) Chrome/132.0.0.0 Safari/537.36","Macintosh","Chrome","132.0.0.0","OS X","10_15_7","https://app.prolific.com/","en-US,en;q=0.9,zh-CN;q=0.8,zh;q=0.7","5f4eb642ce413e0ecc88e227","67949641171f97c04e14fb34","679c30f237d1588852af609c","","null","<img  src='G_3.jpg' height='90'> <img  src='G_5.jpg' height='90'> <img src='G_9.jpg' height='90'> <img src='G_7.jpg' height='90'> <img src='G_1.jpg' height='90'>","null","Animation0",""
"","","","","","html-keyboard-response","45","127021","0.0-12.0","76","1","2025-01-31 02:10:10","af8d355d56820e421d246a7037deb6e6","100.7.95.150","Mozilla/5.0 (Macintosh; Intel Mac OS X 10_15_7) AppleWebKit/537.36 (KHTML, like Gecko) Chrome/132.0.0.0 Safari/537.36","Macintosh","Chrome","132.0.0.0","OS X","10_15_7","https://app.prolific.com/","en-US,en;q=0.9,zh-CN;q=0.8,zh;q=0.7","5f4eb642ce413e0ecc88e227","67949641171f97c04e14fb34","679c30f237d1588852af609c","","null","<img  src='G_3.jpg' height='90'> <img id='selected'  src='G_5.jpg' height='90'> <img src='G_9.jpg' height='90'> <img src='G_7.jpg' height='90'> <img src='G_1.jpg' height='90'>","null","Animation0",""
"","","","","","html-keyboard-response","46","127525","0.0-13.0","76","1","2025-01-31 02:10:10","af8d355d56820e421d246a7037deb6e6","100.7.95.150","Mozilla/5.0 (Macintosh; Intel Mac OS X 10_15_7) AppleWebKit/537.36 (KHTML, like Gecko) Chrome/132.0.0.0 Safari/537.36","Macintosh","Chrome","132.0.0.0","OS X","10_15_7","https://app.prolific.com/","en-US,en;q=0.9,zh-CN;q=0.8,zh;q=0.7","5f4eb642ce413e0ecc88e227","67949641171f97c04e14fb34","679c30f237d1588852af609c","","null","<img  src='G_3.jpg' height='90'> <img id='selected'  src='G_5.jpg' height='90'> <img id='selected' src='G_9.jpg' height='90'> <img src='G_7.jpg' height='90'> <img src='G_1.jpg' height='90'>","null","Animation0",""
"","","","","","html-keyboard-response","47","128029","0.0-14.0","76","1","2025-01-31 02:10:10","af8d355d56820e421d246a7037deb6e6","100.7.95.150","Mozilla/5.0 (Macintosh; Intel Mac OS X 10_15_7) AppleWebKit/537.36 (KHTML, like Gecko) Chrome/132.0.0.0 Safari/537.36","Macintosh","Chrome","132.0.0.0","OS X","10_15_7","https://app.prolific.com/","en-US,en;q=0.9,zh-CN;q=0.8,zh;q=0.7","5f4eb642ce413e0ecc88e227","67949641171f97c04e14fb34","679c30f237d1588852af609c","","null","<img  src='G_3.jpg' height='90'> <img id='selected'  src='G_5.jpg' height='90'> <img id='selected' src='G_9.jpg' height='90'> <img src='G_7.jpg' height='90'> <img src='G_1.jpg' height='90'>","null","Animation0",""
"","","","","","html-keyboard-response","48","128331","0.0-15.0","76","1","2025-01-31 02:10:10","af8d355d56820e421d246a7037deb6e6","100.7.95.150","Mozilla/5.0 (Macintosh; Intel Mac OS X 10_15_7) AppleWebKit/537.36 (KHTML, like Gecko) Chrome/132.0.0.0 Safari/537.36","Macintosh","Chrome","132.0.0.0","OS X","10_15_7","https://app.prolific.com/","en-US,en;q=0.9,zh-CN;q=0.8,zh;q=0.7","5f4eb642ce413e0ecc88e227","67949641171f97c04e14fb34","679c30f237d1588852af609c","","null","<img  src='G_3.jpg' height='90'> <img   src='G_5.jpg' height='90'> <img  src='G_9.jpg' height='90'> <img src='G_7.jpg' height='90'> <img src='G_1.jpg' height='90'>","null","Animation0",""
"","","","","","html-keyboard-response","49","128833","0.0-16.0","76","1","2025-01-31 02:10:10","af8d355d56820e421d246a7037deb6e6","100.7.95.150","Mozilla/5.0 (Macintosh; Intel Mac OS X 10_15_7) AppleWebKit/537.36 (KHTML, like Gecko) Chrome/132.0.0.0 Safari/537.36","Macintosh","Chrome","132.0.0.0","OS X","10_15_7","https://app.prolific.com/","en-US,en;q=0.9,zh-CN;q=0.8,zh;q=0.7","5f4eb642ce413e0ecc88e227","67949641171f97c04e14fb34","679c30f237d1588852af609c","","null","<img  src='G_3.jpg' height='90'> <img   src='G_5.jpg' height='90'> <img id='selected'  src='G_9.jpg' height='90'> <img src='G_7.jpg' height='90'> <img src='G_1.jpg' height='90'>","null","Animation0",""
"","","","","","html-keyboard-response","50","129337","0.0-17.0","76","1","2025-01-31 02:10:10","af8d355d56820e421d246a7037deb6e6","100.7.95.150","Mozilla/5.0 (Macintosh; Intel Mac OS X 10_15_7) AppleWebKit/537.36 (KHTML, like Gecko) Chrome/132.0.0.0 Safari/537.36","Macintosh","Chrome","132.0.0.0","OS X","10_15_7","https://app.prolific.com/","en-US,en;q=0.9,zh-CN;q=0.8,zh;q=0.7","5f4eb642ce413e0ecc88e227","67949641171f97c04e14fb34","679c30f237d1588852af609c","","null","<img  src='G_3.jpg' height='90'> <img   src='G_5.jpg' height='90'> <img id='selected'  src='G_9.jpg' height='90'> <img id='selected' src='G_7.jpg' height='90'> <img src='G_1.jpg' height='90'>","null","Animation0",""
"","","","","","html-keyboard-response","51","129839","0.0-18.0","76","1","2025-01-31 02:10:10","af8d355d56820e421d246a7037deb6e6","100.7.95.150","Mozilla/5.0 (Macintosh; Intel Mac OS X 10_15_7) AppleWebKit/537.36 (KHTML, like Gecko) Chrome/132.0.0.0 Safari/537.36","Macintosh","Chrome","132.0.0.0","OS X","10_15_7","https://app.prolific.com/","en-US,en;q=0.9,zh-CN;q=0.8,zh;q=0.7","5f4eb642ce413e0ecc88e227","67949641171f97c04e14fb34","679c30f237d1588852af609c","","null","<img  src='G_3.jpg' height='90'> <img   src='G_5.jpg' height='90'> <img id='selected'  src='G_9.jpg' height='90'> <img id='selected' src='G_7.jpg' height='90'> <img src='G_1.jpg' height='90'>","null","Animation0",""
"","","","","","html-keyboard-response","52","130141","0.0-19.0","76","1","2025-01-31 02:10:10","af8d355d56820e421d246a7037deb6e6","100.7.95.150","Mozilla/5.0 (Macintosh; Intel Mac OS X 10_15_7) AppleWebKit/537.36 (KHTML, like Gecko) Chrome/132.0.0.0 Safari/537.36","Macintosh","Chrome","132.0.0.0","OS X","10_15_7","https://app.prolific.com/","en-US,en;q=0.9,zh-CN;q=0.8,zh;q=0.7","5f4eb642ce413e0ecc88e227","67949641171f97c04e14fb34","679c30f237d1588852af609c","","null","<img  src='G_3.jpg' height='90'> <img   src='G_5.jpg' height='90'> <img   src='G_9.jpg' height='90'> <img  src='G_7.jpg' height='90'> <img src='G_1.jpg' height='90'>","null","Animation0",""
"","","","","","html-keyboard-response","53","130644","0.0-20.0","76","1","2025-01-31 02:10:10","af8d355d56820e421d246a7037deb6e6","100.7.95.150","Mozilla/5.0 (Macintosh; Intel Mac OS X 10_15_7) AppleWebKit/537.36 (KHTML, like Gecko) Chrome/132.0.0.0 Safari/537.36","Macintosh","Chrome","132.0.0.0","OS X","10_15_7","https://app.prolific.com/","en-US,en;q=0.9,zh-CN;q=0.8,zh;q=0.7","5f4eb642ce413e0ecc88e227","67949641171f97c04e14fb34","679c30f237d1588852af609c","","null","<img  src='G_3.jpg' height='90'> <img   src='G_5.jpg' height='90'> <img   src='G_9.jpg' height='90'> <img id='selected'  src='G_7.jpg' height='90'> <img src='G_1.jpg' height='90'>","null","Animation0",""
"","","","","","html-keyboard-response","54","131148","0.0-21.0","76","1","2025-01-31 02:10:10","af8d355d56820e421d246a7037deb6e6","100.7.95.150","Mozilla/5.0 (Macintosh; Intel Mac OS X 10_15_7) AppleWebKit/537.36 (KHTML, like Gecko) Chrome/132.0.0.0 Safari/537.36","Macintosh","Chrome","132.0.0.0","OS X","10_15_7","https://app.prolific.com/","en-US,en;q=0.9,zh-CN;q=0.8,zh;q=0.7","5f4eb642ce413e0ecc88e227","67949641171f97c04e14fb34","679c30f237d1588852af609c","","null","<img  src='G_3.jpg' height='90'> <img   src='G_5.jpg' height='90'> <img   src='G_9.jpg' height='90'> <img id='selected'  src='G_7.jpg' height='90'> <img id='selected' src='G_1.jpg' height='90'>","null","Animation0",""
"","","","","","html-keyboard-response","55","131655","0.0-22.0","76","1","2025-01-31 02:10:10","af8d355d56820e421d246a7037deb6e6","100.7.95.150","Mozilla/5.0 (Macintosh; Intel Mac OS X 10_15_7) AppleWebKit/537.36 (KHTML, like Gecko) Chrome/132.0.0.0 Safari/537.36","Macintosh","Chrome","132.0.0.0","OS X","10_15_7","https://app.prolific.com/","en-US,en;q=0.9,zh-CN;q=0.8,zh;q=0.7","5f4eb642ce413e0ecc88e227","67949641171f97c04e14fb34","679c30f237d1588852af609c","","null","<img  src='G_3.jpg' height='90'> <img   src='G_5.jpg' height='90'> <img   src='G_9.jpg' height='90'> <img id='selected'  src='G_7.jpg' height='90'> <img id='selected' src='G_1.jpg' height='90'>","null","Animation0",""
"","","","","","html-keyboard-response","56","131959","0.0-23.0","76","1","2025-01-31 02:10:10","af8d355d56820e421d246a7037deb6e6","100.7.95.150","Mozilla/5.0 (Macintosh; Intel Mac OS X 10_15_7) AppleWebKit/537.36 (KHTML, like Gecko) Chrome/132.0.0.0 Safari/537.36","Macintosh","Chrome","132.0.0.0","OS X","10_15_7","https://app.prolific.com/","en-US,en;q=0.9,zh-CN;q=0.8,zh;q=0.7","5f4eb642ce413e0ecc88e227","67949641171f97c04e14fb34","679c30f237d1588852af609c","","null","<img  src='G_3.jpg' height='90'> <img   src='G_5.jpg' height='90'> <img   src='G_9.jpg' height='90'> <img   src='G_7.jpg' height='90'> <img  src='G_1.jpg' height='90'>","null","Animation0",""
"","","","","","html-keyboard-response","57","134401","0.0-24.0","76","1","2025-01-31 02:10:10","af8d355d56820e421d246a7037deb6e6","100.7.95.150","Mozilla/5.0 (Macintosh; Intel Mac OS X 10_15_7) AppleWebKit/537.36 (KHTML, like Gecko) Chrome/132.0.0.0 Safari/537.36","Macintosh","Chrome","132.0.0.0","OS X","10_15_7","https://app.prolific.com/","en-US,en;q=0.9,zh-CN;q=0.8,zh;q=0.7","5f4eb642ce413e0ecc88e227","67949641171f97c04e14fb34","679c30f237d1588852af609c","","2437","[""Did you notice any patterns? <br><br>Press Enter to watch that example again and follow the steps of Omgne Sort.""]","enter","",""
"","","","","","html-button-response","58","134805","0.0-25.0","76","1","2025-01-31 02:10:10","af8d355d56820e421d246a7037deb6e6","100.7.95.150","Mozilla/5.0 (Macintosh; Intel Mac OS X 10_15_7) AppleWebKit/537.36 (KHTML, like Gecko) Chrome/132.0.0.0 Safari/537.36","Macintosh","Chrome","132.0.0.0","OS X","10_15_7","https://app.prolific.com/","en-US,en;q=0.9,zh-CN;q=0.8,zh;q=0.7","5f4eb642ce413e0ecc88e227","67949641171f97c04e14fb34","679c30f237d1588852af609c","","null","<img id='selected' src='G_5.jpg' height='90'> <img src='G_3.jpg' height='90'> <img src='G_9.jpg' height='90'> <img src='G_7.jpg' height='90'> <img src='G_1.jpg' height='90'>","null","Learning example 0",""
"","","","","","html-button-response","59","135111","0.0-26.0","76","1","2025-01-31 02:10:10","af8d355d56820e421d246a7037deb6e6","100.7.95.150","Mozilla/5.0 (Macintosh; Intel Mac OS X 10_15_7) AppleWebKit/537.36 (KHTML, like Gecko) Chrome/132.0.0.0 Safari/537.36","Macintosh","Chrome","132.0.0.0","OS X","10_15_7","https://app.prolific.com/","en-US,en;q=0.9,zh-CN;q=0.8,zh;q=0.7","5f4eb642ce413e0ecc88e227","67949641171f97c04e14fb34","679c30f237d1588852af609c","","null","<img id='selected' src='G_5.jpg' height='90'> <img id='selected' src='G_3.jpg' height='90'> <img src='G_9.jpg' height='90'> <img src='G_7.jpg' height='90'> <img src='G_1.jpg' height='90'>","null","Learning example 0",""
"","","","","","html-button-response","60","135416","0.0-27.0","76","1","2025-01-31 02:10:10","af8d355d56820e421d246a7037deb6e6","100.7.95.150","Mozilla/5.0 (Macintosh; Intel Mac OS X 10_15_7) AppleWebKit/537.36 (KHTML, like Gecko) Chrome/132.0.0.0 Safari/537.36","Macintosh","Chrome","132.0.0.0","OS X","10_15_7","https://app.prolific.com/","en-US,en;q=0.9,zh-CN;q=0.8,zh;q=0.7","5f4eb642ce413e0ecc88e227","67949641171f97c04e14fb34","679c30f237d1588852af609c","","null","<img id='swapped' src='G_3.jpg' height='90'> <img id='swapped' src='G_5.jpg' height='90'> <img src='G_9.jpg' height='90'> <img src='G_7.jpg' height='90'> <img src='G_1.jpg' height='90'>","null","Learning example 0",""
"","","","","","html-button-response","61","144817","0.0-28.0-0.0-0.0","76","1","2025-01-31 02:10:10","af8d355d56820e421d246a7037deb6e6","100.7.95.150","Mozilla/5.0 (Macintosh; Intel Mac OS X 10_15_7) AppleWebKit/537.36 (KHTML, like Gecko) Chrome/132.0.0.0 Safari/537.36","Macintosh","Chrome","132.0.0.0","OS X","10_15_7","https://app.prolific.com/","en-US,en;q=0.9,zh-CN;q=0.8,zh;q=0.7","5f4eb642ce413e0ecc88e227","67949641171f97c04e14fb34","679c30f237d1588852af609c","","9392","<img id='swapped' src='G_3.jpg' height='90'> <img id='swapped' src='G_5.jpg' height='90'> <img src='G_9.jpg' height='90'> <img src='G_7.jpg' height='90'> <img src='G_1.jpg' height='90'>","1","Learning example 0",""
"","","","","","html-button-response","62","145337","0.0-28.1-0.1-0.1","76","1","2025-01-31 02:10:10","af8d355d56820e421d246a7037deb6e6","100.7.95.150","Mozilla/5.0 (Macintosh; Intel Mac OS X 10_15_7) AppleWebKit/537.36 (KHTML, like Gecko) Chrome/132.0.0.0 Safari/537.36","Macintosh","Chrome","132.0.0.0","OS X","10_15_7","https://app.prolific.com/","en-US,en;q=0.9,zh-CN;q=0.8,zh;q=0.7","5f4eb642ce413e0ecc88e227","67949641171f97c04e14fb34","679c30f237d1588852af609c","","515","<img id='swapped' src='G_3.jpg' height='90'> <img id='swapped' src='G_5.jpg' height='90'> <img src='G_9.jpg' height='90'> <img src='G_7.jpg' height='90'> <img src='G_1.jpg' height='90'>","0","Learning example 0",""
"","","","","","html-button-response","63","145543","0.0-29.0","76","1","2025-01-31 02:10:10","af8d355d56820e421d246a7037deb6e6","100.7.95.150","Mozilla/5.0 (Macintosh; Intel Mac OS X 10_15_7) AppleWebKit/537.36 (KHTML, like Gecko) Chrome/132.0.0.0 Safari/537.36","Macintosh","Chrome","132.0.0.0","OS X","10_15_7","https://app.prolific.com/","en-US,en;q=0.9,zh-CN;q=0.8,zh;q=0.7","5f4eb642ce413e0ecc88e227","67949641171f97c04e14fb34","679c30f237d1588852af609c","","null","<img  src='G_3.jpg' height='90'> <img  src='G_5.jpg' height='90'> <img src='G_9.jpg' height='90'> <img src='G_7.jpg' height='90'> <img src='G_1.jpg' height='90'>","null","Learning example 0",""
"","","","","","html-button-response","64","145949","0.0-30.0","76","1","2025-01-31 02:10:10","af8d355d56820e421d246a7037deb6e6","100.7.95.150","Mozilla/5.0 (Macintosh; Intel Mac OS X 10_15_7) AppleWebKit/537.36 (KHTML, like Gecko) Chrome/132.0.0.0 Safari/537.36","Macintosh","Chrome","132.0.0.0","OS X","10_15_7","https://app.prolific.com/","en-US,en;q=0.9,zh-CN;q=0.8,zh;q=0.7","5f4eb642ce413e0ecc88e227","67949641171f97c04e14fb34","679c30f237d1588852af609c","","null","<img  src='G_3.jpg' height='90'> <img id='selected'  src='G_5.jpg' height='90'> <img src='G_9.jpg' height='90'> <img src='G_7.jpg' height='90'> <img src='G_1.jpg' height='90'>","null","Learning example 0",""
"","","","","","html-button-response","65","146254","0.0-31.0","76","1","2025-01-31 02:10:10","af8d355d56820e421d246a7037deb6e6","100.7.95.150","Mozilla/5.0 (Macintosh; Intel Mac OS X 10_15_7) AppleWebKit/537.36 (KHTML, like Gecko) Chrome/132.0.0.0 Safari/537.36","Macintosh","Chrome","132.0.0.0","OS X","10_15_7","https://app.prolific.com/","en-US,en;q=0.9,zh-CN;q=0.8,zh;q=0.7","5f4eb642ce413e0ecc88e227","67949641171f97c04e14fb34","679c30f237d1588852af609c","","null","<img  src='G_3.jpg' height='90'> <img id='selected'  src='G_5.jpg' height='90'> <img id='selected' src='G_9.jpg' height='90'> <img src='G_7.jpg' height='90'> <img src='G_1.jpg' height='90'>","null","Learning example 0",""
"","","","","","html-button-response","66","146560","0.0-32.0","76","1","2025-01-31 02:10:10","af8d355d56820e421d246a7037deb6e6","100.7.95.150","Mozilla/5.0 (Macintosh; Intel Mac OS X 10_15_7) AppleWebKit/537.36 (KHTML, like Gecko) Chrome/132.0.0.0 Safari/537.36","Macintosh","Chrome","132.0.0.0","OS X","10_15_7","https://app.prolific.com/","en-US,en;q=0.9,zh-CN;q=0.8,zh;q=0.7","5f4eb642ce413e0ecc88e227","67949641171f97c04e14fb34","679c30f237d1588852af609c","","null","<img  src='G_3.jpg' height='90'> <img id='selected'  src='G_5.jpg' height='90'> <img id='selected' src='G_9.jpg' height='90'> <img src='G_7.jpg' height='90'> <img src='G_1.jpg' height='90'>","null","Learning example 0",""
"","","","","","html-button-response","67","147602","0.0-33.0-0.0-0.0","76","1","2025-01-31 02:10:10","af8d355d56820e421d246a7037deb6e6","100.7.95.150","Mozilla/5.0 (Macintosh; Intel Mac OS X 10_15_7) AppleWebKit/537.36 (KHTML, like Gecko) Chrome/132.0.0.0 Safari/537.36","Macintosh","Chrome","132.0.0.0","OS X","10_15_7","https://app.prolific.com/","en-US,en;q=0.9,zh-CN;q=0.8,zh;q=0.7","5f4eb642ce413e0ecc88e227","67949641171f97c04e14fb34","679c30f237d1588852af609c","","1037","<img  src='G_3.jpg' height='90'> <img id='selected'  src='G_5.jpg' height='90'> <img id='selected' src='G_9.jpg' height='90'> <img src='G_7.jpg' height='90'> <img src='G_1.jpg' height='90'>","2","Learning example 0",""
"","","","","","html-button-response","68","147991","0.0-33.1-0.1-0.1","76","1","2025-01-31 02:10:10","af8d355d56820e421d246a7037deb6e6","100.7.95.150","Mozilla/5.0 (Macintosh; Intel Mac OS X 10_15_7) AppleWebKit/537.36 (KHTML, like Gecko) Chrome/132.0.0.0 Safari/537.36","Macintosh","Chrome","132.0.0.0","OS X","10_15_7","https://app.prolific.com/","en-US,en;q=0.9,zh-CN;q=0.8,zh;q=0.7","5f4eb642ce413e0ecc88e227","67949641171f97c04e14fb34","679c30f237d1588852af609c","","385","<img  src='G_3.jpg' height='90'> <img id='selected'  src='G_5.jpg' height='90'> <img id='selected' src='G_9.jpg' height='90'> <img src='G_7.jpg' height='90'> <img src='G_1.jpg' height='90'>","1","Learning example 0",""
"","","","","","html-button-response","69","148195","0.0-34.0","76","1","2025-01-31 02:10:10","af8d355d56820e421d246a7037deb6e6","100.7.95.150","Mozilla/5.0 (Macintosh; Intel Mac OS X 10_15_7) AppleWebKit/537.36 (KHTML, like Gecko) Chrome/132.0.0.0 Safari/537.36","Macintosh","Chrome","132.0.0.0","OS X","10_15_7","https://app.prolific.com/","en-US,en;q=0.9,zh-CN;q=0.8,zh;q=0.7","5f4eb642ce413e0ecc88e227","67949641171f97c04e14fb34","679c30f237d1588852af609c","","null","<img  src='G_3.jpg' height='90'> <img   src='G_5.jpg' height='90'> <img  src='G_9.jpg' height='90'> <img src='G_7.jpg' height='90'> <img src='G_1.jpg' height='90'>","null","Learning example 0",""
"","","","","","html-button-response","70","148597","0.0-35.0","76","1","2025-01-31 02:10:10","af8d355d56820e421d246a7037deb6e6","100.7.95.150","Mozilla/5.0 (Macintosh; Intel Mac OS X 10_15_7) AppleWebKit/537.36 (KHTML, like Gecko) Chrome/132.0.0.0 Safari/537.36","Macintosh","Chrome","132.0.0.0","OS X","10_15_7","https://app.prolific.com/","en-US,en;q=0.9,zh-CN;q=0.8,zh;q=0.7","5f4eb642ce413e0ecc88e227","67949641171f97c04e14fb34","679c30f237d1588852af609c","","null","<img  src='G_3.jpg' height='90'> <img   src='G_5.jpg' height='90'> <img id='selected'  src='G_9.jpg' height='90'> <img src='G_7.jpg' height='90'> <img src='G_1.jpg' height='90'>","null","Learning example 0",""
"","","","","","html-button-response","71","148905","0.0-36.0","76","1","2025-01-31 02:10:10","af8d355d56820e421d246a7037deb6e6","100.7.95.150","Mozilla/5.0 (Macintosh; Intel Mac OS X 10_15_7) AppleWebKit/537.36 (KHTML, like Gecko) Chrome/132.0.0.0 Safari/537.36","Macintosh","Chrome","132.0.0.0","OS X","10_15_7","https://app.prolific.com/","en-US,en;q=0.9,zh-CN;q=0.8,zh;q=0.7","5f4eb642ce413e0ecc88e227","67949641171f97c04e14fb34","679c30f237d1588852af609c","","null","<img  src='G_3.jpg' height='90'> <img   src='G_5.jpg' height='90'> <img id='selected'  src='G_9.jpg' height='90'> <img id='selected' src='G_7.jpg' height='90'> <img src='G_1.jpg' height='90'>","null","Learning example 0",""
"","","","","","html-button-response","72","149211","0.0-37.0","76","1","2025-01-31 02:10:10","af8d355d56820e421d246a7037deb6e6","100.7.95.150","Mozilla/5.0 (Macintosh; Intel Mac OS X 10_15_7) AppleWebKit/537.36 (KHTML, like Gecko) Chrome/132.0.0.0 Safari/537.36","Macintosh","Chrome","132.0.0.0","OS X","10_15_7","https://app.prolific.com/","en-US,en;q=0.9,zh-CN;q=0.8,zh;q=0.7","5f4eb642ce413e0ecc88e227","67949641171f97c04e14fb34","679c30f237d1588852af609c","","null","<img  src='G_3.jpg' height='90'> <img   src='G_5.jpg' height='90'> <img id='selected'  src='G_9.jpg' height='90'> <img id='selected' src='G_7.jpg' height='90'> <img src='G_1.jpg' height='90'>","null","Learning example 0",""
"","","","","","html-button-response","73","150196","0.0-38.0-0.0-0.0","76","1","2025-01-31 02:10:10","af8d355d56820e421d246a7037deb6e6","100.7.95.150","Mozilla/5.0 (Macintosh; Intel Mac OS X 10_15_7) AppleWebKit/537.36 (KHTML, like Gecko) Chrome/132.0.0.0 Safari/537.36","Macintosh","Chrome","132.0.0.0","OS X","10_15_7","https://app.prolific.com/","en-US,en;q=0.9,zh-CN;q=0.8,zh;q=0.7","5f4eb642ce413e0ecc88e227","67949641171f97c04e14fb34","679c30f237d1588852af609c","","982","<img  src='G_3.jpg' height='90'> <img   src='G_5.jpg' height='90'> <img id='selected'  src='G_9.jpg' height='90'> <img id='selected' src='G_7.jpg' height='90'> <img src='G_1.jpg' height='90'>","2","Learning example 0",""
"","","","","","html-button-response","74","150603","0.0-38.1-0.1-0.1","76","1","2025-01-31 02:10:10","af8d355d56820e421d246a7037deb6e6","100.7.95.150","Mozilla/5.0 (Macintosh; Intel Mac OS X 10_15_7) AppleWebKit/537.36 (KHTML, like Gecko) Chrome/132.0.0.0 Safari/537.36","Macintosh","Chrome","132.0.0.0","OS X","10_15_7","https://app.prolific.com/","en-US,en;q=0.9,zh-CN;q=0.8,zh;q=0.7","5f4eb642ce413e0ecc88e227","67949641171f97c04e14fb34","679c30f237d1588852af609c","","404","<img  src='G_3.jpg' height='90'> <img   src='G_5.jpg' height='90'> <img id='selected'  src='G_9.jpg' height='90'> <img id='selected' src='G_7.jpg' height='90'> <img src='G_1.jpg' height='90'>","3","Learning example 0",""
"","","","","","html-button-response","75","150808","0.0-39.0","76","1","2025-01-31 02:10:10","af8d355d56820e421d246a7037deb6e6","100.7.95.150","Mozilla/5.0 (Macintosh; Intel Mac OS X 10_15_7) AppleWebKit/537.36 (KHTML, like Gecko) Chrome/132.0.0.0 Safari/537.36","Macintosh","Chrome","132.0.0.0","OS X","10_15_7","https://app.prolific.com/","en-US,en;q=0.9,zh-CN;q=0.8,zh;q=0.7","5f4eb642ce413e0ecc88e227","67949641171f97c04e14fb34","679c30f237d1588852af609c","","null","<img  src='G_3.jpg' height='90'> <img   src='G_5.jpg' height='90'> <img   src='G_9.jpg' height='90'> <img  src='G_7.jpg' height='90'> <img src='G_1.jpg' height='90'>","null","Learning example 0",""
"","","","","","html-button-response","76","151213","0.0-40.0","76","1","2025-01-31 02:10:10","af8d355d56820e421d246a7037deb6e6","100.7.95.150","Mozilla/5.0 (Macintosh; Intel Mac OS X 10_15_7) AppleWebKit/537.36 (KHTML, like Gecko) Chrome/132.0.0.0 Safari/537.36","Macintosh","Chrome","132.0.0.0","OS X","10_15_7","https://app.prolific.com/","en-US,en;q=0.9,zh-CN;q=0.8,zh;q=0.7","5f4eb642ce413e0ecc88e227","67949641171f97c04e14fb34","679c30f237d1588852af609c","","null","<img  src='G_3.jpg' height='90'> <img   src='G_5.jpg' height='90'> <img   src='G_9.jpg' height='90'> <img id='selected'  src='G_7.jpg' height='90'> <img src='G_1.jpg' height='90'>","null","Learning example 0",""
"","","","","","html-button-response","77","151520","0.0-41.0","76","1","2025-01-31 02:10:10","af8d355d56820e421d246a7037deb6e6","100.7.95.150","Mozilla/5.0 (Macintosh; Intel Mac OS X 10_15_7) AppleWebKit/537.36 (KHTML, like Gecko) Chrome/132.0.0.0 Safari/537.36","Macintosh","Chrome","132.0.0.0","OS X","10_15_7","https://app.prolific.com/","en-US,en;q=0.9,zh-CN;q=0.8,zh;q=0.7","5f4eb642ce413e0ecc88e227","67949641171f97c04e14fb34","679c30f237d1588852af609c","","null","<img  src='G_3.jpg' height='90'> <img   src='G_5.jpg' height='90'> <img   src='G_9.jpg' height='90'> <img id='selected'  src='G_7.jpg' height='90'> <img id='selected' src='G_1.jpg' height='90'>","null","Learning example 0",""
"","","","","","html-button-response","78","151830","0.0-42.0","76","1","2025-01-31 02:10:10","af8d355d56820e421d246a7037deb6e6","100.7.95.150","Mozilla/5.0 (Macintosh; Intel Mac OS X 10_15_7) AppleWebKit/537.36 (KHTML, like Gecko) Chrome/132.0.0.0 Safari/537.36","Macintosh","Chrome","132.0.0.0","OS X","10_15_7","https://app.prolific.com/","en-US,en;q=0.9,zh-CN;q=0.8,zh;q=0.7","5f4eb642ce413e0ecc88e227","67949641171f97c04e14fb34","679c30f237d1588852af609c","","null","<img  src='G_3.jpg' height='90'> <img   src='G_5.jpg' height='90'> <img   src='G_9.jpg' height='90'> <img id='selected'  src='G_7.jpg' height='90'> <img id='selected' src='G_1.jpg' height='90'>","null","Learning example 0",""
"","","","","","html-button-response","79","151982","0.0-43.0-0.0-0.0","76","1","2025-01-31 02:10:10","af8d355d56820e421d246a7037deb6e6","100.7.95.150","Mozilla/5.0 (Macintosh; Intel Mac OS X 10_15_7) AppleWebKit/537.36 (KHTML, like Gecko) Chrome/132.0.0.0 Safari/537.36","Macintosh","Chrome","132.0.0.0","OS X","10_15_7","https://app.prolific.com/","en-US,en;q=0.9,zh-CN;q=0.8,zh;q=0.7","5f4eb642ce413e0ecc88e227","67949641171f97c04e14fb34","679c30f237d1588852af609c","","147","<img  src='G_3.jpg' height='90'> <img   src='G_5.jpg' height='90'> <img   src='G_9.jpg' height='90'> <img id='selected'  src='G_7.jpg' height='90'> <img id='selected' src='G_1.jpg' height='90'>","4","Learning example 0",""
"","","","","","html-button-response","80","152402","0.0-43.1-0.1-0.1","76","1","2025-01-31 02:10:10","af8d355d56820e421d246a7037deb6e6","100.7.95.150","Mozilla/5.0 (Macintosh; Intel Mac OS X 10_15_7) AppleWebKit/537.36 (KHTML, like Gecko) Chrome/132.0.0.0 Safari/537.36","Macintosh","Chrome","132.0.0.0","OS X","10_15_7","https://app.prolific.com/","en-US,en;q=0.9,zh-CN;q=0.8,zh;q=0.7","5f4eb642ce413e0ecc88e227","67949641171f97c04e14fb34","679c30f237d1588852af609c","","415","<img  src='G_3.jpg' height='90'> <img   src='G_5.jpg' height='90'> <img   src='G_9.jpg' height='90'> <img id='selected'  src='G_7.jpg' height='90'> <img id='selected' src='G_1.jpg' height='90'>","3","Learning example 0",""
"","","","","","html-button-response","81","152608","0.0-44.0","76","1","2025-01-31 02:10:10","af8d355d56820e421d246a7037deb6e6","100.7.95.150","Mozilla/5.0 (Macintosh; Intel Mac OS X 10_15_7) AppleWebKit/537.36 (KHTML, like Gecko) Chrome/132.0.0.0 Safari/537.36","Macintosh","Chrome","132.0.0.0","OS X","10_15_7","https://app.prolific.com/","en-US,en;q=0.9,zh-CN;q=0.8,zh;q=0.7","5f4eb642ce413e0ecc88e227","67949641171f97c04e14fb34","679c30f237d1588852af609c","","null","<img  src='G_3.jpg' height='90'> <img   src='G_5.jpg' height='90'> <img   src='G_9.jpg' height='90'> <img   src='G_7.jpg' height='90'> <img  src='G_1.jpg' height='90'>","null","Learning example 0",""
"","","","","","html-keyboard-response","82","154666","0.0-45.0","76","1","2025-01-31 02:10:10","af8d355d56820e421d246a7037deb6e6","100.7.95.150","Mozilla/5.0 (Macintosh; Intel Mac OS X 10_15_7) AppleWebKit/537.36 (KHTML, like Gecko) Chrome/132.0.0.0 Safari/537.36","Macintosh","Chrome","132.0.0.0","OS X","10_15_7","https://app.prolific.com/","en-US,en;q=0.9,zh-CN;q=0.8,zh;q=0.7","5f4eb642ce413e0ecc88e227","67949641171f97c04e14fb34","679c30f237d1588852af609c","","2049","[""Final order was 1,2,3,4,5. The initial order was 2,1,3,4,5.<br>It took 1 swaps to sort it correctly with Omgne Sort. <br><br>Press Enter to continue.""]","enter","",""
"","","","","","html-keyboard-response","83","157612","0.0-46.0","76","1","2025-01-31 02:10:10","af8d355d56820e421d246a7037deb6e6","100.7.95.150","Mozilla/5.0 (Macintosh; Intel Mac OS X 10_15_7) AppleWebKit/537.36 (KHTML, like Gecko) Chrome/132.0.0.0 Safari/537.36","Macintosh","Chrome","132.0.0.0","OS X","10_15_7","https://app.prolific.com/","en-US,en;q=0.9,zh-CN;q=0.8,zh;q=0.7","5f4eb642ce413e0ecc88e227","67949641171f97c04e14fb34","679c30f237d1588852af609c","","2943","[""Example 2<br><br>You will watch Omnge Sort in action. Try to identify any patterns in the comparisons made by this method. <br><br>Press Enter to continue.""]","enter","",""
"","","","","","html-keyboard-response","84","158120","0.0-47.0","76","1","2025-01-31 02:10:10","af8d355d56820e421d246a7037deb6e6","100.7.95.150","Mozilla/5.0 (Macintosh; Intel Mac OS X 10_15_7) AppleWebKit/537.36 (KHTML, like Gecko) Chrome/132.0.0.0 Safari/537.36","Macintosh","Chrome","132.0.0.0","OS X","10_15_7","https://app.prolific.com/","en-US,en;q=0.9,zh-CN;q=0.8,zh;q=0.7","5f4eb642ce413e0ecc88e227","67949641171f97c04e14fb34","679c30f237d1588852af609c","","null","<img id='selected' src='G_2.jpg' height='90'> <img src='G_1.jpg' height='90'> <img src='G_5.jpg' height='90'> <img src='G_7.jpg' height='90'> <img src='G_3.jpg' height='90'> <img src='G_8.jpg' height='90'> <img src='G_6.jpg' height='90'> <img src='G_4.jpg' height='90'>","null","Animation1",""
"","","","","","html-keyboard-response","85","158623","0.0-48.0","76","1","2025-01-31 02:10:10","af8d355d56820e421d246a7037deb6e6","100.7.95.150","Mozilla/5.0 (Macintosh; Intel Mac OS X 10_15_7) AppleWebKit/537.36 (KHTML, like Gecko) Chrome/132.0.0.0 Safari/537.36","Macintosh","Chrome","132.0.0.0","OS X","10_15_7","https://app.prolific.com/","en-US,en;q=0.9,zh-CN;q=0.8,zh;q=0.7","5f4eb642ce413e0ecc88e227","67949641171f97c04e14fb34","679c30f237d1588852af609c","","null","<img id='selected' src='G_2.jpg' height='90'> <img id='selected' src='G_1.jpg' height='90'> <img src='G_5.jpg' height='90'> <img src='G_7.jpg' height='90'> <img src='G_3.jpg' height='90'> <img src='G_8.jpg' height='90'> <img src='G_6.jpg' height='90'> <img src='G_4.jpg' height='90'>","null","Animation1",""
"","","","","","html-keyboard-response","86","159129","0.0-49.0","76","1","2025-01-31 02:10:10","af8d355d56820e421d246a7037deb6e6","100.7.95.150","Mozilla/5.0 (Macintosh; Intel Mac OS X 10_15_7) AppleWebKit/537.36 (KHTML, like Gecko) Chrome/132.0.0.0 Safari/537.36","Macintosh","Chrome","132.0.0.0","OS X","10_15_7","https://app.prolific.com/","en-US,en;q=0.9,zh-CN;q=0.8,zh;q=0.7","5f4eb642ce413e0ecc88e227","67949641171f97c04e14fb34","679c30f237d1588852af609c","","null","<img id='selected' src='G_2.jpg' height='90'> <img id='selected' src='G_1.jpg' height='90'> <img src='G_5.jpg' height='90'> <img src='G_7.jpg' height='90'> <img src='G_3.jpg' height='90'> <img src='G_8.jpg' height='90'> <img src='G_6.jpg' height='90'> <img src='G_4.jpg' height='90'>","null","Animation1",""
"","","","","","html-keyboard-response","87","159435","0.0-50.0","76","1","2025-01-31 02:10:10","af8d355d56820e421d246a7037deb6e6","100.7.95.150","Mozilla/5.0 (Macintosh; Intel Mac OS X 10_15_7) AppleWebKit/537.36 (KHTML, like Gecko) Chrome/132.0.0.0 Safari/537.36","Macintosh","Chrome","132.0.0.0","OS X","10_15_7","https://app.prolific.com/","en-US,en;q=0.9,zh-CN;q=0.8,zh;q=0.7","5f4eb642ce413e0ecc88e227","67949641171f97c04e14fb34","679c30f237d1588852af609c","","null","<img  src='G_2.jpg' height='90'> <img  src='G_1.jpg' height='90'> <img src='G_5.jpg' height='90'> <img src='G_7.jpg' height='90'> <img src='G_3.jpg' height='90'> <img src='G_8.jpg' height='90'> <img src='G_6.jpg' height='90'> <img src='G_4.jpg' height='90'>","null","Animation1",""
"","","","","","html-keyboard-response","88","159942","0.0-51.0","76","1","2025-01-31 02:10:10","af8d355d56820e421d246a7037deb6e6","100.7.95.150","Mozilla/5.0 (Macintosh; Intel Mac OS X 10_15_7) AppleWebKit/537.36 (KHTML, like Gecko) Chrome/132.0.0.0 Safari/537.36","Macintosh","Chrome","132.0.0.0","OS X","10_15_7","https://app.prolific.com/","en-US,en;q=0.9,zh-CN;q=0.8,zh;q=0.7","5f4eb642ce413e0ecc88e227","67949641171f97c04e14fb34","679c30f237d1588852af609c","","null","<img  src='G_2.jpg' height='90'> <img id='selected'  src='G_1.jpg' height='90'> <img src='G_5.jpg' height='90'> <img src='G_7.jpg' height='90'> <img src='G_3.jpg' height='90'> <img src='G_8.jpg' height='90'> <img src='G_6.jpg' height='90'> <img src='G_4.jpg' height='90'>","null","Animation1",""
"","","","","","html-keyboard-response","89","160445","0.0-52.0","76","1","2025-01-31 02:10:10","af8d355d56820e421d246a7037deb6e6","100.7.95.150","Mozilla/5.0 (Macintosh; Intel Mac OS X 10_15_7) AppleWebKit/537.36 (KHTML, like Gecko) Chrome/132.0.0.0 Safari/537.36","Macintosh","Chrome","132.0.0.0","OS X","10_15_7","https://app.prolific.com/","en-US,en;q=0.9,zh-CN;q=0.8,zh;q=0.7","5f4eb642ce413e0ecc88e227","67949641171f97c04e14fb34","679c30f237d1588852af609c","","null","<img  src='G_2.jpg' height='90'> <img id='selected'  src='G_1.jpg' height='90'> <img id='selected' src='G_5.jpg' height='90'> <img src='G_7.jpg' height='90'> <img src='G_3.jpg' height='90'> <img src='G_8.jpg' height='90'> <img src='G_6.jpg' height='90'> <img src='G_4.jpg' height='90'>","null","Animation1",""
"","","","","","html-keyboard-response","90","160949","0.0-53.0","76","1","2025-01-31 02:10:10","af8d355d56820e421d246a7037deb6e6","100.7.95.150","Mozilla/5.0 (Macintosh; Intel Mac OS X 10_15_7) AppleWebKit/537.36 (KHTML, like Gecko) Chrome/132.0.0.0 Safari/537.36","Macintosh","Chrome","132.0.0.0","OS X","10_15_7","https://app.prolific.com/","en-US,en;q=0.9,zh-CN;q=0.8,zh;q=0.7","5f4eb642ce413e0ecc88e227","67949641171f97c04e14fb34","679c30f237d1588852af609c","","null","<img  src='G_2.jpg' height='90'> <img id='swapped' src='G_5.jpg' height='90'> <img id='swapped'  src='G_1.jpg' height='90'> <img src='G_7.jpg' height='90'> <img src='G_3.jpg' height='90'> <img src='G_8.jpg' height='90'> <img src='G_6.jpg' height='90'> <img src='G_4.jpg' height='90'>","null","Animation1",""
"","","","","","html-keyboard-response","91","161254","0.0-54.0","76","1","2025-01-31 02:10:10","af8d355d56820e421d246a7037deb6e6","100.7.95.150","Mozilla/5.0 (Macintosh; Intel Mac OS X 10_15_7) AppleWebKit/537.36 (KHTML, like Gecko) Chrome/132.0.0.0 Safari/537.36","Macintosh","Chrome","132.0.0.0","OS X","10_15_7","https://app.prolific.com/","en-US,en;q=0.9,zh-CN;q=0.8,zh;q=0.7","5f4eb642ce413e0ecc88e227","67949641171f97c04e14fb34","679c30f237d1588852af609c","","null","<img  src='G_2.jpg' height='90'> <img  src='G_5.jpg' height='90'> <img   src='G_1.jpg' height='90'> <img src='G_7.jpg' height='90'> <img src='G_3.jpg' height='90'> <img src='G_8.jpg' height='90'> <img src='G_6.jpg' height='90'> <img src='G_4.jpg' height='90'>","null","Animation1",""
"","","","","","html-keyboard-response","92","161757","0.0-55.0","76","1","2025-01-31 02:10:10","af8d355d56820e421d246a7037deb6e6","100.7.95.150","Mozilla/5.0 (Macintosh; Intel Mac OS X 10_15_7) AppleWebKit/537.36 (KHTML, like Gecko) Chrome/132.0.0.0 Safari/537.36","Macintosh","Chrome","132.0.0.0","OS X","10_15_7","https://app.prolific.com/","en-US,en;q=0.9,zh-CN;q=0.8,zh;q=0.7","5f4eb642ce413e0ecc88e227","67949641171f97c04e14fb34","679c30f237d1588852af609c","","null","<img id='selected'  src='G_2.jpg' height='90'> <img  src='G_5.jpg' height='90'> <img   src='G_1.jpg' height='90'> <img src='G_7.jpg' height='90'> <img src='G_3.jpg' height='90'> <img src='G_8.jpg' height='90'> <img src='G_6.jpg' height='90'> <img src='G_4.jpg' height='90'>","null","Animation1",""
"","","","","","html-keyboard-response","93","162260","0.0-56.0","76","1","2025-01-31 02:10:10","af8d355d56820e421d246a7037deb6e6","100.7.95.150","Mozilla/5.0 (Macintosh; Intel Mac OS X 10_15_7) AppleWebKit/537.36 (KHTML, like Gecko) Chrome/132.0.0.0 Safari/537.36","Macintosh","Chrome","132.0.0.0","OS X","10_15_7","https://app.prolific.com/","en-US,en;q=0.9,zh-CN;q=0.8,zh;q=0.7","5f4eb642ce413e0ecc88e227","67949641171f97c04e14fb34","679c30f237d1588852af609c","","null","<img id='selected'  src='G_2.jpg' height='90'> <img id='selected'  src='G_5.jpg' height='90'> <img   src='G_1.jpg' height='90'> <img src='G_7.jpg' height='90'> <img src='G_3.jpg' height='90'> <img src='G_8.jpg' height='90'> <img src='G_6.jpg' height='90'> <img src='G_4.jpg' height='90'>","null","Animation1",""
"","","","","","html-keyboard-response","94","162780","0.0-57.0","76","1","2025-01-31 02:10:10","af8d355d56820e421d246a7037deb6e6","100.7.95.150","Mozilla/5.0 (Macintosh; Intel Mac OS X 10_15_7) AppleWebKit/537.36 (KHTML, like Gecko) Chrome/132.0.0.0 Safari/537.36","Macintosh","Chrome","132.0.0.0","OS X","10_15_7","https://app.prolific.com/","en-US,en;q=0.9,zh-CN;q=0.8,zh;q=0.7","5f4eb642ce413e0ecc88e227","67949641171f97c04e14fb34","679c30f237d1588852af609c","","null","<img id='swapped'  src='G_5.jpg' height='90'> <img id='swapped'  src='G_2.jpg' height='90'> <img   src='G_1.jpg' height='90'> <img src='G_7.jpg' height='90'> <img src='G_3.jpg' height='90'> <img src='G_8.jpg' height='90'> <img src='G_6.jpg' height='90'> <img src='G_4.jpg' height='90'>","null","Animation1",""
"","","","","","html-keyboard-response","95","163088","0.0-58.0","76","1","2025-01-31 02:10:10","af8d355d56820e421d246a7037deb6e6","100.7.95.150","Mozilla/5.0 (Macintosh; Intel Mac OS X 10_15_7) AppleWebKit/537.36 (KHTML, like Gecko) Chrome/132.0.0.0 Safari/537.36","Macintosh","Chrome","132.0.0.0","OS X","10_15_7","https://app.prolific.com/","en-US,en;q=0.9,zh-CN;q=0.8,zh;q=0.7","5f4eb642ce413e0ecc88e227","67949641171f97c04e14fb34","679c30f237d1588852af609c","","null","<img   src='G_5.jpg' height='90'> <img   src='G_2.jpg' height='90'> <img   src='G_1.jpg' height='90'> <img src='G_7.jpg' height='90'> <img src='G_3.jpg' height='90'> <img src='G_8.jpg' height='90'> <img src='G_6.jpg' height='90'> <img src='G_4.jpg' height='90'>","null","Animation1",""
"","","","","","html-keyboard-response","96","163590","0.0-59.0","76","1","2025-01-31 02:10:10","af8d355d56820e421d246a7037deb6e6","100.7.95.150","Mozilla/5.0 (Macintosh; Intel Mac OS X 10_15_7) AppleWebKit/537.36 (KHTML, like Gecko) Chrome/132.0.0.0 Safari/537.36","Macintosh","Chrome","132.0.0.0","OS X","10_15_7","https://app.prolific.com/","en-US,en;q=0.9,zh-CN;q=0.8,zh;q=0.7","5f4eb642ce413e0ecc88e227","67949641171f97c04e14fb34","679c30f237d1588852af609c","","null","<img   src='G_5.jpg' height='90'> <img   src='G_2.jpg' height='90'> <img id='selected'   src='G_1.jpg' height='90'> <img src='G_7.jpg' height='90'> <img src='G_3.jpg' height='90'> <img src='G_8.jpg' height='90'> <img src='G_6.jpg' height='90'> <img src='G_4.jpg' height='90'>","null","Animation1",""
"","","","","","html-keyboard-response","97","164097","0.0-60.0","76","1","2025-01-31 02:10:10","af8d355d56820e421d246a7037deb6e6","100.7.95.150","Mozilla/5.0 (Macintosh; Intel Mac OS X 10_15_7) AppleWebKit/537.36 (KHTML, like Gecko) Chrome/132.0.0.0 Safari/537.36","Macintosh","Chrome","132.0.0.0","OS X","10_15_7","https://app.prolific.com/","en-US,en;q=0.9,zh-CN;q=0.8,zh;q=0.7","5f4eb642ce413e0ecc88e227","67949641171f97c04e14fb34","679c30f237d1588852af609c","","null","<img   src='G_5.jpg' height='90'> <img   src='G_2.jpg' height='90'> <img id='selected'   src='G_1.jpg' height='90'> <img id='selected' src='G_7.jpg' height='90'> <img src='G_3.jpg' height='90'> <img src='G_8.jpg' height='90'> <img src='G_6.jpg' height='90'> <img src='G_4.jpg' height='90'>","null","Animation1",""
"","","","","","html-keyboard-response","98","164605","0.0-61.0","76","1","2025-01-31 02:10:10","af8d355d56820e421d246a7037deb6e6","100.7.95.150","Mozilla/5.0 (Macintosh; Intel Mac OS X 10_15_7) AppleWebKit/537.36 (KHTML, like Gecko) Chrome/132.0.0.0 Safari/537.36","Macintosh","Chrome","132.0.0.0","OS X","10_15_7","https://app.prolific.com/","en-US,en;q=0.9,zh-CN;q=0.8,zh;q=0.7","5f4eb642ce413e0ecc88e227","67949641171f97c04e14fb34","679c30f237d1588852af609c","","null","<img   src='G_5.jpg' height='90'> <img   src='G_2.jpg' height='90'> <img id='swapped' src='G_7.jpg' height='90'> <img id='swapped'   src='G_1.jpg' height='90'> <img src='G_3.jpg' height='90'> <img src='G_8.jpg' height='90'> <img src='G_6.jpg' height='90'> <img src='G_4.jpg' height='90'>","null","Animation1",""
"","","","","","html-keyboard-response","99","164913","0.0-62.0","76","1","2025-01-31 02:10:10","af8d355d56820e421d246a7037deb6e6","100.7.95.150","Mozilla/5.0 (Macintosh; Intel Mac OS X 10_15_7) AppleWebKit/537.36 (KHTML, like Gecko) Chrome/132.0.0.0 Safari/537.36","Macintosh","Chrome","132.0.0.0","OS X","10_15_7","https://app.prolific.com/","en-US,en;q=0.9,zh-CN;q=0.8,zh;q=0.7","5f4eb642ce413e0ecc88e227","67949641171f97c04e14fb34","679c30f237d1588852af609c","","null","<img   src='G_5.jpg' height='90'> <img   src='G_2.jpg' height='90'> <img  src='G_7.jpg' height='90'> <img    src='G_1.jpg' height='90'> <img src='G_3.jpg' height='90'> <img src='G_8.jpg' height='90'> <img src='G_6.jpg' height='90'> <img src='G_4.jpg' height='90'>","null","Animation1",""
"","","","","","html-keyboard-response","100","165420","0.0-63.0","76","1","2025-01-31 02:10:10","af8d355d56820e421d246a7037deb6e6","100.7.95.150","Mozilla/5.0 (Macintosh; Intel Mac OS X 10_15_7) AppleWebKit/537.36 (KHTML, like Gecko) Chrome/132.0.0.0 Safari/537.36","Macintosh","Chrome","132.0.0.0","OS X","10_15_7","https://app.prolific.com/","en-US,en;q=0.9,zh-CN;q=0.8,zh;q=0.7","5f4eb642ce413e0ecc88e227","67949641171f97c04e14fb34","679c30f237d1588852af609c","","null","<img   src='G_5.jpg' height='90'> <img id='selected'   src='G_2.jpg' height='90'> <img  src='G_7.jpg' height='90'> <img    src='G_1.jpg' height='90'> <img src='G_3.jpg' height='90'> <img src='G_8.jpg' height='90'> <img src='G_6.jpg' height='90'> <img src='G_4.jpg' height='90'>","null","Animation1",""
"","","","","","html-keyboard-response","101","165929","0.0-64.0","76","1","2025-01-31 02:10:10","af8d355d56820e421d246a7037deb6e6","100.7.95.150","Mozilla/5.0 (Macintosh; Intel Mac OS X 10_15_7) AppleWebKit/537.36 (KHTML, like Gecko) Chrome/132.0.0.0 Safari/537.36","Macintosh","Chrome","132.0.0.0","OS X","10_15_7","https://app.prolific.com/","en-US,en;q=0.9,zh-CN;q=0.8,zh;q=0.7","5f4eb642ce413e0ecc88e227","67949641171f97c04e14fb34","679c30f237d1588852af609c","","null","<img   src='G_5.jpg' height='90'> <img id='selected'   src='G_2.jpg' height='90'> <img id='selected'  src='G_7.jpg' height='90'> <img    src='G_1.jpg' height='90'> <img src='G_3.jpg' height='90'> <img src='G_8.jpg' height='90'> <img src='G_6.jpg' height='90'> <img src='G_4.jpg' height='90'>","null","Animation1",""
"","","","","","html-keyboard-response","102","166437","0.0-65.0","76","1","2025-01-31 02:10:10","af8d355d56820e421d246a7037deb6e6","100.7.95.150","Mozilla/5.0 (Macintosh; Intel Mac OS X 10_15_7) AppleWebKit/537.36 (KHTML, like Gecko) Chrome/132.0.0.0 Safari/537.36","Macintosh","Chrome","132.0.0.0","OS X","10_15_7","https://app.prolific.com/","en-US,en;q=0.9,zh-CN;q=0.8,zh;q=0.7","5f4eb642ce413e0ecc88e227","67949641171f97c04e14fb34","679c30f237d1588852af609c","","null","<img   src='G_5.jpg' height='90'> <img id='swapped'  src='G_7.jpg' height='90'> <img id='swapped'   src='G_2.jpg' height='90'> <img    src='G_1.jpg' height='90'> <img src='G_3.jpg' height='90'> <img src='G_8.jpg' height='90'> <img src='G_6.jpg' height='90'> <img src='G_4.jpg' height='90'>","null","Animation1",""
"","","","","","html-keyboard-response","103","166747","0.0-66.0","76","1","2025-01-31 02:10:10","af8d355d56820e421d246a7037deb6e6","100.7.95.150","Mozilla/5.0 (Macintosh; Intel Mac OS X 10_15_7) AppleWebKit/537.36 (KHTML, like Gecko) Chrome/132.0.0.0 Safari/537.36","Macintosh","Chrome","132.0.0.0","OS X","10_15_7","https://app.prolific.com/","en-US,en;q=0.9,zh-CN;q=0.8,zh;q=0.7","5f4eb642ce413e0ecc88e227","67949641171f97c04e14fb34","679c30f237d1588852af609c","","null","<img   src='G_5.jpg' height='90'> <img   src='G_7.jpg' height='90'> <img    src='G_2.jpg' height='90'> <img    src='G_1.jpg' height='90'> <img src='G_3.jpg' height='90'> <img src='G_8.jpg' height='90'> <img src='G_6.jpg' height='90'> <img src='G_4.jpg' height='90'>","null","Animation1",""
"","","","","","html-keyboard-response","104","167256","0.0-67.0","76","1","2025-01-31 02:10:10","af8d355d56820e421d246a7037deb6e6","100.7.95.150","Mozilla/5.0 (Macintosh; Intel Mac OS X 10_15_7) AppleWebKit/537.36 (KHTML, like Gecko) Chrome/132.0.0.0 Safari/537.36","Macintosh","Chrome","132.0.0.0","OS X","10_15_7","https://app.prolific.com/","en-US,en;q=0.9,zh-CN;q=0.8,zh;q=0.7","5f4eb642ce413e0ecc88e227","67949641171f97c04e14fb34","679c30f237d1588852af609c","","null","<img id='selected'   src='G_5.jpg' height='90'> <img   src='G_7.jpg' height='90'> <img    src='G_2.jpg' height='90'> <img    src='G_1.jpg' height='90'> <img src='G_3.jpg' height='90'> <img src='G_8.jpg' height='90'> <img src='G_6.jpg' height='90'> <img src='G_4.jpg' height='90'>","null","Animation1",""
"","","","","","html-keyboard-response","105","167765","0.0-68.0","76","1","2025-01-31 02:10:10","af8d355d56820e421d246a7037deb6e6","100.7.95.150","Mozilla/5.0 (Macintosh; Intel Mac OS X 10_15_7) AppleWebKit/537.36 (KHTML, like Gecko) Chrome/132.0.0.0 Safari/537.36","Macintosh","Chrome","132.0.0.0","OS X","10_15_7","https://app.prolific.com/","en-US,en;q=0.9,zh-CN;q=0.8,zh;q=0.7","5f4eb642ce413e0ecc88e227","67949641171f97c04e14fb34","679c30f237d1588852af609c","","null","<img id='selected'   src='G_5.jpg' height='90'> <img id='selected'   src='G_7.jpg' height='90'> <img    src='G_2.jpg' height='90'> <img    src='G_1.jpg' height='90'> <img src='G_3.jpg' height='90'> <img src='G_8.jpg' height='90'> <img src='G_6.jpg' height='90'> <img src='G_4.jpg' height='90'>","null","Animation1",""
"","","","","","html-keyboard-response","106","168273","0.0-69.0","76","1","2025-01-31 02:10:10","af8d355d56820e421d246a7037deb6e6","100.7.95.150","Mozilla/5.0 (Macintosh; Intel Mac OS X 10_15_7) AppleWebKit/537.36 (KHTML, like Gecko) Chrome/132.0.0.0 Safari/537.36","Macintosh","Chrome","132.0.0.0","OS X","10_15_7","https://app.prolific.com/","en-US,en;q=0.9,zh-CN;q=0.8,zh;q=0.7","5f4eb642ce413e0ecc88e227","67949641171f97c04e14fb34","679c30f237d1588852af609c","","null","<img id='swapped'   src='G_7.jpg' height='90'> <img id='swapped'   src='G_5.jpg' height='90'> <img    src='G_2.jpg' height='90'> <img    src='G_1.jpg' height='90'> <img src='G_3.jpg' height='90'> <img src='G_8.jpg' height='90'> <img src='G_6.jpg' height='90'> <img src='G_4.jpg' height='90'>","null","Animation1",""
"","","","","","html-keyboard-response","107","168579","0.0-70.0","76","1","2025-01-31 02:10:10","af8d355d56820e421d246a7037deb6e6","100.7.95.150","Mozilla/5.0 (Macintosh; Intel Mac OS X 10_15_7) AppleWebKit/537.36 (KHTML, like Gecko) Chrome/132.0.0.0 Safari/537.36","Macintosh","Chrome","132.0.0.0","OS X","10_15_7","https://app.prolific.com/","en-US,en;q=0.9,zh-CN;q=0.8,zh;q=0.7","5f4eb642ce413e0ecc88e227","67949641171f97c04e14fb34","679c30f237d1588852af609c","","null","<img    src='G_7.jpg' height='90'> <img    src='G_5.jpg' height='90'> <img    src='G_2.jpg' height='90'> <img    src='G_1.jpg' height='90'> <img src='G_3.jpg' height='90'> <img src='G_8.jpg' height='90'> <img src='G_6.jpg' height='90'> <img src='G_4.jpg' height='90'>","null","Animation1",""
"","","","","","html-keyboard-response","108","169087","0.0-71.0","76","1","2025-01-31 02:10:10","af8d355d56820e421d246a7037deb6e6","100.7.95.150","Mozilla/5.0 (Macintosh; Intel Mac OS X 10_15_7) AppleWebKit/537.36 (KHTML, like Gecko) Chrome/132.0.0.0 Safari/537.36","Macintosh","Chrome","132.0.0.0","OS X","10_15_7","https://app.prolific.com/","en-US,en;q=0.9,zh-CN;q=0.8,zh;q=0.7","5f4eb642ce413e0ecc88e227","67949641171f97c04e14fb34","679c30f237d1588852af609c","","null","<img    src='G_7.jpg' height='90'> <img    src='G_5.jpg' height='90'> <img    src='G_2.jpg' height='90'> <img id='selected'    src='G_1.jpg' height='90'> <img src='G_3.jpg' height='90'> <img src='G_8.jpg' height='90'> <img src='G_6.jpg' height='90'> <img src='G_4.jpg' height='90'>","null","Animation1",""
"","","","","","html-keyboard-response","109","169596","0.0-72.0","76","1","2025-01-31 02:10:10","af8d355d56820e421d246a7037deb6e6","100.7.95.150","Mozilla/5.0 (Macintosh; Intel Mac OS X 10_15_7) AppleWebKit/537.36 (KHTML, like Gecko) Chrome/132.0.0.0 Safari/537.36","Macintosh","Chrome","132.0.0.0","OS X","10_15_7","https://app.prolific.com/","en-US,en;q=0.9,zh-CN;q=0.8,zh;q=0.7","5f4eb642ce413e0ecc88e227","67949641171f97c04e14fb34","679c30f237d1588852af609c","","null","<img    src='G_7.jpg' height='90'> <img    src='G_5.jpg' height='90'> <img    src='G_2.jpg' height='90'> <img id='selected'    src='G_1.jpg' height='90'> <img id='selected' src='G_3.jpg' height='90'> <img src='G_8.jpg' height='90'> <img src='G_6.jpg' height='90'> <img src='G_4.jpg' height='90'>","null","Animation1",""
"","","","","","html-keyboard-response","110","170104","0.0-73.0","76","1","2025-01-31 02:10:10","af8d355d56820e421d246a7037deb6e6","100.7.95.150","Mozilla/5.0 (Macintosh; Intel Mac OS X 10_15_7) AppleWebKit/537.36 (KHTML, like Gecko) Chrome/132.0.0.0 Safari/537.36","Macintosh","Chrome","132.0.0.0","OS X","10_15_7","https://app.prolific.com/","en-US,en;q=0.9,zh-CN;q=0.8,zh;q=0.7","5f4eb642ce413e0ecc88e227","67949641171f97c04e14fb34","679c30f237d1588852af609c","","null","<img    src='G_7.jpg' height='90'> <img    src='G_5.jpg' height='90'> <img    src='G_2.jpg' height='90'> <img id='swapped' src='G_3.jpg' height='90'> <img id='swapped'    src='G_1.jpg' height='90'> <img src='G_8.jpg' height='90'> <img src='G_6.jpg' height='90'> <img src='G_4.jpg' height='90'>","null","Animation1",""
"","","","","","html-keyboard-response","111","170414","0.0-74.0","76","1","2025-01-31 02:10:10","af8d355d56820e421d246a7037deb6e6","100.7.95.150","Mozilla/5.0 (Macintosh; Intel Mac OS X 10_15_7) AppleWebKit/537.36 (KHTML, like Gecko) Chrome/132.0.0.0 Safari/537.36","Macintosh","Chrome","132.0.0.0","OS X","10_15_7","https://app.prolific.com/","en-US,en;q=0.9,zh-CN;q=0.8,zh;q=0.7","5f4eb642ce413e0ecc88e227","67949641171f97c04e14fb34","679c30f237d1588852af609c","","null","<img    src='G_7.jpg' height='90'> <img    src='G_5.jpg' height='90'> <img    src='G_2.jpg' height='90'> <img  src='G_3.jpg' height='90'> <img     src='G_1.jpg' height='90'> <img src='G_8.jpg' height='90'> <img src='G_6.jpg' height='90'> <img src='G_4.jpg' height='90'>","null","Animation1",""
"","","","","","html-keyboard-response","112","170922","0.0-75.0","76","1","2025-01-31 02:10:10","af8d355d56820e421d246a7037deb6e6","100.7.95.150","Mozilla/5.0 (Macintosh; Intel Mac OS X 10_15_7) AppleWebKit/537.36 (KHTML, like Gecko) Chrome/132.0.0.0 Safari/537.36","Macintosh","Chrome","132.0.0.0","OS X","10_15_7","https://app.prolific.com/","en-US,en;q=0.9,zh-CN;q=0.8,zh;q=0.7","5f4eb642ce413e0ecc88e227","67949641171f97c04e14fb34","679c30f237d1588852af609c","","null","<img    src='G_7.jpg' height='90'> <img    src='G_5.jpg' height='90'> <img id='selected'    src='G_2.jpg' height='90'> <img  src='G_3.jpg' height='90'> <img     src='G_1.jpg' height='90'> <img src='G_8.jpg' height='90'> <img src='G_6.jpg' height='90'> <img src='G_4.jpg' height='90'>","null","Animation1",""
"","","","","","html-keyboard-response","113","171431","0.0-76.0","76","1","2025-01-31 02:10:10","af8d355d56820e421d246a7037deb6e6","100.7.95.150","Mozilla/5.0 (Macintosh; Intel Mac OS X 10_15_7) AppleWebKit/537.36 (KHTML, like Gecko) Chrome/132.0.0.0 Safari/537.36","Macintosh","Chrome","132.0.0.0","OS X","10_15_7","https://app.prolific.com/","en-US,en;q=0.9,zh-CN;q=0.8,zh;q=0.7","5f4eb642ce413e0ecc88e227","67949641171f97c04e14fb34","679c30f237d1588852af609c","","null","<img    src='G_7.jpg' height='90'> <img    src='G_5.jpg' height='90'> <img id='selected'    src='G_2.jpg' height='90'> <img id='selected'  src='G_3.jpg' height='90'> <img     src='G_1.jpg' height='90'> <img src='G_8.jpg' height='90'> <img src='G_6.jpg' height='90'> <img src='G_4.jpg' height='90'>","null","Animation1",""
"","","","","","html-keyboard-response","114","171939","0.0-77.0","76","1","2025-01-31 02:10:10","af8d355d56820e421d246a7037deb6e6","100.7.95.150","Mozilla/5.0 (Macintosh; Intel Mac OS X 10_15_7) AppleWebKit/537.36 (KHTML, like Gecko) Chrome/132.0.0.0 Safari/537.36","Macintosh","Chrome","132.0.0.0","OS X","10_15_7","https://app.prolific.com/","en-US,en;q=0.9,zh-CN;q=0.8,zh;q=0.7","5f4eb642ce413e0ecc88e227","67949641171f97c04e14fb34","679c30f237d1588852af609c","","null","<img    src='G_7.jpg' height='90'> <img    src='G_5.jpg' height='90'> <img id='swapped'  src='G_3.jpg' height='90'> <img id='swapped'    src='G_2.jpg' height='90'> <img     src='G_1.jpg' height='90'> <img src='G_8.jpg' height='90'> <img src='G_6.jpg' height='90'> <img src='G_4.jpg' height='90'>","null","Animation1",""
"","","","","","html-keyboard-response","115","172248","0.0-78.0","76","1","2025-01-31 02:10:10","af8d355d56820e421d246a7037deb6e6","100.7.95.150","Mozilla/5.0 (Macintosh; Intel Mac OS X 10_15_7) AppleWebKit/537.36 (KHTML, like Gecko) Chrome/132.0.0.0 Safari/537.36","Macintosh","Chrome","132.0.0.0","OS X","10_15_7","https://app.prolific.com/","en-US,en;q=0.9,zh-CN;q=0.8,zh;q=0.7","5f4eb642ce413e0ecc88e227","67949641171f97c04e14fb34","679c30f237d1588852af609c","","null","<img    src='G_7.jpg' height='90'> <img    src='G_5.jpg' height='90'> <img   src='G_3.jpg' height='90'> <img     src='G_2.jpg' height='90'> <img     src='G_1.jpg' height='90'> <img src='G_8.jpg' height='90'> <img src='G_6.jpg' height='90'> <img src='G_4.jpg' height='90'>","null","Animation1",""
"","","","","","html-keyboard-response","116","172757","0.0-79.0","76","1","2025-01-31 02:10:10","af8d355d56820e421d246a7037deb6e6","100.7.95.150","Mozilla/5.0 (Macintosh; Intel Mac OS X 10_15_7) AppleWebKit/537.36 (KHTML, like Gecko) Chrome/132.0.0.0 Safari/537.36","Macintosh","Chrome","132.0.0.0","OS X","10_15_7","https://app.prolific.com/","en-US,en;q=0.9,zh-CN;q=0.8,zh;q=0.7","5f4eb642ce413e0ecc88e227","67949641171f97c04e14fb34","679c30f237d1588852af609c","","null","<img    src='G_7.jpg' height='90'> <img id='selected'    src='G_5.jpg' height='90'> <img   src='G_3.jpg' height='90'> <img     src='G_2.jpg' height='90'> <img     src='G_1.jpg' height='90'> <img src='G_8.jpg' height='90'> <img src='G_6.jpg' height='90'> <img src='G_4.jpg' height='90'>","null","Animation1",""
"","","","","","html-keyboard-response","117","173267","0.0-80.0","76","1","2025-01-31 02:10:10","af8d355d56820e421d246a7037deb6e6","100.7.95.150","Mozilla/5.0 (Macintosh; Intel Mac OS X 10_15_7) AppleWebKit/537.36 (KHTML, like Gecko) Chrome/132.0.0.0 Safari/537.36","Macintosh","Chrome","132.0.0.0","OS X","10_15_7","https://app.prolific.com/","en-US,en;q=0.9,zh-CN;q=0.8,zh;q=0.7","5f4eb642ce413e0ecc88e227","67949641171f97c04e14fb34","679c30f237d1588852af609c","","null","<img    src='G_7.jpg' height='90'> <img id='selected'    src='G_5.jpg' height='90'> <img id='selected'   src='G_3.jpg' height='90'> <img     src='G_2.jpg' height='90'> <img     src='G_1.jpg' height='90'> <img src='G_8.jpg' height='90'> <img src='G_6.jpg' height='90'> <img src='G_4.jpg' height='90'>","null","Animation1",""
"","","","","","html-keyboard-response","118","173772","0.0-81.0","76","1","2025-01-31 02:10:10","af8d355d56820e421d246a7037deb6e6","100.7.95.150","Mozilla/5.0 (Macintosh; Intel Mac OS X 10_15_7) AppleWebKit/537.36 (KHTML, like Gecko) Chrome/132.0.0.0 Safari/537.36","Macintosh","Chrome","132.0.0.0","OS X","10_15_7","https://app.prolific.com/","en-US,en;q=0.9,zh-CN;q=0.8,zh;q=0.7","5f4eb642ce413e0ecc88e227","67949641171f97c04e14fb34","679c30f237d1588852af609c","","null","<img    src='G_7.jpg' height='90'> <img id='swapped'   src='G_3.jpg' height='90'> <img id='swapped'    src='G_5.jpg' height='90'> <img     src='G_2.jpg' height='90'> <img     src='G_1.jpg' height='90'> <img src='G_8.jpg' height='90'> <img src='G_6.jpg' height='90'> <img src='G_4.jpg' height='90'>","null","Animation1",""
"","","","","","html-keyboard-response","119","174081","0.0-82.0","76","1","2025-01-31 02:10:10","af8d355d56820e421d246a7037deb6e6","100.7.95.150","Mozilla/5.0 (Macintosh; Intel Mac OS X 10_15_7) AppleWebKit/537.36 (KHTML, like Gecko) Chrome/132.0.0.0 Safari/537.36","Macintosh","Chrome","132.0.0.0","OS X","10_15_7","https://app.prolific.com/","en-US,en;q=0.9,zh-CN;q=0.8,zh;q=0.7","5f4eb642ce413e0ecc88e227","67949641171f97c04e14fb34","679c30f237d1588852af609c","","null","<img    src='G_7.jpg' height='90'> <img    src='G_3.jpg' height='90'> <img     src='G_5.jpg' height='90'> <img     src='G_2.jpg' height='90'> <img     src='G_1.jpg' height='90'> <img src='G_8.jpg' height='90'> <img src='G_6.jpg' height='90'> <img src='G_4.jpg' height='90'>","null","Animation1",""
"","","","","","html-keyboard-response","120","174586","0.0-83.0","76","1","2025-01-31 02:10:10","af8d355d56820e421d246a7037deb6e6","100.7.95.150","Mozilla/5.0 (Macintosh; Intel Mac OS X 10_15_7) AppleWebKit/537.36 (KHTML, like Gecko) Chrome/132.0.0.0 Safari/537.36","Macintosh","Chrome","132.0.0.0","OS X","10_15_7","https://app.prolific.com/","en-US,en;q=0.9,zh-CN;q=0.8,zh;q=0.7","5f4eb642ce413e0ecc88e227","67949641171f97c04e14fb34","679c30f237d1588852af609c","","null","<img id='selected'    src='G_7.jpg' height='90'> <img    src='G_3.jpg' height='90'> <img     src='G_5.jpg' height='90'> <img     src='G_2.jpg' height='90'> <img     src='G_1.jpg' height='90'> <img src='G_8.jpg' height='90'> <img src='G_6.jpg' height='90'> <img src='G_4.jpg' height='90'>","null","Animation1",""
"","","","","","html-keyboard-response","121","175094","0.0-84.0","76","1","2025-01-31 02:10:10","af8d355d56820e421d246a7037deb6e6","100.7.95.150","Mozilla/5.0 (Macintosh; Intel Mac OS X 10_15_7) AppleWebKit/537.36 (KHTML, like Gecko) Chrome/132.0.0.0 Safari/537.36","Macintosh","Chrome","132.0.0.0","OS X","10_15_7","https://app.prolific.com/","en-US,en;q=0.9,zh-CN;q=0.8,zh;q=0.7","5f4eb642ce413e0ecc88e227","67949641171f97c04e14fb34","679c30f237d1588852af609c","","null","<img id='selected'    src='G_7.jpg' height='90'> <img id='selected'    src='G_3.jpg' height='90'> <img     src='G_5.jpg' height='90'> <img     src='G_2.jpg' height='90'> <img     src='G_1.jpg' height='90'> <img src='G_8.jpg' height='90'> <img src='G_6.jpg' height='90'> <img src='G_4.jpg' height='90'>","null","Animation1",""
"","","","","","html-keyboard-response","122","175604","0.0-85.0","76","1","2025-01-31 02:10:10","af8d355d56820e421d246a7037deb6e6","100.7.95.150","Mozilla/5.0 (Macintosh; Intel Mac OS X 10_15_7) AppleWebKit/537.36 (KHTML, like Gecko) Chrome/132.0.0.0 Safari/537.36","Macintosh","Chrome","132.0.0.0","OS X","10_15_7","https://app.prolific.com/","en-US,en;q=0.9,zh-CN;q=0.8,zh;q=0.7","5f4eb642ce413e0ecc88e227","67949641171f97c04e14fb34","679c30f237d1588852af609c","","null","<img id='selected'    src='G_7.jpg' height='90'> <img id='selected'    src='G_3.jpg' height='90'> <img     src='G_5.jpg' height='90'> <img     src='G_2.jpg' height='90'> <img     src='G_1.jpg' height='90'> <img src='G_8.jpg' height='90'> <img src='G_6.jpg' height='90'> <img src='G_4.jpg' height='90'>","null","Animation1",""
"","","","","","html-keyboard-response","123","175912","0.0-86.0","76","1","2025-01-31 02:10:10","af8d355d56820e421d246a7037deb6e6","100.7.95.150","Mozilla/5.0 (Macintosh; Intel Mac OS X 10_15_7) AppleWebKit/537.36 (KHTML, like Gecko) Chrome/132.0.0.0 Safari/537.36","Macintosh","Chrome","132.0.0.0","OS X","10_15_7","https://app.prolific.com/","en-US,en;q=0.9,zh-CN;q=0.8,zh;q=0.7","5f4eb642ce413e0ecc88e227","67949641171f97c04e14fb34","679c30f237d1588852af609c","","null","<img     src='G_7.jpg' height='90'> <img     src='G_3.jpg' height='90'> <img     src='G_5.jpg' height='90'> <img     src='G_2.jpg' height='90'> <img     src='G_1.jpg' height='90'> <img src='G_8.jpg' height='90'> <img src='G_6.jpg' height='90'> <img src='G_4.jpg' height='90'>","null","Animation1",""
"","","","","","html-keyboard-response","124","176422","0.0-87.0","76","1","2025-01-31 02:10:10","af8d355d56820e421d246a7037deb6e6","100.7.95.150","Mozilla/5.0 (Macintosh; Intel Mac OS X 10_15_7) AppleWebKit/537.36 (KHTML, like Gecko) Chrome/132.0.0.0 Safari/537.36","Macintosh","Chrome","132.0.0.0","OS X","10_15_7","https://app.prolific.com/","en-US,en;q=0.9,zh-CN;q=0.8,zh;q=0.7","5f4eb642ce413e0ecc88e227","67949641171f97c04e14fb34","679c30f237d1588852af609c","","null","<img     src='G_7.jpg' height='90'> <img     src='G_3.jpg' height='90'> <img     src='G_5.jpg' height='90'> <img     src='G_2.jpg' height='90'> <img id='selected'     src='G_1.jpg' height='90'> <img src='G_8.jpg' height='90'> <img src='G_6.jpg' height='90'> <img src='G_4.jpg' height='90'>","null","Animation1",""
"","","","","","html-keyboard-response","125","176929","0.0-88.0","76","1","2025-01-31 02:10:10","af8d355d56820e421d246a7037deb6e6","100.7.95.150","Mozilla/5.0 (Macintosh; Intel Mac OS X 10_15_7) AppleWebKit/537.36 (KHTML, like Gecko) Chrome/132.0.0.0 Safari/537.36","Macintosh","Chrome","132.0.0.0","OS X","10_15_7","https://app.prolific.com/","en-US,en;q=0.9,zh-CN;q=0.8,zh;q=0.7","5f4eb642ce413e0ecc88e227","67949641171f97c04e14fb34","679c30f237d1588852af609c","","null","<img     src='G_7.jpg' height='90'> <img     src='G_3.jpg' height='90'> <img     src='G_5.jpg' height='90'> <img     src='G_2.jpg' height='90'> <img id='selected'     src='G_1.jpg' height='90'> <img id='selected' src='G_8.jpg' height='90'> <img src='G_6.jpg' height='90'> <img src='G_4.jpg' height='90'>","null","Animation1",""
"","","","","","html-keyboard-response","126","177439","0.0-89.0","76","1","2025-01-31 02:10:10","af8d355d56820e421d246a7037deb6e6","100.7.95.150","Mozilla/5.0 (Macintosh; Intel Mac OS X 10_15_7) AppleWebKit/537.36 (KHTML, like Gecko) Chrome/132.0.0.0 Safari/537.36","Macintosh","Chrome","132.0.0.0","OS X","10_15_7","https://app.prolific.com/","en-US,en;q=0.9,zh-CN;q=0.8,zh;q=0.7","5f4eb642ce413e0ecc88e227","67949641171f97c04e14fb34","679c30f237d1588852af609c","","null","<img     src='G_7.jpg' height='90'> <img     src='G_3.jpg' height='90'> <img     src='G_5.jpg' height='90'> <img     src='G_2.jpg' height='90'> <img id='swapped' src='G_8.jpg' height='90'> <img id='swapped'     src='G_1.jpg' height='90'> <img src='G_6.jpg' height='90'> <img src='G_4.jpg' height='90'>","null","Animation1",""
"","","","","","html-keyboard-response","127","177748","0.0-90.0","76","1","2025-01-31 02:10:10","af8d355d56820e421d246a7037deb6e6","100.7.95.150","Mozilla/5.0 (Macintosh; Intel Mac OS X 10_15_7) AppleWebKit/537.36 (KHTML, like Gecko) Chrome/132.0.0.0 Safari/537.36","Macintosh","Chrome","132.0.0.0","OS X","10_15_7","https://app.prolific.com/","en-US,en;q=0.9,zh-CN;q=0.8,zh;q=0.7","5f4eb642ce413e0ecc88e227","67949641171f97c04e14fb34","679c30f237d1588852af609c","","null","<img     src='G_7.jpg' height='90'> <img     src='G_3.jpg' height='90'> <img     src='G_5.jpg' height='90'> <img     src='G_2.jpg' height='90'> <img  src='G_8.jpg' height='90'> <img      src='G_1.jpg' height='90'> <img src='G_6.jpg' height='90'> <img src='G_4.jpg' height='90'>","null","Animation1",""
"","","","","","html-keyboard-response","128","178259","0.0-91.0","76","1","2025-01-31 02:10:10","af8d355d56820e421d246a7037deb6e6","100.7.95.150","Mozilla/5.0 (Macintosh; Intel Mac OS X 10_15_7) AppleWebKit/537.36 (KHTML, like Gecko) Chrome/132.0.0.0 Safari/537.36","Macintosh","Chrome","132.0.0.0","OS X","10_15_7","https://app.prolific.com/","en-US,en;q=0.9,zh-CN;q=0.8,zh;q=0.7","5f4eb642ce413e0ecc88e227","67949641171f97c04e14fb34","679c30f237d1588852af609c","","null","<img     src='G_7.jpg' height='90'> <img     src='G_3.jpg' height='90'> <img     src='G_5.jpg' height='90'> <img id='selected'     src='G_2.jpg' height='90'> <img  src='G_8.jpg' height='90'> <img      src='G_1.jpg' height='90'> <img src='G_6.jpg' height='90'> <img src='G_4.jpg' height='90'>","null","Animation1",""
"","","","","","html-keyboard-response","129","178765","0.0-92.0","76","1","2025-01-31 02:10:10","af8d355d56820e421d246a7037deb6e6","100.7.95.150","Mozilla/5.0 (Macintosh; Intel Mac OS X 10_15_7) AppleWebKit/537.36 (KHTML, like Gecko) Chrome/132.0.0.0 Safari/537.36","Macintosh","Chrome","132.0.0.0","OS X","10_15_7","https://app.prolific.com/","en-US,en;q=0.9,zh-CN;q=0.8,zh;q=0.7","5f4eb642ce413e0ecc88e227","67949641171f97c04e14fb34","679c30f237d1588852af609c","","null","<img     src='G_7.jpg' height='90'> <img     src='G_3.jpg' height='90'> <img     src='G_5.jpg' height='90'> <img id='selected'     src='G_2.jpg' height='90'> <img id='selected'  src='G_8.jpg' height='90'> <img      src='G_1.jpg' height='90'> <img src='G_6.jpg' height='90'> <img src='G_4.jpg' height='90'>","null","Animation1",""
"","","","","","html-keyboard-response","130","179275","0.0-93.0","76","1","2025-01-31 02:10:10","af8d355d56820e421d246a7037deb6e6","100.7.95.150","Mozilla/5.0 (Macintosh; Intel Mac OS X 10_15_7) AppleWebKit/537.36 (KHTML, like Gecko) Chrome/132.0.0.0 Safari/537.36","Macintosh","Chrome","132.0.0.0","OS X","10_15_7","https://app.prolific.com/","en-US,en;q=0.9,zh-CN;q=0.8,zh;q=0.7","5f4eb642ce413e0ecc88e227","67949641171f97c04e14fb34","679c30f237d1588852af609c","","null","<img     src='G_7.jpg' height='90'> <img     src='G_3.jpg' height='90'> <img     src='G_5.jpg' height='90'> <img id='selected'     src='G_2.jpg' height='90'> <img id='selected'  src='G_8.jpg' height='90'> <img      src='G_1.jpg' height='90'> <img src='G_6.jpg' height='90'> <img src='G_4.jpg' height='90'>","null","Animation1",""
"","","","","","html-keyboard-response","131","179586","0.0-94.0","76","1","2025-01-31 02:10:10","af8d355d56820e421d246a7037deb6e6","100.7.95.150","Mozilla/5.0 (Macintosh; Intel Mac OS X 10_15_7) AppleWebKit/537.36 (KHTML, like Gecko) Chrome/132.0.0.0 Safari/537.36","Macintosh","Chrome","132.0.0.0","OS X","10_15_7","https://app.prolific.com/","en-US,en;q=0.9,zh-CN;q=0.8,zh;q=0.7","5f4eb642ce413e0ecc88e227","67949641171f97c04e14fb34","679c30f237d1588852af609c","","null","<img     src='G_7.jpg' height='90'> <img     src='G_3.jpg' height='90'> <img     src='G_5.jpg' height='90'> <img      src='G_2.jpg' height='90'> <img   src='G_8.jpg' height='90'> <img      src='G_1.jpg' height='90'> <img src='G_6.jpg' height='90'> <img src='G_4.jpg' height='90'>","null","Animation1",""
"","","","","","html-keyboard-response","132","180097","0.0-95.0","76","1","2025-01-31 02:10:10","af8d355d56820e421d246a7037deb6e6","100.7.95.150","Mozilla/5.0 (Macintosh; Intel Mac OS X 10_15_7) AppleWebKit/537.36 (KHTML, like Gecko) Chrome/132.0.0.0 Safari/537.36","Macintosh","Chrome","132.0.0.0","OS X","10_15_7","https://app.prolific.com/","en-US,en;q=0.9,zh-CN;q=0.8,zh;q=0.7","5f4eb642ce413e0ecc88e227","67949641171f97c04e14fb34","679c30f237d1588852af609c","","null","<img     src='G_7.jpg' height='90'> <img     src='G_3.jpg' height='90'> <img     src='G_5.jpg' height='90'> <img      src='G_2.jpg' height='90'> <img   src='G_8.jpg' height='90'> <img id='selected'      src='G_1.jpg' height='90'> <img src='G_6.jpg' height='90'> <img src='G_4.jpg' height='90'>","null","Animation1",""
"","","","","","html-keyboard-response","133","180608","0.0-96.0","76","1","2025-01-31 02:10:10","af8d355d56820e421d246a7037deb6e6","100.7.95.150","Mozilla/5.0 (Macintosh; Intel Mac OS X 10_15_7) AppleWebKit/537.36 (KHTML, like Gecko) Chrome/132.0.0.0 Safari/537.36","Macintosh","Chrome","132.0.0.0","OS X","10_15_7","https://app.prolific.com/","en-US,en;q=0.9,zh-CN;q=0.8,zh;q=0.7","5f4eb642ce413e0ecc88e227","67949641171f97c04e14fb34","679c30f237d1588852af609c","","null","<img     src='G_7.jpg' height='90'> <img     src='G_3.jpg' height='90'> <img     src='G_5.jpg' height='90'> <img      src='G_2.jpg' height='90'> <img   src='G_8.jpg' height='90'> <img id='selected'      src='G_1.jpg' height='90'> <img id='selected' src='G_6.jpg' height='90'> <img src='G_4.jpg' height='90'>","null","Animation1",""
"","","","","","html-keyboard-response","134","181118","0.0-97.0","76","1","2025-01-31 02:10:10","af8d355d56820e421d246a7037deb6e6","100.7.95.150","Mozilla/5.0 (Macintosh; Intel Mac OS X 10_15_7) AppleWebKit/537.36 (KHTML, like Gecko) Chrome/132.0.0.0 Safari/537.36","Macintosh","Chrome","132.0.0.0","OS X","10_15_7","https://app.prolific.com/","en-US,en;q=0.9,zh-CN;q=0.8,zh;q=0.7","5f4eb642ce413e0ecc88e227","67949641171f97c04e14fb34","679c30f237d1588852af609c","","null","<img     src='G_7.jpg' height='90'> <img     src='G_3.jpg' height='90'> <img     src='G_5.jpg' height='90'> <img      src='G_2.jpg' height='90'> <img   src='G_8.jpg' height='90'> <img id='selected'      src='G_1.jpg' height='90'> <img id='selected' src='G_6.jpg' height='90'> <img src='G_4.jpg' height='90'>","null","Animation1",""
"","","","","","html-keyboard-response","135","181430","0.0-98.0","76","1","2025-01-31 02:10:10","af8d355d56820e421d246a7037deb6e6","100.7.95.150","Mozilla/5.0 (Macintosh; Intel Mac OS X 10_15_7) AppleWebKit/537.36 (KHTML, like Gecko) Chrome/132.0.0.0 Safari/537.36","Macintosh","Chrome","132.0.0.0","OS X","10_15_7","https://app.prolific.com/","en-US,en;q=0.9,zh-CN;q=0.8,zh;q=0.7","5f4eb642ce413e0ecc88e227","67949641171f97c04e14fb34","679c30f237d1588852af609c","","null","<img     src='G_7.jpg' height='90'> <img     src='G_3.jpg' height='90'> <img     src='G_5.jpg' height='90'> <img      src='G_2.jpg' height='90'> <img   src='G_8.jpg' height='90'> <img       src='G_1.jpg' height='90'> <img  src='G_6.jpg' height='90'> <img src='G_4.jpg' height='90'>","null","Animation1",""
"","","","","","html-keyboard-response","136","181941","0.0-99.0","76","1","2025-01-31 02:10:10","af8d355d56820e421d246a7037deb6e6","100.7.95.150","Mozilla/5.0 (Macintosh; Intel Mac OS X 10_15_7) AppleWebKit/537.36 (KHTML, like Gecko) Chrome/132.0.0.0 Safari/537.36","Macintosh","Chrome","132.0.0.0","OS X","10_15_7","https://app.prolific.com/","en-US,en;q=0.9,zh-CN;q=0.8,zh;q=0.7","5f4eb642ce413e0ecc88e227","67949641171f97c04e14fb34","679c30f237d1588852af609c","","null","<img     src='G_7.jpg' height='90'> <img     src='G_3.jpg' height='90'> <img     src='G_5.jpg' height='90'> <img      src='G_2.jpg' height='90'> <img   src='G_8.jpg' height='90'> <img       src='G_1.jpg' height='90'> <img id='selected'  src='G_6.jpg' height='90'> <img src='G_4.jpg' height='90'>","null","Animation1",""
"","","","","","html-keyboard-response","137","182452","0.0-100.0","76","1","2025-01-31 02:10:10","af8d355d56820e421d246a7037deb6e6","100.7.95.150","Mozilla/5.0 (Macintosh; Intel Mac OS X 10_15_7) AppleWebKit/537.36 (KHTML, like Gecko) Chrome/132.0.0.0 Safari/537.36","Macintosh","Chrome","132.0.0.0","OS X","10_15_7","https://app.prolific.com/","en-US,en;q=0.9,zh-CN;q=0.8,zh;q=0.7","5f4eb642ce413e0ecc88e227","67949641171f97c04e14fb34","679c30f237d1588852af609c","","null","<img     src='G_7.jpg' height='90'> <img     src='G_3.jpg' height='90'> <img     src='G_5.jpg' height='90'> <img      src='G_2.jpg' height='90'> <img   src='G_8.jpg' height='90'> <img       src='G_1.jpg' height='90'> <img id='selected'  src='G_6.jpg' height='90'> <img id='selected' src='G_4.jpg' height='90'>","null","Animation1",""
"","","","","","html-keyboard-response","138","182963","0.0-101.0","76","1","2025-01-31 02:10:10","af8d355d56820e421d246a7037deb6e6","100.7.95.150","Mozilla/5.0 (Macintosh; Intel Mac OS X 10_15_7) AppleWebKit/537.36 (KHTML, like Gecko) Chrome/132.0.0.0 Safari/537.36","Macintosh","Chrome","132.0.0.0","OS X","10_15_7","https://app.prolific.com/","en-US,en;q=0.9,zh-CN;q=0.8,zh;q=0.7","5f4eb642ce413e0ecc88e227","67949641171f97c04e14fb34","679c30f237d1588852af609c","","null","<img     src='G_7.jpg' height='90'> <img     src='G_3.jpg' height='90'> <img     src='G_5.jpg' height='90'> <img      src='G_2.jpg' height='90'> <img   src='G_8.jpg' height='90'> <img       src='G_1.jpg' height='90'> <img id='swapped' src='G_4.jpg' height='90'> <img id='swapped'  src='G_6.jpg' height='90'>","null","Animation1",""
"","","","","","html-keyboard-response","139","183270","0.0-102.0","76","1","2025-01-31 02:10:10","af8d355d56820e421d246a7037deb6e6","100.7.95.150","Mozilla/5.0 (Macintosh; Intel Mac OS X 10_15_7) AppleWebKit/537.36 (KHTML, like Gecko) Chrome/132.0.0.0 Safari/537.36","Macintosh","Chrome","132.0.0.0","OS X","10_15_7","https://app.prolific.com/","en-US,en;q=0.9,zh-CN;q=0.8,zh;q=0.7","5f4eb642ce413e0ecc88e227","67949641171f97c04e14fb34","679c30f237d1588852af609c","","null","<img     src='G_7.jpg' height='90'> <img     src='G_3.jpg' height='90'> <img     src='G_5.jpg' height='90'> <img      src='G_2.jpg' height='90'> <img   src='G_8.jpg' height='90'> <img       src='G_1.jpg' height='90'> <img  src='G_4.jpg' height='90'> <img   src='G_6.jpg' height='90'>","null","Animation1",""
"","","","","","html-keyboard-response","140","183776","0.0-103.0","76","1","2025-01-31 02:10:10","af8d355d56820e421d246a7037deb6e6","100.7.95.150","Mozilla/5.0 (Macintosh; Intel Mac OS X 10_15_7) AppleWebKit/537.36 (KHTML, like Gecko) Chrome/132.0.0.0 Safari/537.36","Macintosh","Chrome","132.0.0.0","OS X","10_15_7","https://app.prolific.com/","en-US,en;q=0.9,zh-CN;q=0.8,zh;q=0.7","5f4eb642ce413e0ecc88e227","67949641171f97c04e14fb34","679c30f237d1588852af609c","","null","<img     src='G_7.jpg' height='90'> <img     src='G_3.jpg' height='90'> <img     src='G_5.jpg' height='90'> <img      src='G_2.jpg' height='90'> <img   src='G_8.jpg' height='90'> <img id='selected'       src='G_1.jpg' height='90'> <img  src='G_4.jpg' height='90'> <img   src='G_6.jpg' height='90'>","null","Animation1",""
"","","","","","html-keyboard-response","141","184286","0.0-104.0","76","1","2025-01-31 02:10:10","af8d355d56820e421d246a7037deb6e6","100.7.95.150","Mozilla/5.0 (Macintosh; Intel Mac OS X 10_15_7) AppleWebKit/537.36 (KHTML, like Gecko) Chrome/132.0.0.0 Safari/537.36","Macintosh","Chrome","132.0.0.0","OS X","10_15_7","https://app.prolific.com/","en-US,en;q=0.9,zh-CN;q=0.8,zh;q=0.7","5f4eb642ce413e0ecc88e227","67949641171f97c04e14fb34","679c30f237d1588852af609c","","null","<img     src='G_7.jpg' height='90'> <img     src='G_3.jpg' height='90'> <img     src='G_5.jpg' height='90'> <img      src='G_2.jpg' height='90'> <img   src='G_8.jpg' height='90'> <img id='selected'       src='G_1.jpg' height='90'> <img id='selected'  src='G_4.jpg' height='90'> <img   src='G_6.jpg' height='90'>","null","Animation1",""
"","","","","","html-keyboard-response","142","184797","0.0-105.0","76","1","2025-01-31 02:10:10","af8d355d56820e421d246a7037deb6e6","100.7.95.150","Mozilla/5.0 (Macintosh; Intel Mac OS X 10_15_7) AppleWebKit/537.36 (KHTML, like Gecko) Chrome/132.0.0.0 Safari/537.36","Macintosh","Chrome","132.0.0.0","OS X","10_15_7","https://app.prolific.com/","en-US,en;q=0.9,zh-CN;q=0.8,zh;q=0.7","5f4eb642ce413e0ecc88e227","67949641171f97c04e14fb34","679c30f237d1588852af609c","","null","<img     src='G_7.jpg' height='90'> <img     src='G_3.jpg' height='90'> <img     src='G_5.jpg' height='90'> <img      src='G_2.jpg' height='90'> <img   src='G_8.jpg' height='90'> <img id='selected'       src='G_1.jpg' height='90'> <img id='selected'  src='G_4.jpg' height='90'> <img   src='G_6.jpg' height='90'>","null","Animation1",""
"","","","","","html-keyboard-response","143","185106","0.0-106.0","76","1","2025-01-31 02:10:10","af8d355d56820e421d246a7037deb6e6","100.7.95.150","Mozilla/5.0 (Macintosh; Intel Mac OS X 10_15_7) AppleWebKit/537.36 (KHTML, like Gecko) Chrome/132.0.0.0 Safari/537.36","Macintosh","Chrome","132.0.0.0","OS X","10_15_7","https://app.prolific.com/","en-US,en;q=0.9,zh-CN;q=0.8,zh;q=0.7","5f4eb642ce413e0ecc88e227","67949641171f97c04e14fb34","679c30f237d1588852af609c","","null","<img     src='G_7.jpg' height='90'> <img     src='G_3.jpg' height='90'> <img     src='G_5.jpg' height='90'> <img      src='G_2.jpg' height='90'> <img   src='G_8.jpg' height='90'> <img        src='G_1.jpg' height='90'> <img   src='G_4.jpg' height='90'> <img   src='G_6.jpg' height='90'>","null","Animation1",""
"","","","","","html-keyboard-response","144","194892","0.0-107.0","76","1","2025-01-31 02:10:10","af8d355d56820e421d246a7037deb6e6","100.7.95.150","Mozilla/5.0 (Macintosh; Intel Mac OS X 10_15_7) AppleWebKit/537.36 (KHTML, like Gecko) Chrome/132.0.0.0 Safari/537.36","Macintosh","Chrome","132.0.0.0","OS X","10_15_7","https://app.prolific.com/","en-US,en;q=0.9,zh-CN;q=0.8,zh;q=0.7","5f4eb642ce413e0ecc88e227","67949641171f97c04e14fb34","679c30f237d1588852af609c","","9781","[""Did you notice any patterns? <br><br>Press Enter to watch that example again and follow the steps of Omgne Sort.""]","enter","",""
"","","","","","html-button-response","145","195303","0.0-108.0","76","1","2025-01-31 02:10:10","af8d355d56820e421d246a7037deb6e6","100.7.95.150","Mozilla/5.0 (Macintosh; Intel Mac OS X 10_15_7) AppleWebKit/537.36 (KHTML, like Gecko) Chrome/132.0.0.0 Safari/537.36","Macintosh","Chrome","132.0.0.0","OS X","10_15_7","https://app.prolific.com/","en-US,en;q=0.9,zh-CN;q=0.8,zh;q=0.7","5f4eb642ce413e0ecc88e227","67949641171f97c04e14fb34","679c30f237d1588852af609c","","null","<img id='selected' src='G_2.jpg' height='90'> <img src='G_1.jpg' height='90'> <img src='G_5.jpg' height='90'> <img src='G_7.jpg' height='90'> <img src='G_3.jpg' height='90'> <img src='G_8.jpg' height='90'> <img src='G_6.jpg' height='90'> <img src='G_4.jpg' height='90'>","null","Learning example 1",""
