"success","timeout","failed_images","failed_audio","failed_video","trial_type","trial_index","time_elapsed","internal_node_id","run_id","condition","recorded_at","source_code_version","ip","user_agent","device","browser","browser_version","platform","platform_version","referer","accept_language","PROLIFIC_PID","STUDY_ID","SESSION_ID","view_history","rt","stimulus","response","phase","question_order","presented_choices"
"true","false","[]","[]","[]","preload","0","11104","0.0-0.0","1","1","2025-01-31 17:37:39","838ec4b49f044157bad9e156c8cbc4a3","84.32.6.90","Mozilla/5.0 (Windows NT 10.0; Win64; x64) AppleWebKit/537.36 (KHTML, like Gecko) Chrome/132.0.0.0 Safari/537.36","WebKit","Chrome","132.0.0.0","Windows","10.0","https://app.prolific.com/","en-US,en;q=0.9","66f93cc8e6f967889ef2e4b6","679cf675428f47411a224827","679d0a5031d7a1b7cc1c6c2f","","","","","","",""
"","","","","","instructions","1","29596","0.0-1.0","1","1","2025-01-31 17:37:39","838ec4b49f044157bad9e156c8cbc4a3","84.32.6.90","Mozilla/5.0 (Windows NT 10.0; Win64; x64) AppleWebKit/537.36 (KHTML, like Gecko) Chrome/132.0.0.0 Safari/537.36","WebKit","Chrome","132.0.0.0","Windows","10.0","https://app.prolific.com/","en-US,en;q=0.9","66f93cc8e6f967889ef2e4b6","679cf675428f47411a224827","679d0a5031d7a1b7cc1c6c2f","[{""page_index"":0,""viewing_time"":18484}]","18485","","","","",""
"","","","","","html-keyboard-response","2","30106","0.0-2.0","1","1","2025-01-31 17:37:39","838ec4b49f044157bad9e156c8cbc4a3","84.32.6.90","Mozilla/5.0 (Windows NT 10.0; Win64; x64) AppleWebKit/537.36 (KHTML, like Gecko) Chrome/132.0.0.0 Safari/537.36","WebKit","Chrome","132.0.0.0","Windows","10.0","https://app.prolific.com/","en-US,en;q=0.9","66f93cc8e6f967889ef2e4b6","679cf675428f47411a224827","679d0a5031d7a1b7cc1c6c2f","","null","<p> + <p/>","null","","",""
"","","","","","instructions","3","63241","0.0-3.0","1","1","2025-01-31 17:37:39","838ec4b49f044157bad9e156c8cbc4a3","84.32.6.90","Mozilla/5.0 (Windows NT 10.0; Win64; x64) AppleWebKit/537.36 (KHTML, like Gecko) Chrome/132.0.0.0 Safari/537.36","WebKit","Chrome","132.0.0.0","Windows","10.0","https://app.prolific.com/","en-US,en;q=0.9","66f93cc8e6f967889ef2e4b6","679cf675428f47411a224827","679d0a5031d7a1b7cc1c6c2f","[{""page_index"":0,""viewing_time"":3810},{""page_index"":1,""viewing_time"":7748},{""page_index"":2,""viewing_time"":8945},{""page_index"":3,""viewing_time"":5368},{""page_index"":4,""viewing_time"":7262}]","33133","","","","",""
"","","","","","html-button-response","4","98787","0.0-4.0-0.0-0.0","1","1","2025-01-31 17:37:39","838ec4b49f044157bad9e156c8cbc4a3","84.32.6.90","Mozilla/5.0 (Windows NT 10.0; Win64; x64) AppleWebKit/537.36 (KHTML, like Gecko) Chrome/132.0.0.0 Safari/537.36","WebKit","Chrome","132.0.0.0","Windows","10.0","https://app.prolific.com/","en-US,en;q=0.9","66f93cc8e6f967889ef2e4b6","679cf675428f47411a224827","679d0a5031d7a1b7cc1c6c2f","","35541","","1","Intro Trial","",""
"","","","","","html-button-response","5","100117","0.0-4.1-0.1-0.1","1","1","2025-01-31 17:37:39","838ec4b49f044157bad9e156c8cbc4a3","84.32.6.90","Mozilla/5.0 (Windows NT 10.0; Win64; x64) AppleWebKit/537.36 (KHTML, like Gecko) Chrome/132.0.0.0 Safari/537.36","WebKit","Chrome","132.0.0.0","Windows","10.0","https://app.prolific.com/","en-US,en;q=0.9","66f93cc8e6f967889ef2e4b6","679cf675428f47411a224827","679d0a5031d7a1b7cc1c6c2f","","1326","","2","Intro Trial","",""
"","","","","","html-button-response","6","110361","0.0-4.2-0.2-0.2","1","1","2025-01-31 17:37:39","838ec4b49f044157bad9e156c8cbc4a3","84.32.6.90","Mozilla/5.0 (Windows NT 10.0; Win64; x64) AppleWebKit/537.36 (KHTML, like Gecko) Chrome/132.0.0.0 Safari/537.36","WebKit","Chrome","132.0.0.0","Windows","10.0","https://app.prolific.com/","en-US,en;q=0.9","66f93cc8e6f967889ef2e4b6","679cf675428f47411a224827","679d0a5031d7a1b7cc1c6c2f","","10236","","0","Intro Trial","",""
"","","","","","html-button-response","7","110963","0.0-4.3-0.3-0.3","1","1","2025-01-31 17:37:39","838ec4b49f044157bad9e156c8cbc4a3","84.32.6.90","Mozilla/5.0 (Windows NT 10.0; Win64; x64) AppleWebKit/537.36 (KHTML, like Gecko) Chrome/132.0.0.0 Safari/537.36","WebKit","Chrome","132.0.0.0","Windows","10.0","https://app.prolific.com/","en-US,en;q=0.9","66f93cc8e6f967889ef2e4b6","679cf675428f47411a224827","679d0a5031d7a1b7cc1c6c2f","","592","","1","Intro Trial","",""
"","","","","","html-button-response","8","126412","0.0-4.4-0.4-0.4","1","1","2025-01-31 17:37:39","838ec4b49f044157bad9e156c8cbc4a3","84.32.6.90","Mozilla/5.0 (Windows NT 10.0; Win64; x64) AppleWebKit/537.36 (KHTML, like Gecko) Chrome/132.0.0.0 Safari/537.36","WebKit","Chrome","132.0.0.0","Windows","10.0","https://app.prolific.com/","en-US,en;q=0.9","66f93cc8e6f967889ef2e4b6","679cf675428f47411a224827","679d0a5031d7a1b7cc1c6c2f","","15442","","2","Intro Trial","",""
"","","","","","html-button-response","9","126941","0.0-4.5-0.5-0.5","1","1","2025-01-31 17:37:39","838ec4b49f044157bad9e156c8cbc4a3","84.32.6.90","Mozilla/5.0 (Windows NT 10.0; Win64; x64) AppleWebKit/537.36 (KHTML, like Gecko) Chrome/132.0.0.0 Safari/537.36","WebKit","Chrome","132.0.0.0","Windows","10.0","https://app.prolific.com/","en-US,en;q=0.9","66f93cc8e6f967889ef2e4b6","679cf675428f47411a224827","679d0a5031d7a1b7cc1c6c2f","","521","","4","Intro Trial","",""
"","","","","","html-button-response","10","129004","0.0-4.6-0.6-0.6","1","1","2025-01-31 17:37:39","838ec4b49f044157bad9e156c8cbc4a3","84.32.6.90","Mozilla/5.0 (Windows NT 10.0; Win64; x64) AppleWebKit/537.36 (KHTML, like Gecko) Chrome/132.0.0.0 Safari/537.36","WebKit","Chrome","132.0.0.0","Windows","10.0","https://app.prolific.com/","en-US,en;q=0.9","66f93cc8e6f967889ef2e4b6","679cf675428f47411a224827","679d0a5031d7a1b7cc1c6c2f","","2056","","3","Intro Trial","",""
"","","","","","html-button-response","11","129523","0.0-4.7-0.7-0.7","1","1","2025-01-31 17:37:39","838ec4b49f044157bad9e156c8cbc4a3","84.32.6.90","Mozilla/5.0 (Windows NT 10.0; Win64; x64) AppleWebKit/537.36 (KHTML, like Gecko) Chrome/132.0.0.0 Safari/537.36","WebKit","Chrome","132.0.0.0","Windows","10.0","https://app.prolific.com/","en-US,en;q=0.9","66f93cc8e6f967889ef2e4b6","679cf675428f47411a224827","679d0a5031d7a1b7cc1c6c2f","","515","","2","Intro Trial","",""
"","","","","","html-button-response","12","130291","0.0-4.8-0.8-0.8","1","1","2025-01-31 17:37:39","838ec4b49f044157bad9e156c8cbc4a3","84.32.6.90","Mozilla/5.0 (Windows NT 10.0; Win64; x64) AppleWebKit/537.36 (KHTML, like Gecko) Chrome/132.0.0.0 Safari/537.36","WebKit","Chrome","132.0.0.0","Windows","10.0","https://app.prolific.com/","en-US,en;q=0.9","66f93cc8e6f967889ef2e4b6","679cf675428f47411a224827","679d0a5031d7a1b7cc1c6c2f","","760","","2","Intro Trial","",""
"","","","","","html-button-response","13","130586","0.0-4.9-0.9-0.9","1","1","2025-01-31 17:37:39","838ec4b49f044157bad9e156c8cbc4a3","84.32.6.90","Mozilla/5.0 (Windows NT 10.0; Win64; x64) AppleWebKit/537.36 (KHTML, like Gecko) Chrome/132.0.0.0 Safari/537.36","WebKit","Chrome","132.0.0.0","Windows","10.0","https://app.prolific.com/","en-US,en;q=0.9","66f93cc8e6f967889ef2e4b6","679cf675428f47411a224827","679d0a5031d7a1b7cc1c6c2f","","288","","3","Intro Trial","",""
"","","","","","html-button-response","14","132647","0.0-4.10-0.10-0.10","1","1","2025-01-31 17:37:39","838ec4b49f044157bad9e156c8cbc4a3","84.32.6.90","Mozilla/5.0 (Windows NT 10.0; Win64; x64) AppleWebKit/537.36 (KHTML, like Gecko) Chrome/132.0.0.0 Safari/537.36","WebKit","Chrome","132.0.0.0","Windows","10.0","https://app.prolific.com/","en-US,en;q=0.9","66f93cc8e6f967889ef2e4b6","679cf675428f47411a224827","679d0a5031d7a1b7cc1c6c2f","","2054","","1","Intro Trial","",""
"","","","","","html-button-response","15","133038","0.0-4.11-0.11-0.11","1","1","2025-01-31 17:37:39","838ec4b49f044157bad9e156c8cbc4a3","84.32.6.90","Mozilla/5.0 (Windows NT 10.0; Win64; x64) AppleWebKit/537.36 (KHTML, like Gecko) Chrome/132.0.0.0 Safari/537.36","WebKit","Chrome","132.0.0.0","Windows","10.0","https://app.prolific.com/","en-US,en;q=0.9","66f93cc8e6f967889ef2e4b6","679cf675428f47411a224827","679d0a5031d7a1b7cc1c6c2f","","383","","3","Intro Trial","",""
"","","","","","html-button-response","16","133914","0.0-4.12-0.12-0.12","1","1","2025-01-31 17:37:39","838ec4b49f044157bad9e156c8cbc4a3","84.32.6.90","Mozilla/5.0 (Windows NT 10.0; Win64; x64) AppleWebKit/537.36 (KHTML, like Gecko) Chrome/132.0.0.0 Safari/537.36","WebKit","Chrome","132.0.0.0","Windows","10.0","https://app.prolific.com/","en-US,en;q=0.9","66f93cc8e6f967889ef2e4b6","679cf675428f47411a224827","679d0a5031d7a1b7cc1c6c2f","","869","","1","Intro Trial","",""
"","","","","","html-button-response","17","134405","0.0-4.13-0.13-0.13","1","1","2025-01-31 17:37:39","838ec4b49f044157bad9e156c8cbc4a3","84.32.6.90","Mozilla/5.0 (Windows NT 10.0; Win64; x64) AppleWebKit/537.36 (KHTML, like Gecko) Chrome/132.0.0.0 Safari/537.36","WebKit","Chrome","132.0.0.0","Windows","10.0","https://app.prolific.com/","en-US,en;q=0.9","66f93cc8e6f967889ef2e4b6","679cf675428f47411a224827","679d0a5031d7a1b7cc1c6c2f","","484","","3","Intro Trial","",""
"","","","","","html-button-response","18","135948","0.0-4.14-0.14-0.14","1","1","2025-01-31 17:37:39","838ec4b49f044157bad9e156c8cbc4a3","84.32.6.90","Mozilla/5.0 (Windows NT 10.0; Win64; x64) AppleWebKit/537.36 (KHTML, like Gecko) Chrome/132.0.0.0 Safari/537.36","WebKit","Chrome","132.0.0.0","Windows","10.0","https://app.prolific.com/","en-US,en;q=0.9","66f93cc8e6f967889ef2e4b6","679cf675428f47411a224827","679d0a5031d7a1b7cc1c6c2f","","1536","","2","Intro Trial","",""
"","","","","","html-button-response","19","136232","0.0-4.15-0.15-0.15","1","1","2025-01-31 17:37:39","838ec4b49f044157bad9e156c8cbc4a3","84.32.6.90","Mozilla/5.0 (Windows NT 10.0; Win64; x64) AppleWebKit/537.36 (KHTML, like Gecko) Chrome/132.0.0.0 Safari/537.36","WebKit","Chrome","132.0.0.0","Windows","10.0","https://app.prolific.com/","en-US,en;q=0.9","66f93cc8e6f967889ef2e4b6","679cf675428f47411a224827","679d0a5031d7a1b7cc1c6c2f","","276","","3","Intro Trial","",""
"","","","","","html-button-response","20","136889","0.0-4.16-0.16-0.16","1","1","2025-01-31 17:37:39","838ec4b49f044157bad9e156c8cbc4a3","84.32.6.90","Mozilla/5.0 (Windows NT 10.0; Win64; x64) AppleWebKit/537.36 (KHTML, like Gecko) Chrome/132.0.0.0 Safari/537.36","WebKit","Chrome","132.0.0.0","Windows","10.0","https://app.prolific.com/","en-US,en;q=0.9","66f93cc8e6f967889ef2e4b6","679cf675428f47411a224827","679d0a5031d7a1b7cc1c6c2f","","649","","2","Intro Trial","",""
"","","","","","html-button-response","21","137269","0.0-4.17-0.17-0.17","1","1","2025-01-31 17:37:39","838ec4b49f044157bad9e156c8cbc4a3","84.32.6.90","Mozilla/5.0 (Windows NT 10.0; Win64; x64) AppleWebKit/537.36 (KHTML, like Gecko) Chrome/132.0.0.0 Safari/537.36","WebKit","Chrome","132.0.0.0","Windows","10.0","https://app.prolific.com/","en-US,en;q=0.9","66f93cc8e6f967889ef2e4b6","679cf675428f47411a224827","679d0a5031d7a1b7cc1c6c2f","","373","","4","Intro Trial","",""
"","","","","","html-button-response","22","140445","0.0-4.18-0.18-0.18","1","1","2025-01-31 17:37:39","838ec4b49f044157bad9e156c8cbc4a3","84.32.6.90","Mozilla/5.0 (Windows NT 10.0; Win64; x64) AppleWebKit/537.36 (KHTML, like Gecko) Chrome/132.0.0.0 Safari/537.36","WebKit","Chrome","132.0.0.0","Windows","10.0","https://app.prolific.com/","en-US,en;q=0.9","66f93cc8e6f967889ef2e4b6","679cf675428f47411a224827","679d0a5031d7a1b7cc1c6c2f","","3167","","3","Intro Trial","",""
"","","","","","html-button-response","23","140875","0.0-4.19-0.19-0.19","1","1","2025-01-31 17:37:39","838ec4b49f044157bad9e156c8cbc4a3","84.32.6.90","Mozilla/5.0 (Windows NT 10.0; Win64; x64) AppleWebKit/537.36 (KHTML, like Gecko) Chrome/132.0.0.0 Safari/537.36","WebKit","Chrome","132.0.0.0","Windows","10.0","https://app.prolific.com/","en-US,en;q=0.9","66f93cc8e6f967889ef2e4b6","679cf675428f47411a224827","679d0a5031d7a1b7cc1c6c2f","","424","","0","Intro Trial","",""
"","","","","","html-button-response","24","142435","0.0-4.20-0.20-0.20","1","1","2025-01-31 17:37:39","838ec4b49f044157bad9e156c8cbc4a3","84.32.6.90","Mozilla/5.0 (Windows NT 10.0; Win64; x64) AppleWebKit/537.36 (KHTML, like Gecko) Chrome/132.0.0.0 Safari/537.36","WebKit","Chrome","132.0.0.0","Windows","10.0","https://app.prolific.com/","en-US,en;q=0.9","66f93cc8e6f967889ef2e4b6","679cf675428f47411a224827","679d0a5031d7a1b7cc1c6c2f","","1552","","5","Intro Trial","",""
"","","","","","html-keyboard-response","25","156423","0.0-5.0","1","1","2025-01-31 17:37:39","838ec4b49f044157bad9e156c8cbc4a3","84.32.6.90","Mozilla/5.0 (Windows NT 10.0; Win64; x64) AppleWebKit/537.36 (KHTML, like Gecko) Chrome/132.0.0.0 Safari/537.36","WebKit","Chrome","132.0.0.0","Windows","10.0","https://app.prolific.com/","en-US,en;q=0.9","66f93cc8e6f967889ef2e4b6","679cf675428f47411a224827","679d0a5031d7a1b7cc1c6c2f","","13982","[""You sorted incorrectly by using the balance 10 times. <br><br> <img src='G_2.jpg' height='90'><img src='G_1.jpg' height='90'><img src='G_5.jpg' height='90'><img src='G_4.jpg' height='90'><img src='G_3.jpg' height='90'><br><br> Your final order is 2,4,1,5,3<br><br><br>Omgne Sort in this game will allow you to sort correctly by using the balance 8 times. Press Enter to learn it!""]","enter","","",""
"","","","","","html-keyboard-response","26","161256","0.0-6.0","1","1","2025-01-31 17:37:39","838ec4b49f044157bad9e156c8cbc4a3","84.32.6.90","Mozilla/5.0 (Windows NT 10.0; Win64; x64) AppleWebKit/537.36 (KHTML, like Gecko) Chrome/132.0.0.0 Safari/537.36","WebKit","Chrome","132.0.0.0","Windows","10.0","https://app.prolific.com/","en-US,en;q=0.9","66f93cc8e6f967889ef2e4b6","679cf675428f47411a224827","679d0a5031d7a1b7cc1c6c2f","","4830","<p>Welcome to the learning phase! <br><br> You will learn by six examples. The following learning trials will not be used to calculate your performance. <br><br> Press Enter to continue.<p/>","enter","","",""
"","","","","","html-keyboard-response","27","166965","0.0-7.0","1","1","2025-01-31 17:37:39","838ec4b49f044157bad9e156c8cbc4a3","84.32.6.90","Mozilla/5.0 (Windows NT 10.0; Win64; x64) AppleWebKit/537.36 (KHTML, like Gecko) Chrome/132.0.0.0 Safari/537.36","WebKit","Chrome","132.0.0.0","Windows","10.0","https://app.prolific.com/","en-US,en;q=0.9","66f93cc8e6f967889ef2e4b6","679cf675428f47411a224827","679d0a5031d7a1b7cc1c6c2f","","5707","[""Example 1<br><br>You will watch Omnge Sort in action. Try to identify any patterns in the comparisons made by this method. <br><br>Press Enter to continue.""]","enter","","",""
"","","","","","html-keyboard-response","28","167476","0.0-8.0","1","1","2025-01-31 17:37:39","838ec4b49f044157bad9e156c8cbc4a3","84.32.6.90","Mozilla/5.0 (Windows NT 10.0; Win64; x64) AppleWebKit/537.36 (KHTML, like Gecko) Chrome/132.0.0.0 Safari/537.36","WebKit","Chrome","132.0.0.0","Windows","10.0","https://app.prolific.com/","en-US,en;q=0.9","66f93cc8e6f967889ef2e4b6","679cf675428f47411a224827","679d0a5031d7a1b7cc1c6c2f","","null","<img id='selected' src='G_1.jpg' height='90'> <img src='G_5.jpg' height='90'> <img src='G_3.jpg' height='90'> <img src='G_9.jpg' height='90'> <img src='G_7.jpg' height='90'>","null","Animation0","",""
"","","","","","html-keyboard-response","29","167983","0.0-9.0","1","1","2025-01-31 17:37:39","838ec4b49f044157bad9e156c8cbc4a3","84.32.6.90","Mozilla/5.0 (Windows NT 10.0; Win64; x64) AppleWebKit/537.36 (KHTML, like Gecko) Chrome/132.0.0.0 Safari/537.36","WebKit","Chrome","132.0.0.0","Windows","10.0","https://app.prolific.com/","en-US,en;q=0.9","66f93cc8e6f967889ef2e4b6","679cf675428f47411a224827","679d0a5031d7a1b7cc1c6c2f","","null","<img id='selected' src='G_1.jpg' height='90'> <img id='selected' src='G_5.jpg' height='90'> <img src='G_3.jpg' height='90'> <img src='G_9.jpg' height='90'> <img src='G_7.jpg' height='90'>","null","Animation0","",""
"","","","","","html-keyboard-response","30","168499","0.0-10.0","1","1","2025-01-31 17:37:39","838ec4b49f044157bad9e156c8cbc4a3","84.32.6.90","Mozilla/5.0 (Windows NT 10.0; Win64; x64) AppleWebKit/537.36 (KHTML, like Gecko) Chrome/132.0.0.0 Safari/537.36","WebKit","Chrome","132.0.0.0","Windows","10.0","https://app.prolific.com/","en-US,en;q=0.9","66f93cc8e6f967889ef2e4b6","679cf675428f47411a224827","679d0a5031d7a1b7cc1c6c2f","","null","<img id='swapped' src='G_5.jpg' height='90'> <img id='swapped' src='G_1.jpg' height='90'> <img src='G_3.jpg' height='90'> <img src='G_9.jpg' height='90'> <img src='G_7.jpg' height='90'>","null","Animation0","",""
"","","","","","html-keyboard-response","31","168812","0.0-11.0","1","1","2025-01-31 17:37:39","838ec4b49f044157bad9e156c8cbc4a3","84.32.6.90","Mozilla/5.0 (Windows NT 10.0; Win64; x64) AppleWebKit/537.36 (KHTML, like Gecko) Chrome/132.0.0.0 Safari/537.36","WebKit","Chrome","132.0.0.0","Windows","10.0","https://app.prolific.com/","en-US,en;q=0.9","66f93cc8e6f967889ef2e4b6","679cf675428f47411a224827","679d0a5031d7a1b7cc1c6c2f","","null","<img  src='G_5.jpg' height='90'> <img  src='G_1.jpg' height='90'> <img src='G_3.jpg' height='90'> <img src='G_9.jpg' height='90'> <img src='G_7.jpg' height='90'>","null","Animation0","",""
"","","","","","html-keyboard-response","32","169326","0.0-12.0","1","1","2025-01-31 17:37:39","838ec4b49f044157bad9e156c8cbc4a3","84.32.6.90","Mozilla/5.0 (Windows NT 10.0; Win64; x64) AppleWebKit/537.36 (KHTML, like Gecko) Chrome/132.0.0.0 Safari/537.36","WebKit","Chrome","132.0.0.0","Windows","10.0","https://app.prolific.com/","en-US,en;q=0.9","66f93cc8e6f967889ef2e4b6","679cf675428f47411a224827","679d0a5031d7a1b7cc1c6c2f","","null","<img  src='G_5.jpg' height='90'> <img id='selected'  src='G_1.jpg' height='90'> <img src='G_3.jpg' height='90'> <img src='G_9.jpg' height='90'> <img src='G_7.jpg' height='90'>","null","Animation0","",""
"","","","","","html-keyboard-response","33","169842","0.0-13.0","1","1","2025-01-31 17:37:39","838ec4b49f044157bad9e156c8cbc4a3","84.32.6.90","Mozilla/5.0 (Windows NT 10.0; Win64; x64) AppleWebKit/537.36 (KHTML, like Gecko) Chrome/132.0.0.0 Safari/537.36","WebKit","Chrome","132.0.0.0","Windows","10.0","https://app.prolific.com/","en-US,en;q=0.9","66f93cc8e6f967889ef2e4b6","679cf675428f47411a224827","679d0a5031d7a1b7cc1c6c2f","","null","<img  src='G_5.jpg' height='90'> <img id='selected'  src='G_1.jpg' height='90'> <img id='selected' src='G_3.jpg' height='90'> <img src='G_9.jpg' height='90'> <img src='G_7.jpg' height='90'>","null","Animation0","",""
"","","","","","html-keyboard-response","34","170363","0.0-14.0","1","1","2025-01-31 17:37:39","838ec4b49f044157bad9e156c8cbc4a3","84.32.6.90","Mozilla/5.0 (Windows NT 10.0; Win64; x64) AppleWebKit/537.36 (KHTML, like Gecko) Chrome/132.0.0.0 Safari/537.36","WebKit","Chrome","132.0.0.0","Windows","10.0","https://app.prolific.com/","en-US,en;q=0.9","66f93cc8e6f967889ef2e4b6","679cf675428f47411a224827","679d0a5031d7a1b7cc1c6c2f","","null","<img  src='G_5.jpg' height='90'> <img id='selected'  src='G_1.jpg' height='90'> <img id='selected' src='G_3.jpg' height='90'> <img src='G_9.jpg' height='90'> <img src='G_7.jpg' height='90'>","null","Animation0","",""
"","","","","","html-keyboard-response","35","170682","0.0-15.0","1","1","2025-01-31 17:37:39","838ec4b49f044157bad9e156c8cbc4a3","84.32.6.90","Mozilla/5.0 (Windows NT 10.0; Win64; x64) AppleWebKit/537.36 (KHTML, like Gecko) Chrome/132.0.0.0 Safari/537.36","WebKit","Chrome","132.0.0.0","Windows","10.0","https://app.prolific.com/","en-US,en;q=0.9","66f93cc8e6f967889ef2e4b6","679cf675428f47411a224827","679d0a5031d7a1b7cc1c6c2f","","null","<img  src='G_5.jpg' height='90'> <img   src='G_1.jpg' height='90'> <img  src='G_3.jpg' height='90'> <img src='G_9.jpg' height='90'> <img src='G_7.jpg' height='90'>","null","Animation0","",""
"","","","","","html-keyboard-response","36","171200","0.0-16.0","1","1","2025-01-31 17:37:39","838ec4b49f044157bad9e156c8cbc4a3","84.32.6.90","Mozilla/5.0 (Windows NT 10.0; Win64; x64) AppleWebKit/537.36 (KHTML, like Gecko) Chrome/132.0.0.0 Safari/537.36","WebKit","Chrome","132.0.0.0","Windows","10.0","https://app.prolific.com/","en-US,en;q=0.9","66f93cc8e6f967889ef2e4b6","679cf675428f47411a224827","679d0a5031d7a1b7cc1c6c2f","","null","<img  src='G_5.jpg' height='90'> <img   src='G_1.jpg' height='90'> <img id='selected'  src='G_3.jpg' height='90'> <img src='G_9.jpg' height='90'> <img src='G_7.jpg' height='90'>","null","Animation0","",""
"","","","","","html-keyboard-response","37","171716","0.0-17.0","1","1","2025-01-31 17:37:39","838ec4b49f044157bad9e156c8cbc4a3","84.32.6.90","Mozilla/5.0 (Windows NT 10.0; Win64; x64) AppleWebKit/537.36 (KHTML, like Gecko) Chrome/132.0.0.0 Safari/537.36","WebKit","Chrome","132.0.0.0","Windows","10.0","https://app.prolific.com/","en-US,en;q=0.9","66f93cc8e6f967889ef2e4b6","679cf675428f47411a224827","679d0a5031d7a1b7cc1c6c2f","","null","<img  src='G_5.jpg' height='90'> <img   src='G_1.jpg' height='90'> <img id='selected'  src='G_3.jpg' height='90'> <img id='selected' src='G_9.jpg' height='90'> <img src='G_7.jpg' height='90'>","null","Animation0","",""
"","","","","","html-keyboard-response","38","172224","0.0-18.0","1","1","2025-01-31 17:37:39","838ec4b49f044157bad9e156c8cbc4a3","84.32.6.90","Mozilla/5.0 (Windows NT 10.0; Win64; x64) AppleWebKit/537.36 (KHTML, like Gecko) Chrome/132.0.0.0 Safari/537.36","WebKit","Chrome","132.0.0.0","Windows","10.0","https://app.prolific.com/","en-US,en;q=0.9","66f93cc8e6f967889ef2e4b6","679cf675428f47411a224827","679d0a5031d7a1b7cc1c6c2f","","null","<img  src='G_5.jpg' height='90'> <img   src='G_1.jpg' height='90'> <img id='selected'  src='G_3.jpg' height='90'> <img id='selected' src='G_9.jpg' height='90'> <img src='G_7.jpg' height='90'>","null","Animation0","",""
"","","","","","html-keyboard-response","39","172541","0.0-19.0","1","1","2025-01-31 17:37:39","838ec4b49f044157bad9e156c8cbc4a3","84.32.6.90","Mozilla/5.0 (Windows NT 10.0; Win64; x64) AppleWebKit/537.36 (KHTML, like Gecko) Chrome/132.0.0.0 Safari/537.36","WebKit","Chrome","132.0.0.0","Windows","10.0","https://app.prolific.com/","en-US,en;q=0.9","66f93cc8e6f967889ef2e4b6","679cf675428f47411a224827","679d0a5031d7a1b7cc1c6c2f","","null","<img  src='G_5.jpg' height='90'> <img   src='G_1.jpg' height='90'> <img   src='G_3.jpg' height='90'> <img  src='G_9.jpg' height='90'> <img src='G_7.jpg' height='90'>","null","Animation0","",""
"","","","","","html-keyboard-response","40","173060","0.0-20.0","1","1","2025-01-31 17:37:39","838ec4b49f044157bad9e156c8cbc4a3","84.32.6.90","Mozilla/5.0 (Windows NT 10.0; Win64; x64) AppleWebKit/537.36 (KHTML, like Gecko) Chrome/132.0.0.0 Safari/537.36","WebKit","Chrome","132.0.0.0","Windows","10.0","https://app.prolific.com/","en-US,en;q=0.9","66f93cc8e6f967889ef2e4b6","679cf675428f47411a224827","679d0a5031d7a1b7cc1c6c2f","","null","<img  src='G_5.jpg' height='90'> <img   src='G_1.jpg' height='90'> <img   src='G_3.jpg' height='90'> <img id='selected'  src='G_9.jpg' height='90'> <img src='G_7.jpg' height='90'>","null","Animation0","",""
"","","","","","html-keyboard-response","41","173578","0.0-21.0","1","1","2025-01-31 17:37:39","838ec4b49f044157bad9e156c8cbc4a3","84.32.6.90","Mozilla/5.0 (Windows NT 10.0; Win64; x64) AppleWebKit/537.36 (KHTML, like Gecko) Chrome/132.0.0.0 Safari/537.36","WebKit","Chrome","132.0.0.0","Windows","10.0","https://app.prolific.com/","en-US,en;q=0.9","66f93cc8e6f967889ef2e4b6","679cf675428f47411a224827","679d0a5031d7a1b7cc1c6c2f","","null","<img  src='G_5.jpg' height='90'> <img   src='G_1.jpg' height='90'> <img   src='G_3.jpg' height='90'> <img id='selected'  src='G_9.jpg' height='90'> <img id='selected' src='G_7.jpg' height='90'>","null","Animation0","",""
"","","","","","html-keyboard-response","42","174084","0.0-22.0","1","1","2025-01-31 17:37:39","838ec4b49f044157bad9e156c8cbc4a3","84.32.6.90","Mozilla/5.0 (Windows NT 10.0; Win64; x64) AppleWebKit/537.36 (KHTML, like Gecko) Chrome/132.0.0.0 Safari/537.36","WebKit","Chrome","132.0.0.0","Windows","10.0","https://app.prolific.com/","en-US,en;q=0.9","66f93cc8e6f967889ef2e4b6","679cf675428f47411a224827","679d0a5031d7a1b7cc1c6c2f","","null","<img  src='G_5.jpg' height='90'> <img   src='G_1.jpg' height='90'> <img   src='G_3.jpg' height='90'> <img id='selected'  src='G_9.jpg' height='90'> <img id='selected' src='G_7.jpg' height='90'>","null","Animation0","",""
"","","","","","html-keyboard-response","43","174397","0.0-23.0","1","1","2025-01-31 17:37:39","838ec4b49f044157bad9e156c8cbc4a3","84.32.6.90","Mozilla/5.0 (Windows NT 10.0; Win64; x64) AppleWebKit/537.36 (KHTML, like Gecko) Chrome/132.0.0.0 Safari/537.36","WebKit","Chrome","132.0.0.0","Windows","10.0","https://app.prolific.com/","en-US,en;q=0.9","66f93cc8e6f967889ef2e4b6","679cf675428f47411a224827","679d0a5031d7a1b7cc1c6c2f","","null","<img  src='G_5.jpg' height='90'> <img   src='G_1.jpg' height='90'> <img   src='G_3.jpg' height='90'> <img   src='G_9.jpg' height='90'> <img  src='G_7.jpg' height='90'>","null","Animation0","",""
"","","","","","html-keyboard-response","44","180131","0.0-24.0","1","1","2025-01-31 17:37:39","838ec4b49f044157bad9e156c8cbc4a3","84.32.6.90","Mozilla/5.0 (Windows NT 10.0; Win64; x64) AppleWebKit/537.36 (KHTML, like Gecko) Chrome/132.0.0.0 Safari/537.36","WebKit","Chrome","132.0.0.0","Windows","10.0","https://app.prolific.com/","en-US,en;q=0.9","66f93cc8e6f967889ef2e4b6","679cf675428f47411a224827","679d0a5031d7a1b7cc1c6c2f","","5730","[""Did you notice any patterns? <br><br>Press Enter to watch that example again and follow the steps of Omgne Sort.""]","enter","","",""
"","","","","","html-button-response","45","180545","0.0-25.0","1","1","2025-01-31 17:37:39","838ec4b49f044157bad9e156c8cbc4a3","84.32.6.90","Mozilla/5.0 (Windows NT 10.0; Win64; x64) AppleWebKit/537.36 (KHTML, like Gecko) Chrome/132.0.0.0 Safari/537.36","WebKit","Chrome","132.0.0.0","Windows","10.0","https://app.prolific.com/","en-US,en;q=0.9","66f93cc8e6f967889ef2e4b6","679cf675428f47411a224827","679d0a5031d7a1b7cc1c6c2f","","null","<img id='selected' src='G_1.jpg' height='90'> <img src='G_5.jpg' height='90'> <img src='G_3.jpg' height='90'> <img src='G_9.jpg' height='90'> <img src='G_7.jpg' height='90'>","null","Learning example 0","",""
"","","","","","html-button-response","46","180861","0.0-26.0","1","1","2025-01-31 17:37:39","838ec4b49f044157bad9e156c8cbc4a3","84.32.6.90","Mozilla/5.0 (Windows NT 10.0; Win64; x64) AppleWebKit/537.36 (KHTML, like Gecko) Chrome/132.0.0.0 Safari/537.36","WebKit","Chrome","132.0.0.0","Windows","10.0","https://app.prolific.com/","en-US,en;q=0.9","66f93cc8e6f967889ef2e4b6","679cf675428f47411a224827","679d0a5031d7a1b7cc1c6c2f","","null","<img id='selected' src='G_1.jpg' height='90'> <img id='selected' src='G_5.jpg' height='90'> <img src='G_3.jpg' height='90'> <img src='G_9.jpg' height='90'> <img src='G_7.jpg' height='90'>","null","Learning example 0","",""
"","","","","","html-button-response","47","181176","0.0-27.0","1","1","2025-01-31 17:37:39","838ec4b49f044157bad9e156c8cbc4a3","84.32.6.90","Mozilla/5.0 (Windows NT 10.0; Win64; x64) AppleWebKit/537.36 (KHTML, like Gecko) Chrome/132.0.0.0 Safari/537.36","WebKit","Chrome","132.0.0.0","Windows","10.0","https://app.prolific.com/","en-US,en;q=0.9","66f93cc8e6f967889ef2e4b6","679cf675428f47411a224827","679d0a5031d7a1b7cc1c6c2f","","null","<img id='swapped' src='G_5.jpg' height='90'> <img id='swapped' src='G_1.jpg' height='90'> <img src='G_3.jpg' height='90'> <img src='G_9.jpg' height='90'> <img src='G_7.jpg' height='90'>","null","Learning example 0","",""
"","","","","","html-button-response","48","190303","0.0-28.0-0.0-0.0","1","1","2025-01-31 17:37:39","838ec4b49f044157bad9e156c8cbc4a3","84.32.6.90","Mozilla/5.0 (Windows NT 10.0; Win64; x64) AppleWebKit/537.36 (KHTML, like Gecko) Chrome/132.0.0.0 Safari/537.36","WebKit","Chrome","132.0.0.0","Windows","10.0","https://app.prolific.com/","en-US,en;q=0.9","66f93cc8e6f967889ef2e4b6","679cf675428f47411a224827","679d0a5031d7a1b7cc1c6c2f","","9116","<img id='swapped' src='G_5.jpg' height='90'> <img id='swapped' src='G_1.jpg' height='90'> <img src='G_3.jpg' height='90'> <img src='G_9.jpg' height='90'> <img src='G_7.jpg' height='90'>","0","Learning example 0","",""
"","","","","","html-button-response","49","190726","0.0-28.1-0.1-0.1","1","1","2025-01-31 17:37:39","838ec4b49f044157bad9e156c8cbc4a3","84.32.6.90","Mozilla/5.0 (Windows NT 10.0; Win64; x64) AppleWebKit/537.36 (KHTML, like Gecko) Chrome/132.0.0.0 Safari/537.36","WebKit","Chrome","132.0.0.0","Windows","10.0","https://app.prolific.com/","en-US,en;q=0.9","66f93cc8e6f967889ef2e4b6","679cf675428f47411a224827","679d0a5031d7a1b7cc1c6c2f","","414","<img id='swapped' src='G_5.jpg' height='90'> <img id='swapped' src='G_1.jpg' height='90'> <img src='G_3.jpg' height='90'> <img src='G_9.jpg' height='90'> <img src='G_7.jpg' height='90'>","1","Learning example 0","",""
"","","","","","html-button-response","50","190945","0.0-29.0","1","1","2025-01-31 17:37:39","838ec4b49f044157bad9e156c8cbc4a3","84.32.6.90","Mozilla/5.0 (Windows NT 10.0; Win64; x64) AppleWebKit/537.36 (KHTML, like Gecko) Chrome/132.0.0.0 Safari/537.36","WebKit","Chrome","132.0.0.0","Windows","10.0","https://app.prolific.com/","en-US,en;q=0.9","66f93cc8e6f967889ef2e4b6","679cf675428f47411a224827","679d0a5031d7a1b7cc1c6c2f","","null","<img  src='G_5.jpg' height='90'> <img  src='G_1.jpg' height='90'> <img src='G_3.jpg' height='90'> <img src='G_9.jpg' height='90'> <img src='G_7.jpg' height='90'>","null","Learning example 0","",""
"","","","","","html-button-response","51","191367","0.0-30.0","1","1","2025-01-31 17:37:39","838ec4b49f044157bad9e156c8cbc4a3","84.32.6.90","Mozilla/5.0 (Windows NT 10.0; Win64; x64) AppleWebKit/537.36 (KHTML, like Gecko) Chrome/132.0.0.0 Safari/537.36","WebKit","Chrome","132.0.0.0","Windows","10.0","https://app.prolific.com/","en-US,en;q=0.9","66f93cc8e6f967889ef2e4b6","679cf675428f47411a224827","679d0a5031d7a1b7cc1c6c2f","","null","<img  src='G_5.jpg' height='90'> <img id='selected'  src='G_1.jpg' height='90'> <img src='G_3.jpg' height='90'> <img src='G_9.jpg' height='90'> <img src='G_7.jpg' height='90'>","null","Learning example 0","",""
"","","","","","html-button-response","52","191682","0.0-31.0","1","1","2025-01-31 17:37:39","838ec4b49f044157bad9e156c8cbc4a3","84.32.6.90","Mozilla/5.0 (Windows NT 10.0; Win64; x64) AppleWebKit/537.36 (KHTML, like Gecko) Chrome/132.0.0.0 Safari/537.36","WebKit","Chrome","132.0.0.0","Windows","10.0","https://app.prolific.com/","en-US,en;q=0.9","66f93cc8e6f967889ef2e4b6","679cf675428f47411a224827","679d0a5031d7a1b7cc1c6c2f","","null","<img  src='G_5.jpg' height='90'> <img id='selected'  src='G_1.jpg' height='90'> <img id='selected' src='G_3.jpg' height='90'> <img src='G_9.jpg' height='90'> <img src='G_7.jpg' height='90'>","null","Learning example 0","",""
"","","","","","html-button-response","53","191995","0.0-32.0","1","1","2025-01-31 17:37:39","838ec4b49f044157bad9e156c8cbc4a3","84.32.6.90","Mozilla/5.0 (Windows NT 10.0; Win64; x64) AppleWebKit/537.36 (KHTML, like Gecko) Chrome/132.0.0.0 Safari/537.36","WebKit","Chrome","132.0.0.0","Windows","10.0","https://app.prolific.com/","en-US,en;q=0.9","66f93cc8e6f967889ef2e4b6","679cf675428f47411a224827","679d0a5031d7a1b7cc1c6c2f","","null","<img  src='G_5.jpg' height='90'> <img id='selected'  src='G_1.jpg' height='90'> <img id='selected' src='G_3.jpg' height='90'> <img src='G_9.jpg' height='90'> <img src='G_7.jpg' height='90'>","null","Learning example 0","",""
"","","","","","html-button-response","54","194707","0.0-33.0-0.0-0.0","1","1","2025-01-31 17:37:39","838ec4b49f044157bad9e156c8cbc4a3","84.32.6.90","Mozilla/5.0 (Windows NT 10.0; Win64; x64) AppleWebKit/537.36 (KHTML, like Gecko) Chrome/132.0.0.0 Safari/537.36","WebKit","Chrome","132.0.0.0","Windows","10.0","https://app.prolific.com/","en-US,en;q=0.9","66f93cc8e6f967889ef2e4b6","679cf675428f47411a224827","679d0a5031d7a1b7cc1c6c2f","","2703","<img  src='G_5.jpg' height='90'> <img id='selected'  src='G_1.jpg' height='90'> <img id='selected' src='G_3.jpg' height='90'> <img src='G_9.jpg' height='90'> <img src='G_7.jpg' height='90'>","1","Learning example 0","",""
"","","","","","html-button-response","55","195114","0.0-33.1-0.1-0.1","1","1","2025-01-31 17:37:39","838ec4b49f044157bad9e156c8cbc4a3","84.32.6.90","Mozilla/5.0 (Windows NT 10.0; Win64; x64) AppleWebKit/537.36 (KHTML, like Gecko) Chrome/132.0.0.0 Safari/537.36","WebKit","Chrome","132.0.0.0","Windows","10.0","https://app.prolific.com/","en-US,en;q=0.9","66f93cc8e6f967889ef2e4b6","679cf675428f47411a224827","679d0a5031d7a1b7cc1c6c2f","","397","<img  src='G_5.jpg' height='90'> <img id='selected'  src='G_1.jpg' height='90'> <img id='selected' src='G_3.jpg' height='90'> <img src='G_9.jpg' height='90'> <img src='G_7.jpg' height='90'>","2","Learning example 0","",""
"","","","","","html-button-response","56","195331","0.0-34.0","1","1","2025-01-31 17:37:39","838ec4b49f044157bad9e156c8cbc4a3","84.32.6.90","Mozilla/5.0 (Windows NT 10.0; Win64; x64) AppleWebKit/537.36 (KHTML, like Gecko) Chrome/132.0.0.0 Safari/537.36","WebKit","Chrome","132.0.0.0","Windows","10.0","https://app.prolific.com/","en-US,en;q=0.9","66f93cc8e6f967889ef2e4b6","679cf675428f47411a224827","679d0a5031d7a1b7cc1c6c2f","","null","<img  src='G_5.jpg' height='90'> <img   src='G_1.jpg' height='90'> <img  src='G_3.jpg' height='90'> <img src='G_9.jpg' height='90'> <img src='G_7.jpg' height='90'>","null","Learning example 0","",""
"","","","","","html-button-response","57","195752","0.0-35.0","1","1","2025-01-31 17:37:39","838ec4b49f044157bad9e156c8cbc4a3","84.32.6.90","Mozilla/5.0 (Windows NT 10.0; Win64; x64) AppleWebKit/537.36 (KHTML, like Gecko) Chrome/132.0.0.0 Safari/537.36","WebKit","Chrome","132.0.0.0","Windows","10.0","https://app.prolific.com/","en-US,en;q=0.9","66f93cc8e6f967889ef2e4b6","679cf675428f47411a224827","679d0a5031d7a1b7cc1c6c2f","","null","<img  src='G_5.jpg' height='90'> <img   src='G_1.jpg' height='90'> <img id='selected'  src='G_3.jpg' height='90'> <img src='G_9.jpg' height='90'> <img src='G_7.jpg' height='90'>","null","Learning example 0","",""
"","","","","","html-button-response","58","196067","0.0-36.0","1","1","2025-01-31 17:37:39","838ec4b49f044157bad9e156c8cbc4a3","84.32.6.90","Mozilla/5.0 (Windows NT 10.0; Win64; x64) AppleWebKit/537.36 (KHTML, like Gecko) Chrome/132.0.0.0 Safari/537.36","WebKit","Chrome","132.0.0.0","Windows","10.0","https://app.prolific.com/","en-US,en;q=0.9","66f93cc8e6f967889ef2e4b6","679cf675428f47411a224827","679d0a5031d7a1b7cc1c6c2f","","null","<img  src='G_5.jpg' height='90'> <img   src='G_1.jpg' height='90'> <img id='selected'  src='G_3.jpg' height='90'> <img id='selected' src='G_9.jpg' height='90'> <img src='G_7.jpg' height='90'>","null","Learning example 0","",""
"","","","","","html-button-response","59","196380","0.0-37.0","1","1","2025-01-31 17:37:39","838ec4b49f044157bad9e156c8cbc4a3","84.32.6.90","Mozilla/5.0 (Windows NT 10.0; Win64; x64) AppleWebKit/537.36 (KHTML, like Gecko) Chrome/132.0.0.0 Safari/537.36","WebKit","Chrome","132.0.0.0","Windows","10.0","https://app.prolific.com/","en-US,en;q=0.9","66f93cc8e6f967889ef2e4b6","679cf675428f47411a224827","679d0a5031d7a1b7cc1c6c2f","","null","<img  src='G_5.jpg' height='90'> <img   src='G_1.jpg' height='90'> <img id='selected'  src='G_3.jpg' height='90'> <img id='selected' src='G_9.jpg' height='90'> <img src='G_7.jpg' height='90'>","null","Learning example 0","",""
"","","","","","html-button-response","60","197494","0.0-38.0-0.0-0.0","1","1","2025-01-31 17:37:39","838ec4b49f044157bad9e156c8cbc4a3","84.32.6.90","Mozilla/5.0 (Windows NT 10.0; Win64; x64) AppleWebKit/537.36 (KHTML, like Gecko) Chrome/132.0.0.0 Safari/537.36","WebKit","Chrome","132.0.0.0","Windows","10.0","https://app.prolific.com/","en-US,en;q=0.9","66f93cc8e6f967889ef2e4b6","679cf675428f47411a224827","679d0a5031d7a1b7cc1c6c2f","","1104","<img  src='G_5.jpg' height='90'> <img   src='G_1.jpg' height='90'> <img id='selected'  src='G_3.jpg' height='90'> <img id='selected' src='G_9.jpg' height='90'> <img src='G_7.jpg' height='90'>","2","Learning example 0","",""
"","","","","","html-button-response","61","197889","0.0-38.1-0.1-0.1","1","1","2025-01-31 17:37:39","838ec4b49f044157bad9e156c8cbc4a3","84.32.6.90","Mozilla/5.0 (Windows NT 10.0; Win64; x64) AppleWebKit/537.36 (KHTML, like Gecko) Chrome/132.0.0.0 Safari/537.36","WebKit","Chrome","132.0.0.0","Windows","10.0","https://app.prolific.com/","en-US,en;q=0.9","66f93cc8e6f967889ef2e4b6","679cf675428f47411a224827","679d0a5031d7a1b7cc1c6c2f","","384","<img  src='G_5.jpg' height='90'> <img   src='G_1.jpg' height='90'> <img id='selected'  src='G_3.jpg' height='90'> <img id='selected' src='G_9.jpg' height='90'> <img src='G_7.jpg' height='90'>","3","Learning example 0","",""
"","","","","","html-button-response","62","198106","0.0-39.0","1","1","2025-01-31 17:37:39","838ec4b49f044157bad9e156c8cbc4a3","84.32.6.90","Mozilla/5.0 (Windows NT 10.0; Win64; x64) AppleWebKit/537.36 (KHTML, like Gecko) Chrome/132.0.0.0 Safari/537.36","WebKit","Chrome","132.0.0.0","Windows","10.0","https://app.prolific.com/","en-US,en;q=0.9","66f93cc8e6f967889ef2e4b6","679cf675428f47411a224827","679d0a5031d7a1b7cc1c6c2f","","null","<img  src='G_5.jpg' height='90'> <img   src='G_1.jpg' height='90'> <img   src='G_3.jpg' height='90'> <img  src='G_9.jpg' height='90'> <img src='G_7.jpg' height='90'>","null","Learning example 0","",""
"","","","","","html-button-response","63","198527","0.0-40.0","1","1","2025-01-31 17:37:39","838ec4b49f044157bad9e156c8cbc4a3","84.32.6.90","Mozilla/5.0 (Windows NT 10.0; Win64; x64) AppleWebKit/537.36 (KHTML, like Gecko) Chrome/132.0.0.0 Safari/537.36","WebKit","Chrome","132.0.0.0","Windows","10.0","https://app.prolific.com/","en-US,en;q=0.9","66f93cc8e6f967889ef2e4b6","679cf675428f47411a224827","679d0a5031d7a1b7cc1c6c2f","","null","<img  src='G_5.jpg' height='90'> <img   src='G_1.jpg' height='90'> <img   src='G_3.jpg' height='90'> <img id='selected'  src='G_9.jpg' height='90'> <img src='G_7.jpg' height='90'>","null","Learning example 0","",""
"","","","","","html-button-response","64","198839","0.0-41.0","1","1","2025-01-31 17:37:39","838ec4b49f044157bad9e156c8cbc4a3","84.32.6.90","Mozilla/5.0 (Windows NT 10.0; Win64; x64) AppleWebKit/537.36 (KHTML, like Gecko) Chrome/132.0.0.0 Safari/537.36","WebKit","Chrome","132.0.0.0","Windows","10.0","https://app.prolific.com/","en-US,en;q=0.9","66f93cc8e6f967889ef2e4b6","679cf675428f47411a224827","679d0a5031d7a1b7cc1c6c2f","","null","<img  src='G_5.jpg' height='90'> <img   src='G_1.jpg' height='90'> <img   src='G_3.jpg' height='90'> <img id='selected'  src='G_9.jpg' height='90'> <img id='selected' src='G_7.jpg' height='90'>","null","Learning example 0","",""
"","","","","","html-button-response","65","199149","0.0-42.0","1","1","2025-01-31 17:37:39","838ec4b49f044157bad9e156c8cbc4a3","84.32.6.90","Mozilla/5.0 (Windows NT 10.0; Win64; x64) AppleWebKit/537.36 (KHTML, like Gecko) Chrome/132.0.0.0 Safari/537.36","WebKit","Chrome","132.0.0.0","Windows","10.0","https://app.prolific.com/","en-US,en;q=0.9","66f93cc8e6f967889ef2e4b6","679cf675428f47411a224827","679d0a5031d7a1b7cc1c6c2f","","null","<img  src='G_5.jpg' height='90'> <img   src='G_1.jpg' height='90'> <img   src='G_3.jpg' height='90'> <img id='selected'  src='G_9.jpg' height='90'> <img id='selected' src='G_7.jpg' height='90'>","null","Learning example 0","",""
"","","","","","html-button-response","66","200153","0.0-43.0-0.0-0.0","1","1","2025-01-31 17:37:39","838ec4b49f044157bad9e156c8cbc4a3","84.32.6.90","Mozilla/5.0 (Windows NT 10.0; Win64; x64) AppleWebKit/537.36 (KHTML, like Gecko) Chrome/132.0.0.0 Safari/537.36","WebKit","Chrome","132.0.0.0","Windows","10.0","https://app.prolific.com/","en-US,en;q=0.9","66f93cc8e6f967889ef2e4b6","679cf675428f47411a224827","679d0a5031d7a1b7cc1c6c2f","","995","<img  src='G_5.jpg' height='90'> <img   src='G_1.jpg' height='90'> <img   src='G_3.jpg' height='90'> <img id='selected'  src='G_9.jpg' height='90'> <img id='selected' src='G_7.jpg' height='90'>","3","Learning example 0","",""
"","","","","","html-button-response","67","200727","0.0-43.1-0.1-0.1","1","1","2025-01-31 17:37:39","838ec4b49f044157bad9e156c8cbc4a3","84.32.6.90","Mozilla/5.0 (Windows NT 10.0; Win64; x64) AppleWebKit/537.36 (KHTML, like Gecko) Chrome/132.0.0.0 Safari/537.36","WebKit","Chrome","132.0.0.0","Windows","10.0","https://app.prolific.com/","en-US,en;q=0.9","66f93cc8e6f967889ef2e4b6","679cf675428f47411a224827","679d0a5031d7a1b7cc1c6c2f","","560","<img  src='G_5.jpg' height='90'> <img   src='G_1.jpg' height='90'> <img   src='G_3.jpg' height='90'> <img id='selected'  src='G_9.jpg' height='90'> <img id='selected' src='G_7.jpg' height='90'>","4","Learning example 0","",""
"","","","","","html-button-response","68","200945","0.0-44.0","1","1","2025-01-31 17:37:39","838ec4b49f044157bad9e156c8cbc4a3","84.32.6.90","Mozilla/5.0 (Windows NT 10.0; Win64; x64) AppleWebKit/537.36 (KHTML, like Gecko) Chrome/132.0.0.0 Safari/537.36","WebKit","Chrome","132.0.0.0","Windows","10.0","https://app.prolific.com/","en-US,en;q=0.9","66f93cc8e6f967889ef2e4b6","679cf675428f47411a224827","679d0a5031d7a1b7cc1c6c2f","","null","<img  src='G_5.jpg' height='90'> <img   src='G_1.jpg' height='90'> <img   src='G_3.jpg' height='90'> <img   src='G_9.jpg' height='90'> <img  src='G_7.jpg' height='90'>","null","Learning example 0","",""
"","","","","","html-keyboard-response","69","210493","0.0-45.0","1","1","2025-01-31 17:37:39","838ec4b49f044157bad9e156c8cbc4a3","84.32.6.90","Mozilla/5.0 (Windows NT 10.0; Win64; x64) AppleWebKit/537.36 (KHTML, like Gecko) Chrome/132.0.0.0 Safari/537.36","WebKit","Chrome","132.0.0.0","Windows","10.0","https://app.prolific.com/","en-US,en;q=0.9","66f93cc8e6f967889ef2e4b6","679cf675428f47411a224827","679d0a5031d7a1b7cc1c6c2f","","9541","[""Final order was 1,2,3,4,5. The initial order was 2,1,3,4,5.<br>It took 1 swaps to sort it correctly with Omgne Sort. <br><br>Press Enter to continue.""]","enter","","",""
"","","","","","html-keyboard-response","70","212916","0.0-46.0","1","1","2025-01-31 17:37:39","838ec4b49f044157bad9e156c8cbc4a3","84.32.6.90","Mozilla/5.0 (Windows NT 10.0; Win64; x64) AppleWebKit/537.36 (KHTML, like Gecko) Chrome/132.0.0.0 Safari/537.36","WebKit","Chrome","132.0.0.0","Windows","10.0","https://app.prolific.com/","en-US,en;q=0.9","66f93cc8e6f967889ef2e4b6","679cf675428f47411a224827","679d0a5031d7a1b7cc1c6c2f","","2420","[""Example 2<br><br>You will watch Omnge Sort in action. Try to identify any patterns in the comparisons made by this method. <br><br>Press Enter to continue.""]","enter","","",""
"","","","","","html-keyboard-response","71","213436","0.0-47.0","1","1","2025-01-31 17:37:39","838ec4b49f044157bad9e156c8cbc4a3","84.32.6.90","Mozilla/5.0 (Windows NT 10.0; Win64; x64) AppleWebKit/537.36 (KHTML, like Gecko) Chrome/132.0.0.0 Safari/537.36","WebKit","Chrome","132.0.0.0","Windows","10.0","https://app.prolific.com/","en-US,en;q=0.9","66f93cc8e6f967889ef2e4b6","679cf675428f47411a224827","679d0a5031d7a1b7cc1c6c2f","","null","<img id='selected' src='G_5.jpg' height='90'> <img src='G_2.jpg' height='90'> <img src='G_6.jpg' height='90'> <img src='G_7.jpg' height='90'> <img src='G_8.jpg' height='90'> <img src='G_4.jpg' height='90'> <img src='G_3.jpg' height='90'> <img src='G_1.jpg' height='90'>","null","Animation1","",""
"","","","","","html-keyboard-response","72","213952","0.0-48.0","1","1","2025-01-31 17:37:39","838ec4b49f044157bad9e156c8cbc4a3","84.32.6.90","Mozilla/5.0 (Windows NT 10.0; Win64; x64) AppleWebKit/537.36 (KHTML, like Gecko) Chrome/132.0.0.0 Safari/537.36","WebKit","Chrome","132.0.0.0","Windows","10.0","https://app.prolific.com/","en-US,en;q=0.9","66f93cc8e6f967889ef2e4b6","679cf675428f47411a224827","679d0a5031d7a1b7cc1c6c2f","","null","<img id='selected' src='G_5.jpg' height='90'> <img id='selected' src='G_2.jpg' height='90'> <img src='G_6.jpg' height='90'> <img src='G_7.jpg' height='90'> <img src='G_8.jpg' height='90'> <img src='G_4.jpg' height='90'> <img src='G_3.jpg' height='90'> <img src='G_1.jpg' height='90'>","null","Animation1","",""
"","","","","","html-keyboard-response","73","214467","0.0-49.0","1","1","2025-01-31 17:37:39","838ec4b49f044157bad9e156c8cbc4a3","84.32.6.90","Mozilla/5.0 (Windows NT 10.0; Win64; x64) AppleWebKit/537.36 (KHTML, like Gecko) Chrome/132.0.0.0 Safari/537.36","WebKit","Chrome","132.0.0.0","Windows","10.0","https://app.prolific.com/","en-US,en;q=0.9","66f93cc8e6f967889ef2e4b6","679cf675428f47411a224827","679d0a5031d7a1b7cc1c6c2f","","null","<img id='selected' src='G_5.jpg' height='90'> <img id='selected' src='G_2.jpg' height='90'> <img src='G_6.jpg' height='90'> <img src='G_7.jpg' height='90'> <img src='G_8.jpg' height='90'> <img src='G_4.jpg' height='90'> <img src='G_3.jpg' height='90'> <img src='G_1.jpg' height='90'>","null","Animation1","",""
"","","","","","html-keyboard-response","74","214784","0.0-50.0","1","1","2025-01-31 17:37:39","838ec4b49f044157bad9e156c8cbc4a3","84.32.6.90","Mozilla/5.0 (Windows NT 10.0; Win64; x64) AppleWebKit/537.36 (KHTML, like Gecko) Chrome/132.0.0.0 Safari/537.36","WebKit","Chrome","132.0.0.0","Windows","10.0","https://app.prolific.com/","en-US,en;q=0.9","66f93cc8e6f967889ef2e4b6","679cf675428f47411a224827","679d0a5031d7a1b7cc1c6c2f","","null","<img  src='G_5.jpg' height='90'> <img  src='G_2.jpg' height='90'> <img src='G_6.jpg' height='90'> <img src='G_7.jpg' height='90'> <img src='G_8.jpg' height='90'> <img src='G_4.jpg' height='90'> <img src='G_3.jpg' height='90'> <img src='G_1.jpg' height='90'>","null","Animation1","",""
"","","","","","html-keyboard-response","75","215305","0.0-51.0","1","1","2025-01-31 17:37:39","838ec4b49f044157bad9e156c8cbc4a3","84.32.6.90","Mozilla/5.0 (Windows NT 10.0; Win64; x64) AppleWebKit/537.36 (KHTML, like Gecko) Chrome/132.0.0.0 Safari/537.36","WebKit","Chrome","132.0.0.0","Windows","10.0","https://app.prolific.com/","en-US,en;q=0.9","66f93cc8e6f967889ef2e4b6","679cf675428f47411a224827","679d0a5031d7a1b7cc1c6c2f","","null","<img  src='G_5.jpg' height='90'> <img id='selected'  src='G_2.jpg' height='90'> <img src='G_6.jpg' height='90'> <img src='G_7.jpg' height='90'> <img src='G_8.jpg' height='90'> <img src='G_4.jpg' height='90'> <img src='G_3.jpg' height='90'> <img src='G_1.jpg' height='90'>","null","Animation1","",""
"","","","","","html-keyboard-response","76","215811","0.0-52.0","1","1","2025-01-31 17:37:39","838ec4b49f044157bad9e156c8cbc4a3","84.32.6.90","Mozilla/5.0 (Windows NT 10.0; Win64; x64) AppleWebKit/537.36 (KHTML, like Gecko) Chrome/132.0.0.0 Safari/537.36","WebKit","Chrome","132.0.0.0","Windows","10.0","https://app.prolific.com/","en-US,en;q=0.9","66f93cc8e6f967889ef2e4b6","679cf675428f47411a224827","679d0a5031d7a1b7cc1c6c2f","","null","<img  src='G_5.jpg' height='90'> <img id='selected'  src='G_2.jpg' height='90'> <img id='selected' src='G_6.jpg' height='90'> <img src='G_7.jpg' height='90'> <img src='G_8.jpg' height='90'> <img src='G_4.jpg' height='90'> <img src='G_3.jpg' height='90'> <img src='G_1.jpg' height='90'>","null","Animation1","",""
"","","","","","html-keyboard-response","77","216327","0.0-53.0","1","1","2025-01-31 17:37:39","838ec4b49f044157bad9e156c8cbc4a3","84.32.6.90","Mozilla/5.0 (Windows NT 10.0; Win64; x64) AppleWebKit/537.36 (KHTML, like Gecko) Chrome/132.0.0.0 Safari/537.36","WebKit","Chrome","132.0.0.0","Windows","10.0","https://app.prolific.com/","en-US,en;q=0.9","66f93cc8e6f967889ef2e4b6","679cf675428f47411a224827","679d0a5031d7a1b7cc1c6c2f","","null","<img  src='G_5.jpg' height='90'> <img id='swapped' src='G_6.jpg' height='90'> <img id='swapped'  src='G_2.jpg' height='90'> <img src='G_7.jpg' height='90'> <img src='G_8.jpg' height='90'> <img src='G_4.jpg' height='90'> <img src='G_3.jpg' height='90'> <img src='G_1.jpg' height='90'>","null","Animation1","",""
"","","","","","html-keyboard-response","78","216641","0.0-54.0","1","1","2025-01-31 17:37:39","838ec4b49f044157bad9e156c8cbc4a3","84.32.6.90","Mozilla/5.0 (Windows NT 10.0; Win64; x64) AppleWebKit/537.36 (KHTML, like Gecko) Chrome/132.0.0.0 Safari/537.36","WebKit","Chrome","132.0.0.0","Windows","10.0","https://app.prolific.com/","en-US,en;q=0.9","66f93cc8e6f967889ef2e4b6","679cf675428f47411a224827","679d0a5031d7a1b7cc1c6c2f","","null","<img  src='G_5.jpg' height='90'> <img  src='G_6.jpg' height='90'> <img   src='G_2.jpg' height='90'> <img src='G_7.jpg' height='90'> <img src='G_8.jpg' height='90'> <img src='G_4.jpg' height='90'> <img src='G_3.jpg' height='90'> <img src='G_1.jpg' height='90'>","null","Animation1","",""
"","","","","","html-keyboard-response","79","217161","0.0-55.0","1","1","2025-01-31 17:37:39","838ec4b49f044157bad9e156c8cbc4a3","84.32.6.90","Mozilla/5.0 (Windows NT 10.0; Win64; x64) AppleWebKit/537.36 (KHTML, like Gecko) Chrome/132.0.0.0 Safari/537.36","WebKit","Chrome","132.0.0.0","Windows","10.0","https://app.prolific.com/","en-US,en;q=0.9","66f93cc8e6f967889ef2e4b6","679cf675428f47411a224827","679d0a5031d7a1b7cc1c6c2f","","null","<img id='selected'  src='G_5.jpg' height='90'> <img  src='G_6.jpg' height='90'> <img   src='G_2.jpg' height='90'> <img src='G_7.jpg' height='90'> <img src='G_8.jpg' height='90'> <img src='G_4.jpg' height='90'> <img src='G_3.jpg' height='90'> <img src='G_1.jpg' height='90'>","null","Animation1","",""
"","","","","","html-keyboard-response","80","217680","0.0-56.0","1","1","2025-01-31 17:37:39","838ec4b49f044157bad9e156c8cbc4a3","84.32.6.90","Mozilla/5.0 (Windows NT 10.0; Win64; x64) AppleWebKit/537.36 (KHTML, like Gecko) Chrome/132.0.0.0 Safari/537.36","WebKit","Chrome","132.0.0.0","Windows","10.0","https://app.prolific.com/","en-US,en;q=0.9","66f93cc8e6f967889ef2e4b6","679cf675428f47411a224827","679d0a5031d7a1b7cc1c6c2f","","null","<img id='selected'  src='G_5.jpg' height='90'> <img id='selected'  src='G_6.jpg' height='90'> <img   src='G_2.jpg' height='90'> <img src='G_7.jpg' height='90'> <img src='G_8.jpg' height='90'> <img src='G_4.jpg' height='90'> <img src='G_3.jpg' height='90'> <img src='G_1.jpg' height='90'>","null","Animation1","",""
"","","","","","html-keyboard-response","81","218198","0.0-57.0","1","1","2025-01-31 17:37:39","838ec4b49f044157bad9e156c8cbc4a3","84.32.6.90","Mozilla/5.0 (Windows NT 10.0; Win64; x64) AppleWebKit/537.36 (KHTML, like Gecko) Chrome/132.0.0.0 Safari/537.36","WebKit","Chrome","132.0.0.0","Windows","10.0","https://app.prolific.com/","en-US,en;q=0.9","66f93cc8e6f967889ef2e4b6","679cf675428f47411a224827","679d0a5031d7a1b7cc1c6c2f","","null","<img id='swapped'  src='G_6.jpg' height='90'> <img id='swapped'  src='G_5.jpg' height='90'> <img   src='G_2.jpg' height='90'> <img src='G_7.jpg' height='90'> <img src='G_8.jpg' height='90'> <img src='G_4.jpg' height='90'> <img src='G_3.jpg' height='90'> <img src='G_1.jpg' height='90'>","null","Animation1","",""
"","","","","","html-keyboard-response","82","218508","0.0-58.0","1","1","2025-01-31 17:37:39","838ec4b49f044157bad9e156c8cbc4a3","84.32.6.90","Mozilla/5.0 (Windows NT 10.0; Win64; x64) AppleWebKit/537.36 (KHTML, like Gecko) Chrome/132.0.0.0 Safari/537.36","WebKit","Chrome","132.0.0.0","Windows","10.0","https://app.prolific.com/","en-US,en;q=0.9","66f93cc8e6f967889ef2e4b6","679cf675428f47411a224827","679d0a5031d7a1b7cc1c6c2f","","null","<img   src='G_6.jpg' height='90'> <img   src='G_5.jpg' height='90'> <img   src='G_2.jpg' height='90'> <img src='G_7.jpg' height='90'> <img src='G_8.jpg' height='90'> <img src='G_4.jpg' height='90'> <img src='G_3.jpg' height='90'> <img src='G_1.jpg' height='90'>","null","Animation1","",""
"","","","","","html-keyboard-response","83","219032","0.0-59.0","1","1","2025-01-31 17:37:39","838ec4b49f044157bad9e156c8cbc4a3","84.32.6.90","Mozilla/5.0 (Windows NT 10.0; Win64; x64) AppleWebKit/537.36 (KHTML, like Gecko) Chrome/132.0.0.0 Safari/537.36","WebKit","Chrome","132.0.0.0","Windows","10.0","https://app.prolific.com/","en-US,en;q=0.9","66f93cc8e6f967889ef2e4b6","679cf675428f47411a224827","679d0a5031d7a1b7cc1c6c2f","","null","<img   src='G_6.jpg' height='90'> <img   src='G_5.jpg' height='90'> <img id='selected'   src='G_2.jpg' height='90'> <img src='G_7.jpg' height='90'> <img src='G_8.jpg' height='90'> <img src='G_4.jpg' height='90'> <img src='G_3.jpg' height='90'> <img src='G_1.jpg' height='90'>","null","Animation1","",""
"","","","","","html-keyboard-response","84","219549","0.0-60.0","1","1","2025-01-31 17:37:39","838ec4b49f044157bad9e156c8cbc4a3","84.32.6.90","Mozilla/5.0 (Windows NT 10.0; Win64; x64) AppleWebKit/537.36 (KHTML, like Gecko) Chrome/132.0.0.0 Safari/537.36","WebKit","Chrome","132.0.0.0","Windows","10.0","https://app.prolific.com/","en-US,en;q=0.9","66f93cc8e6f967889ef2e4b6","679cf675428f47411a224827","679d0a5031d7a1b7cc1c6c2f","","null","<img   src='G_6.jpg' height='90'> <img   src='G_5.jpg' height='90'> <img id='selected'   src='G_2.jpg' height='90'> <img id='selected' src='G_7.jpg' height='90'> <img src='G_8.jpg' height='90'> <img src='G_4.jpg' height='90'> <img src='G_3.jpg' height='90'> <img src='G_1.jpg' height='90'>","null","Animation1","",""
"","","","","","html-keyboard-response","85","220065","0.0-61.0","1","1","2025-01-31 17:37:39","838ec4b49f044157bad9e156c8cbc4a3","84.32.6.90","Mozilla/5.0 (Windows NT 10.0; Win64; x64) AppleWebKit/537.36 (KHTML, like Gecko) Chrome/132.0.0.0 Safari/537.36","WebKit","Chrome","132.0.0.0","Windows","10.0","https://app.prolific.com/","en-US,en;q=0.9","66f93cc8e6f967889ef2e4b6","679cf675428f47411a224827","679d0a5031d7a1b7cc1c6c2f","","null","<img   src='G_6.jpg' height='90'> <img   src='G_5.jpg' height='90'> <img id='swapped' src='G_7.jpg' height='90'> <img id='swapped'   src='G_2.jpg' height='90'> <img src='G_8.jpg' height='90'> <img src='G_4.jpg' height='90'> <img src='G_3.jpg' height='90'> <img src='G_1.jpg' height='90'>","null","Animation1","",""
"","","","","","html-keyboard-response","86","220375","0.0-62.0","1","1","2025-01-31 17:37:39","838ec4b49f044157bad9e156c8cbc4a3","84.32.6.90","Mozilla/5.0 (Windows NT 10.0; Win64; x64) AppleWebKit/537.36 (KHTML, like Gecko) Chrome/132.0.0.0 Safari/537.36","WebKit","Chrome","132.0.0.0","Windows","10.0","https://app.prolific.com/","en-US,en;q=0.9","66f93cc8e6f967889ef2e4b6","679cf675428f47411a224827","679d0a5031d7a1b7cc1c6c2f","","null","<img   src='G_6.jpg' height='90'> <img   src='G_5.jpg' height='90'> <img  src='G_7.jpg' height='90'> <img    src='G_2.jpg' height='90'> <img src='G_8.jpg' height='90'> <img src='G_4.jpg' height='90'> <img src='G_3.jpg' height='90'> <img src='G_1.jpg' height='90'>","null","Animation1","",""
"","","","","","html-keyboard-response","87","220885","0.0-63.0","1","1","2025-01-31 17:37:39","838ec4b49f044157bad9e156c8cbc4a3","84.32.6.90","Mozilla/5.0 (Windows NT 10.0; Win64; x64) AppleWebKit/537.36 (KHTML, like Gecko) Chrome/132.0.0.0 Safari/537.36","WebKit","Chrome","132.0.0.0","Windows","10.0","https://app.prolific.com/","en-US,en;q=0.9","66f93cc8e6f967889ef2e4b6","679cf675428f47411a224827","679d0a5031d7a1b7cc1c6c2f","","null","<img   src='G_6.jpg' height='90'> <img id='selected'   src='G_5.jpg' height='90'> <img  src='G_7.jpg' height='90'> <img    src='G_2.jpg' height='90'> <img src='G_8.jpg' height='90'> <img src='G_4.jpg' height='90'> <img src='G_3.jpg' height='90'> <img src='G_1.jpg' height='90'>","null","Animation1","",""
"","","","","","html-keyboard-response","88","221410","0.0-64.0","1","1","2025-01-31 17:37:39","838ec4b49f044157bad9e156c8cbc4a3","84.32.6.90","Mozilla/5.0 (Windows NT 10.0; Win64; x64) AppleWebKit/537.36 (KHTML, like Gecko) Chrome/132.0.0.0 Safari/537.36","WebKit","Chrome","132.0.0.0","Windows","10.0","https://app.prolific.com/","en-US,en;q=0.9","66f93cc8e6f967889ef2e4b6","679cf675428f47411a224827","679d0a5031d7a1b7cc1c6c2f","","null","<img   src='G_6.jpg' height='90'> <img id='selected'   src='G_5.jpg' height='90'> <img id='selected'  src='G_7.jpg' height='90'> <img    src='G_2.jpg' height='90'> <img src='G_8.jpg' height='90'> <img src='G_4.jpg' height='90'> <img src='G_3.jpg' height='90'> <img src='G_1.jpg' height='90'>","null","Animation1","",""
"","","","","","html-keyboard-response","89","221930","0.0-65.0","1","1","2025-01-31 17:37:39","838ec4b49f044157bad9e156c8cbc4a3","84.32.6.90","Mozilla/5.0 (Windows NT 10.0; Win64; x64) AppleWebKit/537.36 (KHTML, like Gecko) Chrome/132.0.0.0 Safari/537.36","WebKit","Chrome","132.0.0.0","Windows","10.0","https://app.prolific.com/","en-US,en;q=0.9","66f93cc8e6f967889ef2e4b6","679cf675428f47411a224827","679d0a5031d7a1b7cc1c6c2f","","null","<img   src='G_6.jpg' height='90'> <img id='swapped'  src='G_7.jpg' height='90'> <img id='swapped'   src='G_5.jpg' height='90'> <img    src='G_2.jpg' height='90'> <img src='G_8.jpg' height='90'> <img src='G_4.jpg' height='90'> <img src='G_3.jpg' height='90'> <img src='G_1.jpg' height='90'>","null","Animation1","",""
"","","","","","html-keyboard-response","90","222244","0.0-66.0","1","1","2025-01-31 17:37:39","838ec4b49f044157bad9e156c8cbc4a3","84.32.6.90","Mozilla/5.0 (Windows NT 10.0; Win64; x64) AppleWebKit/537.36 (KHTML, like Gecko) Chrome/132.0.0.0 Safari/537.36","WebKit","Chrome","132.0.0.0","Windows","10.0","https://app.prolific.com/","en-US,en;q=0.9","66f93cc8e6f967889ef2e4b6","679cf675428f47411a224827","679d0a5031d7a1b7cc1c6c2f","","null","<img   src='G_6.jpg' height='90'> <img   src='G_7.jpg' height='90'> <img    src='G_5.jpg' height='90'> <img    src='G_2.jpg' height='90'> <img src='G_8.jpg' height='90'> <img src='G_4.jpg' height='90'> <img src='G_3.jpg' height='90'> <img src='G_1.jpg' height='90'>","null","Animation1","",""
"","","","","","html-keyboard-response","91","222763","0.0-67.0","1","1","2025-01-31 17:37:39","838ec4b49f044157bad9e156c8cbc4a3","84.32.6.90","Mozilla/5.0 (Windows NT 10.0; Win64; x64) AppleWebKit/537.36 (KHTML, like Gecko) Chrome/132.0.0.0 Safari/537.36","WebKit","Chrome","132.0.0.0","Windows","10.0","https://app.prolific.com/","en-US,en;q=0.9","66f93cc8e6f967889ef2e4b6","679cf675428f47411a224827","679d0a5031d7a1b7cc1c6c2f","","null","<img id='selected'   src='G_6.jpg' height='90'> <img   src='G_7.jpg' height='90'> <img    src='G_5.jpg' height='90'> <img    src='G_2.jpg' height='90'> <img src='G_8.jpg' height='90'> <img src='G_4.jpg' height='90'> <img src='G_3.jpg' height='90'> <img src='G_1.jpg' height='90'>","null","Animation1","",""
"","","","","","html-keyboard-response","92","223282","0.0-68.0","1","1","2025-01-31 17:37:39","838ec4b49f044157bad9e156c8cbc4a3","84.32.6.90","Mozilla/5.0 (Windows NT 10.0; Win64; x64) AppleWebKit/537.36 (KHTML, like Gecko) Chrome/132.0.0.0 Safari/537.36","WebKit","Chrome","132.0.0.0","Windows","10.0","https://app.prolific.com/","en-US,en;q=0.9","66f93cc8e6f967889ef2e4b6","679cf675428f47411a224827","679d0a5031d7a1b7cc1c6c2f","","null","<img id='selected'   src='G_6.jpg' height='90'> <img id='selected'   src='G_7.jpg' height='90'> <img    src='G_5.jpg' height='90'> <img    src='G_2.jpg' height='90'> <img src='G_8.jpg' height='90'> <img src='G_4.jpg' height='90'> <img src='G_3.jpg' height='90'> <img src='G_1.jpg' height='90'>","null","Animation1","",""
"","","","","","html-keyboard-response","93","223804","0.0-69.0","1","1","2025-01-31 17:37:39","838ec4b49f044157bad9e156c8cbc4a3","84.32.6.90","Mozilla/5.0 (Windows NT 10.0; Win64; x64) AppleWebKit/537.36 (KHTML, like Gecko) Chrome/132.0.0.0 Safari/537.36","WebKit","Chrome","132.0.0.0","Windows","10.0","https://app.prolific.com/","en-US,en;q=0.9","66f93cc8e6f967889ef2e4b6","679cf675428f47411a224827","679d0a5031d7a1b7cc1c6c2f","","null","<img id='swapped'   src='G_7.jpg' height='90'> <img id='swapped'   src='G_6.jpg' height='90'> <img    src='G_5.jpg' height='90'> <img    src='G_2.jpg' height='90'> <img src='G_8.jpg' height='90'> <img src='G_4.jpg' height='90'> <img src='G_3.jpg' height='90'> <img src='G_1.jpg' height='90'>","null","Animation1","",""
"","","","","","html-keyboard-response","94","224119","0.0-70.0","1","1","2025-01-31 17:37:39","838ec4b49f044157bad9e156c8cbc4a3","84.32.6.90","Mozilla/5.0 (Windows NT 10.0; Win64; x64) AppleWebKit/537.36 (KHTML, like Gecko) Chrome/132.0.0.0 Safari/537.36","WebKit","Chrome","132.0.0.0","Windows","10.0","https://app.prolific.com/","en-US,en;q=0.9","66f93cc8e6f967889ef2e4b6","679cf675428f47411a224827","679d0a5031d7a1b7cc1c6c2f","","null","<img    src='G_7.jpg' height='90'> <img    src='G_6.jpg' height='90'> <img    src='G_5.jpg' height='90'> <img    src='G_2.jpg' height='90'> <img src='G_8.jpg' height='90'> <img src='G_4.jpg' height='90'> <img src='G_3.jpg' height='90'> <img src='G_1.jpg' height='90'>","null","Animation1","",""
"","","","","","html-keyboard-response","95","224635","0.0-71.0","1","1","2025-01-31 17:37:39","838ec4b49f044157bad9e156c8cbc4a3","84.32.6.90","Mozilla/5.0 (Windows NT 10.0; Win64; x64) AppleWebKit/537.36 (KHTML, like Gecko) Chrome/132.0.0.0 Safari/537.36","WebKit","Chrome","132.0.0.0","Windows","10.0","https://app.prolific.com/","en-US,en;q=0.9","66f93cc8e6f967889ef2e4b6","679cf675428f47411a224827","679d0a5031d7a1b7cc1c6c2f","","null","<img    src='G_7.jpg' height='90'> <img    src='G_6.jpg' height='90'> <img    src='G_5.jpg' height='90'> <img id='selected'    src='G_2.jpg' height='90'> <img src='G_8.jpg' height='90'> <img src='G_4.jpg' height='90'> <img src='G_3.jpg' height='90'> <img src='G_1.jpg' height='90'>","null","Animation1","",""
"","","","","","html-keyboard-response","96","225152","0.0-72.0","1","1","2025-01-31 17:37:39","838ec4b49f044157bad9e156c8cbc4a3","84.32.6.90","Mozilla/5.0 (Windows NT 10.0; Win64; x64) AppleWebKit/537.36 (KHTML, like Gecko) Chrome/132.0.0.0 Safari/537.36","WebKit","Chrome","132.0.0.0","Windows","10.0","https://app.prolific.com/","en-US,en;q=0.9","66f93cc8e6f967889ef2e4b6","679cf675428f47411a224827","679d0a5031d7a1b7cc1c6c2f","","null","<img    src='G_7.jpg' height='90'> <img    src='G_6.jpg' height='90'> <img    src='G_5.jpg' height='90'> <img id='selected'    src='G_2.jpg' height='90'> <img id='selected' src='G_8.jpg' height='90'> <img src='G_4.jpg' height='90'> <img src='G_3.jpg' height='90'> <img src='G_1.jpg' height='90'>","null","Animation1","",""
"","","","","","html-keyboard-response","97","225664","0.0-73.0","1","1","2025-01-31 17:37:39","838ec4b49f044157bad9e156c8cbc4a3","84.32.6.90","Mozilla/5.0 (Windows NT 10.0; Win64; x64) AppleWebKit/537.36 (KHTML, like Gecko) Chrome/132.0.0.0 Safari/537.36","WebKit","Chrome","132.0.0.0","Windows","10.0","https://app.prolific.com/","en-US,en;q=0.9","66f93cc8e6f967889ef2e4b6","679cf675428f47411a224827","679d0a5031d7a1b7cc1c6c2f","","null","<img    src='G_7.jpg' height='90'> <img    src='G_6.jpg' height='90'> <img    src='G_5.jpg' height='90'> <img id='swapped' src='G_8.jpg' height='90'> <img id='swapped'    src='G_2.jpg' height='90'> <img src='G_4.jpg' height='90'> <img src='G_3.jpg' height='90'> <img src='G_1.jpg' height='90'>","null","Animation1","",""
"","","","","","html-keyboard-response","98","225978","0.0-74.0","1","1","2025-01-31 17:37:39","838ec4b49f044157bad9e156c8cbc4a3","84.32.6.90","Mozilla/5.0 (Windows NT 10.0; Win64; x64) AppleWebKit/537.36 (KHTML, like Gecko) Chrome/132.0.0.0 Safari/537.36","WebKit","Chrome","132.0.0.0","Windows","10.0","https://app.prolific.com/","en-US,en;q=0.9","66f93cc8e6f967889ef2e4b6","679cf675428f47411a224827","679d0a5031d7a1b7cc1c6c2f","","null","<img    src='G_7.jpg' height='90'> <img    src='G_6.jpg' height='90'> <img    src='G_5.jpg' height='90'> <img  src='G_8.jpg' height='90'> <img     src='G_2.jpg' height='90'> <img src='G_4.jpg' height='90'> <img src='G_3.jpg' height='90'> <img src='G_1.jpg' height='90'>","null","Animation1","",""
"","","","","","html-keyboard-response","99","226504","0.0-75.0","1","1","2025-01-31 17:37:39","838ec4b49f044157bad9e156c8cbc4a3","84.32.6.90","Mozilla/5.0 (Windows NT 10.0; Win64; x64) AppleWebKit/537.36 (KHTML, like Gecko) Chrome/132.0.0.0 Safari/537.36","WebKit","Chrome","132.0.0.0","Windows","10.0","https://app.prolific.com/","en-US,en;q=0.9","66f93cc8e6f967889ef2e4b6","679cf675428f47411a224827","679d0a5031d7a1b7cc1c6c2f","","null","<img    src='G_7.jpg' height='90'> <img    src='G_6.jpg' height='90'> <img id='selected'    src='G_5.jpg' height='90'> <img  src='G_8.jpg' height='90'> <img     src='G_2.jpg' height='90'> <img src='G_4.jpg' height='90'> <img src='G_3.jpg' height='90'> <img src='G_1.jpg' height='90'>","null","Animation1","",""
"","","","","","html-keyboard-response","100","227019","0.0-76.0","1","1","2025-01-31 17:37:39","838ec4b49f044157bad9e156c8cbc4a3","84.32.6.90","Mozilla/5.0 (Windows NT 10.0; Win64; x64) AppleWebKit/537.36 (KHTML, like Gecko) Chrome/132.0.0.0 Safari/537.36","WebKit","Chrome","132.0.0.0","Windows","10.0","https://app.prolific.com/","en-US,en;q=0.9","66f93cc8e6f967889ef2e4b6","679cf675428f47411a224827","679d0a5031d7a1b7cc1c6c2f","","null","<img    src='G_7.jpg' height='90'> <img    src='G_6.jpg' height='90'> <img id='selected'    src='G_5.jpg' height='90'> <img id='selected'  src='G_8.jpg' height='90'> <img     src='G_2.jpg' height='90'> <img src='G_4.jpg' height='90'> <img src='G_3.jpg' height='90'> <img src='G_1.jpg' height='90'>","null","Animation1","",""
"","","","","","html-keyboard-response","101","227544","0.0-77.0","1","1","2025-01-31 17:37:39","838ec4b49f044157bad9e156c8cbc4a3","84.32.6.90","Mozilla/5.0 (Windows NT 10.0; Win64; x64) AppleWebKit/537.36 (KHTML, like Gecko) Chrome/132.0.0.0 Safari/537.36","WebKit","Chrome","132.0.0.0","Windows","10.0","https://app.prolific.com/","en-US,en;q=0.9","66f93cc8e6f967889ef2e4b6","679cf675428f47411a224827","679d0a5031d7a1b7cc1c6c2f","","null","<img    src='G_7.jpg' height='90'> <img    src='G_6.jpg' height='90'> <img id='swapped'  src='G_8.jpg' height='90'> <img id='swapped'    src='G_5.jpg' height='90'> <img     src='G_2.jpg' height='90'> <img src='G_4.jpg' height='90'> <img src='G_3.jpg' height='90'> <img src='G_1.jpg' height='90'>","null","Animation1","",""
"","","","","","html-keyboard-response","102","227861","0.0-78.0","1","1","2025-01-31 17:37:39","838ec4b49f044157bad9e156c8cbc4a3","84.32.6.90","Mozilla/5.0 (Windows NT 10.0; Win64; x64) AppleWebKit/537.36 (KHTML, like Gecko) Chrome/132.0.0.0 Safari/537.36","WebKit","Chrome","132.0.0.0","Windows","10.0","https://app.prolific.com/","en-US,en;q=0.9","66f93cc8e6f967889ef2e4b6","679cf675428f47411a224827","679d0a5031d7a1b7cc1c6c2f","","null","<img    src='G_7.jpg' height='90'> <img    src='G_6.jpg' height='90'> <img   src='G_8.jpg' height='90'> <img     src='G_5.jpg' height='90'> <img     src='G_2.jpg' height='90'> <img src='G_4.jpg' height='90'> <img src='G_3.jpg' height='90'> <img src='G_1.jpg' height='90'>","null","Animation1","",""
"","","","","","html-keyboard-response","103","228380","0.0-79.0","1","1","2025-01-31 17:37:39","838ec4b49f044157bad9e156c8cbc4a3","84.32.6.90","Mozilla/5.0 (Windows NT 10.0; Win64; x64) AppleWebKit/537.36 (KHTML, like Gecko) Chrome/132.0.0.0 Safari/537.36","WebKit","Chrome","132.0.0.0","Windows","10.0","https://app.prolific.com/","en-US,en;q=0.9","66f93cc8e6f967889ef2e4b6","679cf675428f47411a224827","679d0a5031d7a1b7cc1c6c2f","","null","<img    src='G_7.jpg' height='90'> <img id='selected'    src='G_6.jpg' height='90'> <img   src='G_8.jpg' height='90'> <img     src='G_5.jpg' height='90'> <img     src='G_2.jpg' height='90'> <img src='G_4.jpg' height='90'> <img src='G_3.jpg' height='90'> <img src='G_1.jpg' height='90'>","null","Animation1","",""
"","","","","","html-keyboard-response","104","228899","0.0-80.0","1","1","2025-01-31 17:37:39","838ec4b49f044157bad9e156c8cbc4a3","84.32.6.90","Mozilla/5.0 (Windows NT 10.0; Win64; x64) AppleWebKit/537.36 (KHTML, like Gecko) Chrome/132.0.0.0 Safari/537.36","WebKit","Chrome","132.0.0.0","Windows","10.0","https://app.prolific.com/","en-US,en;q=0.9","66f93cc8e6f967889ef2e4b6","679cf675428f47411a224827","679d0a5031d7a1b7cc1c6c2f","","null","<img    src='G_7.jpg' height='90'> <img id='selected'    src='G_6.jpg' height='90'> <img id='selected'   src='G_8.jpg' height='90'> <img     src='G_5.jpg' height='90'> <img     src='G_2.jpg' height='90'> <img src='G_4.jpg' height='90'> <img src='G_3.jpg' height='90'> <img src='G_1.jpg' height='90'>","null","Animation1","",""
"","","","","","html-keyboard-response","105","229414","0.0-81.0","1","1","2025-01-31 17:37:39","838ec4b49f044157bad9e156c8cbc4a3","84.32.6.90","Mozilla/5.0 (Windows NT 10.0; Win64; x64) AppleWebKit/537.36 (KHTML, like Gecko) Chrome/132.0.0.0 Safari/537.36","WebKit","Chrome","132.0.0.0","Windows","10.0","https://app.prolific.com/","en-US,en;q=0.9","66f93cc8e6f967889ef2e4b6","679cf675428f47411a224827","679d0a5031d7a1b7cc1c6c2f","","null","<img    src='G_7.jpg' height='90'> <img id='swapped'   src='G_8.jpg' height='90'> <img id='swapped'    src='G_6.jpg' height='90'> <img     src='G_5.jpg' height='90'> <img     src='G_2.jpg' height='90'> <img src='G_4.jpg' height='90'> <img src='G_3.jpg' height='90'> <img src='G_1.jpg' height='90'>","null","Animation1","",""
"","","","","","html-keyboard-response","106","229728","0.0-82.0","1","1","2025-01-31 17:37:39","838ec4b49f044157bad9e156c8cbc4a3","84.32.6.90","Mozilla/5.0 (Windows NT 10.0; Win64; x64) AppleWebKit/537.36 (KHTML, like Gecko) Chrome/132.0.0.0 Safari/537.36","WebKit","Chrome","132.0.0.0","Windows","10.0","https://app.prolific.com/","en-US,en;q=0.9","66f93cc8e6f967889ef2e4b6","679cf675428f47411a224827","679d0a5031d7a1b7cc1c6c2f","","null","<img    src='G_7.jpg' height='90'> <img    src='G_8.jpg' height='90'> <img     src='G_6.jpg' height='90'> <img     src='G_5.jpg' height='90'> <img     src='G_2.jpg' height='90'> <img src='G_4.jpg' height='90'> <img src='G_3.jpg' height='90'> <img src='G_1.jpg' height='90'>","null","Animation1","",""
"","","","","","html-keyboard-response","107","230248","0.0-83.0","1","1","2025-01-31 17:37:39","838ec4b49f044157bad9e156c8cbc4a3","84.32.6.90","Mozilla/5.0 (Windows NT 10.0; Win64; x64) AppleWebKit/537.36 (KHTML, like Gecko) Chrome/132.0.0.0 Safari/537.36","WebKit","Chrome","132.0.0.0","Windows","10.0","https://app.prolific.com/","en-US,en;q=0.9","66f93cc8e6f967889ef2e4b6","679cf675428f47411a224827","679d0a5031d7a1b7cc1c6c2f","","null","<img id='selected'    src='G_7.jpg' height='90'> <img    src='G_8.jpg' height='90'> <img     src='G_6.jpg' height='90'> <img     src='G_5.jpg' height='90'> <img     src='G_2.jpg' height='90'> <img src='G_4.jpg' height='90'> <img src='G_3.jpg' height='90'> <img src='G_1.jpg' height='90'>","null","Animation1","",""
"","","","","","html-keyboard-response","108","230764","0.0-84.0","1","1","2025-01-31 17:37:39","838ec4b49f044157bad9e156c8cbc4a3","84.32.6.90","Mozilla/5.0 (Windows NT 10.0; Win64; x64) AppleWebKit/537.36 (KHTML, like Gecko) Chrome/132.0.0.0 Safari/537.36","WebKit","Chrome","132.0.0.0","Windows","10.0","https://app.prolific.com/","en-US,en;q=0.9","66f93cc8e6f967889ef2e4b6","679cf675428f47411a224827","679d0a5031d7a1b7cc1c6c2f","","null","<img id='selected'    src='G_7.jpg' height='90'> <img id='selected'    src='G_8.jpg' height='90'> <img     src='G_6.jpg' height='90'> <img     src='G_5.jpg' height='90'> <img     src='G_2.jpg' height='90'> <img src='G_4.jpg' height='90'> <img src='G_3.jpg' height='90'> <img src='G_1.jpg' height='90'>","null","Animation1","",""
"","","","","","html-keyboard-response","109","231280","0.0-85.0","1","1","2025-01-31 17:37:39","838ec4b49f044157bad9e156c8cbc4a3","84.32.6.90","Mozilla/5.0 (Windows NT 10.0; Win64; x64) AppleWebKit/537.36 (KHTML, like Gecko) Chrome/132.0.0.0 Safari/537.36","WebKit","Chrome","132.0.0.0","Windows","10.0","https://app.prolific.com/","en-US,en;q=0.9","66f93cc8e6f967889ef2e4b6","679cf675428f47411a224827","679d0a5031d7a1b7cc1c6c2f","","null","<img id='selected'    src='G_7.jpg' height='90'> <img id='selected'    src='G_8.jpg' height='90'> <img     src='G_6.jpg' height='90'> <img     src='G_5.jpg' height='90'> <img     src='G_2.jpg' height='90'> <img src='G_4.jpg' height='90'> <img src='G_3.jpg' height='90'> <img src='G_1.jpg' height='90'>","null","Animation1","",""
"","","","","","html-keyboard-response","110","231593","0.0-86.0","1","1","2025-01-31 17:37:39","838ec4b49f044157bad9e156c8cbc4a3","84.32.6.90","Mozilla/5.0 (Windows NT 10.0; Win64; x64) AppleWebKit/537.36 (KHTML, like Gecko) Chrome/132.0.0.0 Safari/537.36","WebKit","Chrome","132.0.0.0","Windows","10.0","https://app.prolific.com/","en-US,en;q=0.9","66f93cc8e6f967889ef2e4b6","679cf675428f47411a224827","679d0a5031d7a1b7cc1c6c2f","","null","<img     src='G_7.jpg' height='90'> <img     src='G_8.jpg' height='90'> <img     src='G_6.jpg' height='90'> <img     src='G_5.jpg' height='90'> <img     src='G_2.jpg' height='90'> <img src='G_4.jpg' height='90'> <img src='G_3.jpg' height='90'> <img src='G_1.jpg' height='90'>","null","Animation1","",""
"","","","","","html-keyboard-response","111","232110","0.0-87.0","1","1","2025-01-31 17:37:39","838ec4b49f044157bad9e156c8cbc4a3","84.32.6.90","Mozilla/5.0 (Windows NT 10.0; Win64; x64) AppleWebKit/537.36 (KHTML, like Gecko) Chrome/132.0.0.0 Safari/537.36","WebKit","Chrome","132.0.0.0","Windows","10.0","https://app.prolific.com/","en-US,en;q=0.9","66f93cc8e6f967889ef2e4b6","679cf675428f47411a224827","679d0a5031d7a1b7cc1c6c2f","","null","<img     src='G_7.jpg' height='90'> <img     src='G_8.jpg' height='90'> <img     src='G_6.jpg' height='90'> <img     src='G_5.jpg' height='90'> <img id='selected'     src='G_2.jpg' height='90'> <img src='G_4.jpg' height='90'> <img src='G_3.jpg' height='90'> <img src='G_1.jpg' height='90'>","null","Animation1","",""
"","","","","","html-keyboard-response","112","232626","0.0-88.0","1","1","2025-01-31 17:37:39","838ec4b49f044157bad9e156c8cbc4a3","84.32.6.90","Mozilla/5.0 (Windows NT 10.0; Win64; x64) AppleWebKit/537.36 (KHTML, like Gecko) Chrome/132.0.0.0 Safari/537.36","WebKit","Chrome","132.0.0.0","Windows","10.0","https://app.prolific.com/","en-US,en;q=0.9","66f93cc8e6f967889ef2e4b6","679cf675428f47411a224827","679d0a5031d7a1b7cc1c6c2f","","null","<img     src='G_7.jpg' height='90'> <img     src='G_8.jpg' height='90'> <img     src='G_6.jpg' height='90'> <img     src='G_5.jpg' height='90'> <img id='selected'     src='G_2.jpg' height='90'> <img id='selected' src='G_4.jpg' height='90'> <img src='G_3.jpg' height='90'> <img src='G_1.jpg' height='90'>","null","Animation1","",""
"","","","","","html-keyboard-response","113","233140","0.0-89.0","1","1","2025-01-31 17:37:39","838ec4b49f044157bad9e156c8cbc4a3","84.32.6.90","Mozilla/5.0 (Windows NT 10.0; Win64; x64) AppleWebKit/537.36 (KHTML, like Gecko) Chrome/132.0.0.0 Safari/537.36","WebKit","Chrome","132.0.0.0","Windows","10.0","https://app.prolific.com/","en-US,en;q=0.9","66f93cc8e6f967889ef2e4b6","679cf675428f47411a224827","679d0a5031d7a1b7cc1c6c2f","","null","<img     src='G_7.jpg' height='90'> <img     src='G_8.jpg' height='90'> <img     src='G_6.jpg' height='90'> <img     src='G_5.jpg' height='90'> <img id='swapped' src='G_4.jpg' height='90'> <img id='swapped'     src='G_2.jpg' height='90'> <img src='G_3.jpg' height='90'> <img src='G_1.jpg' height='90'>","null","Animation1","",""
"","","","","","html-keyboard-response","114","233451","0.0-90.0","1","1","2025-01-31 17:37:39","838ec4b49f044157bad9e156c8cbc4a3","84.32.6.90","Mozilla/5.0 (Windows NT 10.0; Win64; x64) AppleWebKit/537.36 (KHTML, like Gecko) Chrome/132.0.0.0 Safari/537.36","WebKit","Chrome","132.0.0.0","Windows","10.0","https://app.prolific.com/","en-US,en;q=0.9","66f93cc8e6f967889ef2e4b6","679cf675428f47411a224827","679d0a5031d7a1b7cc1c6c2f","","null","<img     src='G_7.jpg' height='90'> <img     src='G_8.jpg' height='90'> <img     src='G_6.jpg' height='90'> <img     src='G_5.jpg' height='90'> <img  src='G_4.jpg' height='90'> <img      src='G_2.jpg' height='90'> <img src='G_3.jpg' height='90'> <img src='G_1.jpg' height='90'>","null","Animation1","",""
"","","","","","html-keyboard-response","115","233971","0.0-91.0","1","1","2025-01-31 17:37:39","838ec4b49f044157bad9e156c8cbc4a3","84.32.6.90","Mozilla/5.0 (Windows NT 10.0; Win64; x64) AppleWebKit/537.36 (KHTML, like Gecko) Chrome/132.0.0.0 Safari/537.36","WebKit","Chrome","132.0.0.0","Windows","10.0","https://app.prolific.com/","en-US,en;q=0.9","66f93cc8e6f967889ef2e4b6","679cf675428f47411a224827","679d0a5031d7a1b7cc1c6c2f","","null","<img     src='G_7.jpg' height='90'> <img     src='G_8.jpg' height='90'> <img     src='G_6.jpg' height='90'> <img id='selected'     src='G_5.jpg' height='90'> <img  src='G_4.jpg' height='90'> <img      src='G_2.jpg' height='90'> <img src='G_3.jpg' height='90'> <img src='G_1.jpg' height='90'>","null","Animation1","",""
"","","","","","html-keyboard-response","116","234489","0.0-92.0","1","1","2025-01-31 17:37:39","838ec4b49f044157bad9e156c8cbc4a3","84.32.6.90","Mozilla/5.0 (Windows NT 10.0; Win64; x64) AppleWebKit/537.36 (KHTML, like Gecko) Chrome/132.0.0.0 Safari/537.36","WebKit","Chrome","132.0.0.0","Windows","10.0","https://app.prolific.com/","en-US,en;q=0.9","66f93cc8e6f967889ef2e4b6","679cf675428f47411a224827","679d0a5031d7a1b7cc1c6c2f","","null","<img     src='G_7.jpg' height='90'> <img     src='G_8.jpg' height='90'> <img     src='G_6.jpg' height='90'> <img id='selected'     src='G_5.jpg' height='90'> <img id='selected'  src='G_4.jpg' height='90'> <img      src='G_2.jpg' height='90'> <img src='G_3.jpg' height='90'> <img src='G_1.jpg' height='90'>","null","Animation1","",""
"","","","","","html-keyboard-response","117","235005","0.0-93.0","1","1","2025-01-31 17:37:39","838ec4b49f044157bad9e156c8cbc4a3","84.32.6.90","Mozilla/5.0 (Windows NT 10.0; Win64; x64) AppleWebKit/537.36 (KHTML, like Gecko) Chrome/132.0.0.0 Safari/537.36","WebKit","Chrome","132.0.0.0","Windows","10.0","https://app.prolific.com/","en-US,en;q=0.9","66f93cc8e6f967889ef2e4b6","679cf675428f47411a224827","679d0a5031d7a1b7cc1c6c2f","","null","<img     src='G_7.jpg' height='90'> <img     src='G_8.jpg' height='90'> <img     src='G_6.jpg' height='90'> <img id='selected'     src='G_5.jpg' height='90'> <img id='selected'  src='G_4.jpg' height='90'> <img      src='G_2.jpg' height='90'> <img src='G_3.jpg' height='90'> <img src='G_1.jpg' height='90'>","null","Animation1","",""
"","","","","","html-keyboard-response","118","235319","0.0-94.0","1","1","2025-01-31 17:37:39","838ec4b49f044157bad9e156c8cbc4a3","84.32.6.90","Mozilla/5.0 (Windows NT 10.0; Win64; x64) AppleWebKit/537.36 (KHTML, like Gecko) Chrome/132.0.0.0 Safari/537.36","WebKit","Chrome","132.0.0.0","Windows","10.0","https://app.prolific.com/","en-US,en;q=0.9","66f93cc8e6f967889ef2e4b6","679cf675428f47411a224827","679d0a5031d7a1b7cc1c6c2f","","null","<img     src='G_7.jpg' height='90'> <img     src='G_8.jpg' height='90'> <img     src='G_6.jpg' height='90'> <img      src='G_5.jpg' height='90'> <img   src='G_4.jpg' height='90'> <img      src='G_2.jpg' height='90'> <img src='G_3.jpg' height='90'> <img src='G_1.jpg' height='90'>","null","Animation1","",""
"","","","","","html-keyboard-response","119","235840","0.0-95.0","1","1","2025-01-31 17:37:39","838ec4b49f044157bad9e156c8cbc4a3","84.32.6.90","Mozilla/5.0 (Windows NT 10.0; Win64; x64) AppleWebKit/537.36 (KHTML, like Gecko) Chrome/132.0.0.0 Safari/537.36","WebKit","Chrome","132.0.0.0","Windows","10.0","https://app.prolific.com/","en-US,en;q=0.9","66f93cc8e6f967889ef2e4b6","679cf675428f47411a224827","679d0a5031d7a1b7cc1c6c2f","","null","<img     src='G_7.jpg' height='90'> <img     src='G_8.jpg' height='90'> <img     src='G_6.jpg' height='90'> <img      src='G_5.jpg' height='90'> <img   src='G_4.jpg' height='90'> <img id='selected'      src='G_2.jpg' height='90'> <img src='G_3.jpg' height='90'> <img src='G_1.jpg' height='90'>","null","Animation1","",""
"","","","","","html-keyboard-response","120","236361","0.0-96.0","1","1","2025-01-31 17:37:39","838ec4b49f044157bad9e156c8cbc4a3","84.32.6.90","Mozilla/5.0 (Windows NT 10.0; Win64; x64) AppleWebKit/537.36 (KHTML, like Gecko) Chrome/132.0.0.0 Safari/537.36","WebKit","Chrome","132.0.0.0","Windows","10.0","https://app.prolific.com/","en-US,en;q=0.9","66f93cc8e6f967889ef2e4b6","679cf675428f47411a224827","679d0a5031d7a1b7cc1c6c2f","","null","<img     src='G_7.jpg' height='90'> <img     src='G_8.jpg' height='90'> <img     src='G_6.jpg' height='90'> <img      src='G_5.jpg' height='90'> <img   src='G_4.jpg' height='90'> <img id='selected'      src='G_2.jpg' height='90'> <img id='selected' src='G_3.jpg' height='90'> <img src='G_1.jpg' height='90'>","null","Animation1","",""
"","","","","","html-keyboard-response","121","236877","0.0-97.0","1","1","2025-01-31 17:37:39","838ec4b49f044157bad9e156c8cbc4a3","84.32.6.90","Mozilla/5.0 (Windows NT 10.0; Win64; x64) AppleWebKit/537.36 (KHTML, like Gecko) Chrome/132.0.0.0 Safari/537.36","WebKit","Chrome","132.0.0.0","Windows","10.0","https://app.prolific.com/","en-US,en;q=0.9","66f93cc8e6f967889ef2e4b6","679cf675428f47411a224827","679d0a5031d7a1b7cc1c6c2f","","null","<img     src='G_7.jpg' height='90'> <img     src='G_8.jpg' height='90'> <img     src='G_6.jpg' height='90'> <img      src='G_5.jpg' height='90'> <img   src='G_4.jpg' height='90'> <img id='selected'      src='G_2.jpg' height='90'> <img id='selected' src='G_3.jpg' height='90'> <img src='G_1.jpg' height='90'>","null","Animation1","",""
"","","","","","html-keyboard-response","122","237194","0.0-98.0","1","1","2025-01-31 17:37:39","838ec4b49f044157bad9e156c8cbc4a3","84.32.6.90","Mozilla/5.0 (Windows NT 10.0; Win64; x64) AppleWebKit/537.36 (KHTML, like Gecko) Chrome/132.0.0.0 Safari/537.36","WebKit","Chrome","132.0.0.0","Windows","10.0","https://app.prolific.com/","en-US,en;q=0.9","66f93cc8e6f967889ef2e4b6","679cf675428f47411a224827","679d0a5031d7a1b7cc1c6c2f","","null","<img     src='G_7.jpg' height='90'> <img     src='G_8.jpg' height='90'> <img     src='G_6.jpg' height='90'> <img      src='G_5.jpg' height='90'> <img   src='G_4.jpg' height='90'> <img       src='G_2.jpg' height='90'> <img  src='G_3.jpg' height='90'> <img src='G_1.jpg' height='90'>","null","Animation1","",""
"","","","","","html-keyboard-response","123","237713","0.0-99.0","1","1","2025-01-31 17:37:39","838ec4b49f044157bad9e156c8cbc4a3","84.32.6.90","Mozilla/5.0 (Windows NT 10.0; Win64; x64) AppleWebKit/537.36 (KHTML, like Gecko) Chrome/132.0.0.0 Safari/537.36","WebKit","Chrome","132.0.0.0","Windows","10.0","https://app.prolific.com/","en-US,en;q=0.9","66f93cc8e6f967889ef2e4b6","679cf675428f47411a224827","679d0a5031d7a1b7cc1c6c2f","","null","<img     src='G_7.jpg' height='90'> <img     src='G_8.jpg' height='90'> <img     src='G_6.jpg' height='90'> <img      src='G_5.jpg' height='90'> <img   src='G_4.jpg' height='90'> <img       src='G_2.jpg' height='90'> <img id='selected'  src='G_3.jpg' height='90'> <img src='G_1.jpg' height='90'>","null","Animation1","",""
"","","","","","html-keyboard-response","124","238229","0.0-100.0","1","1","2025-01-31 17:37:39","838ec4b49f044157bad9e156c8cbc4a3","84.32.6.90","Mozilla/5.0 (Windows NT 10.0; Win64; x64) AppleWebKit/537.36 (KHTML, like Gecko) Chrome/132.0.0.0 Safari/537.36","WebKit","Chrome","132.0.0.0","Windows","10.0","https://app.prolific.com/","en-US,en;q=0.9","66f93cc8e6f967889ef2e4b6","679cf675428f47411a224827","679d0a5031d7a1b7cc1c6c2f","","null","<img     src='G_7.jpg' height='90'> <img     src='G_8.jpg' height='90'> <img     src='G_6.jpg' height='90'> <img      src='G_5.jpg' height='90'> <img   src='G_4.jpg' height='90'> <img       src='G_2.jpg' height='90'> <img id='selected'  src='G_3.jpg' height='90'> <img id='selected' src='G_1.jpg' height='90'>","null","Animation1","",""
"","","","","","html-keyboard-response","125","238746","0.0-101.0","1","1","2025-01-31 17:37:39","838ec4b49f044157bad9e156c8cbc4a3","84.32.6.90","Mozilla/5.0 (Windows NT 10.0; Win64; x64) AppleWebKit/537.36 (KHTML, like Gecko) Chrome/132.0.0.0 Safari/537.36","WebKit","Chrome","132.0.0.0","Windows","10.0","https://app.prolific.com/","en-US,en;q=0.9","66f93cc8e6f967889ef2e4b6","679cf675428f47411a224827","679d0a5031d7a1b7cc1c6c2f","","null","<img     src='G_7.jpg' height='90'> <img     src='G_8.jpg' height='90'> <img     src='G_6.jpg' height='90'> <img      src='G_5.jpg' height='90'> <img   src='G_4.jpg' height='90'> <img       src='G_2.jpg' height='90'> <img id='swapped' src='G_1.jpg' height='90'> <img id='swapped'  src='G_3.jpg' height='90'>","null","Animation1","",""
"","","","","","html-keyboard-response","126","239061","0.0-102.0","1","1","2025-01-31 17:37:39","838ec4b49f044157bad9e156c8cbc4a3","84.32.6.90","Mozilla/5.0 (Windows NT 10.0; Win64; x64) AppleWebKit/537.36 (KHTML, like Gecko) Chrome/132.0.0.0 Safari/537.36","WebKit","Chrome","132.0.0.0","Windows","10.0","https://app.prolific.com/","en-US,en;q=0.9","66f93cc8e6f967889ef2e4b6","679cf675428f47411a224827","679d0a5031d7a1b7cc1c6c2f","","null","<img     src='G_7.jpg' height='90'> <img     src='G_8.jpg' height='90'> <img     src='G_6.jpg' height='90'> <img      src='G_5.jpg' height='90'> <img   src='G_4.jpg' height='90'> <img       src='G_2.jpg' height='90'> <img  src='G_1.jpg' height='90'> <img   src='G_3.jpg' height='90'>","null","Animation1","",""
"","","","","","html-keyboard-response","127","239574","0.0-103.0","1","1","2025-01-31 17:37:39","838ec4b49f044157bad9e156c8cbc4a3","84.32.6.90","Mozilla/5.0 (Windows NT 10.0; Win64; x64) AppleWebKit/537.36 (KHTML, like Gecko) Chrome/132.0.0.0 Safari/537.36","WebKit","Chrome","132.0.0.0","Windows","10.0","https://app.prolific.com/","en-US,en;q=0.9","66f93cc8e6f967889ef2e4b6","679cf675428f47411a224827","679d0a5031d7a1b7cc1c6c2f","","null","<img     src='G_7.jpg' height='90'> <img     src='G_8.jpg' height='90'> <img     src='G_6.jpg' height='90'> <img      src='G_5.jpg' height='90'> <img   src='G_4.jpg' height='90'> <img id='selected'       src='G_2.jpg' height='90'> <img  src='G_1.jpg' height='90'> <img   src='G_3.jpg' height='90'>","null","Animation1","",""
"","","","","","html-keyboard-response","128","240089","0.0-104.0","1","1","2025-01-31 17:37:39","838ec4b49f044157bad9e156c8cbc4a3","84.32.6.90","Mozilla/5.0 (Windows NT 10.0; Win64; x64) AppleWebKit/537.36 (KHTML, like Gecko) Chrome/132.0.0.0 Safari/537.36","WebKit","Chrome","132.0.0.0","Windows","10.0","https://app.prolific.com/","en-US,en;q=0.9","66f93cc8e6f967889ef2e4b6","679cf675428f47411a224827","679d0a5031d7a1b7cc1c6c2f","","null","<img     src='G_7.jpg' height='90'> <img     src='G_8.jpg' height='90'> <img     src='G_6.jpg' height='90'> <img      src='G_5.jpg' height='90'> <img   src='G_4.jpg' height='90'> <img id='selected'       src='G_2.jpg' height='90'> <img id='selected'  src='G_1.jpg' height='90'> <img   src='G_3.jpg' height='90'>","null","Animation1","",""
"","","","","","html-keyboard-response","129","240605","0.0-105.0","1","1","2025-01-31 17:37:39","838ec4b49f044157bad9e156c8cbc4a3","84.32.6.90","Mozilla/5.0 (Windows NT 10.0; Win64; x64) AppleWebKit/537.36 (KHTML, like Gecko) Chrome/132.0.0.0 Safari/537.36","WebKit","Chrome","132.0.0.0","Windows","10.0","https://app.prolific.com/","en-US,en;q=0.9","66f93cc8e6f967889ef2e4b6","679cf675428f47411a224827","679d0a5031d7a1b7cc1c6c2f","","null","<img     src='G_7.jpg' height='90'> <img     src='G_8.jpg' height='90'> <img     src='G_6.jpg' height='90'> <img      src='G_5.jpg' height='90'> <img   src='G_4.jpg' height='90'> <img id='selected'       src='G_2.jpg' height='90'> <img id='selected'  src='G_1.jpg' height='90'> <img   src='G_3.jpg' height='90'>","null","Animation1","",""
"","","","","","html-keyboard-response","130","240920","0.0-106.0","1","1","2025-01-31 17:37:39","838ec4b49f044157bad9e156c8cbc4a3","84.32.6.90","Mozilla/5.0 (Windows NT 10.0; Win64; x64) AppleWebKit/537.36 (KHTML, like Gecko) Chrome/132.0.0.0 Safari/537.36","WebKit","Chrome","132.0.0.0","Windows","10.0","https://app.prolific.com/","en-US,en;q=0.9","66f93cc8e6f967889ef2e4b6","679cf675428f47411a224827","679d0a5031d7a1b7cc1c6c2f","","null","<img     src='G_7.jpg' height='90'> <img     src='G_8.jpg' height='90'> <img     src='G_6.jpg' height='90'> <img      src='G_5.jpg' height='90'> <img   src='G_4.jpg' height='90'> <img        src='G_2.jpg' height='90'> <img   src='G_1.jpg' height='90'> <img   src='G_3.jpg' height='90'>","null","Animation1","",""
"","","","","","html-keyboard-response","131","243614","0.0-107.0","1","1","2025-01-31 17:37:39","838ec4b49f044157bad9e156c8cbc4a3","84.32.6.90","Mozilla/5.0 (Windows NT 10.0; Win64; x64) AppleWebKit/537.36 (KHTML, like Gecko) Chrome/132.0.0.0 Safari/537.36","WebKit","Chrome","132.0.0.0","Windows","10.0","https://app.prolific.com/","en-US,en;q=0.9","66f93cc8e6f967889ef2e4b6","679cf675428f47411a224827","679d0a5031d7a1b7cc1c6c2f","","2685","[""Did you notice any patterns? <br><br>Press Enter to watch that example again and follow the steps of Omgne Sort.""]","enter","","",""
"","","","","","html-button-response","132","244028","0.0-108.0","1","1","2025-01-31 17:37:39","838ec4b49f044157bad9e156c8cbc4a3","84.32.6.90","Mozilla/5.0 (Windows NT 10.0; Win64; x64) AppleWebKit/537.36 (KHTML, like Gecko) Chrome/132.0.0.0 Safari/537.36","WebKit","Chrome","132.0.0.0","Windows","10.0","https://app.prolific.com/","en-US,en;q=0.9","66f93cc8e6f967889ef2e4b6","679cf675428f47411a224827","679d0a5031d7a1b7cc1c6c2f","","null","<img id='selected' src='G_5.jpg' height='90'> <img src='G_2.jpg' height='90'> <img src='G_6.jpg' height='90'> <img src='G_7.jpg' height='90'> <img src='G_8.jpg' height='90'> <img src='G_4.jpg' height='90'> <img src='G_3.jpg' height='90'> <img src='G_1.jpg' height='90'>","null","Learning example 1","",""
"","","","","","html-button-response","133","244343","0.0-109.0","1","1","2025-01-31 17:37:39","838ec4b49f044157bad9e156c8cbc4a3","84.32.6.90","Mozilla/5.0 (Windows NT 10.0; Win64; x64) AppleWebKit/537.36 (KHTML, like Gecko) Chrome/132.0.0.0 Safari/537.36","WebKit","Chrome","132.0.0.0","Windows","10.0","https://app.prolific.com/","en-US,en;q=0.9","66f93cc8e6f967889ef2e4b6","679cf675428f47411a224827","679d0a5031d7a1b7cc1c6c2f","","null","<img id='selected' src='G_5.jpg' height='90'> <img id='selected' src='G_2.jpg' height='90'> <img src='G_6.jpg' height='90'> <img src='G_7.jpg' height='90'> <img src='G_8.jpg' height='90'> <img src='G_4.jpg' height='90'> <img src='G_3.jpg' height='90'> <img src='G_1.jpg' height='90'>","null","Learning example 1","",""
"","","","","","html-button-response","134","244657","0.0-110.0","1","1","2025-01-31 17:37:39","838ec4b49f044157bad9e156c8cbc4a3","84.32.6.90","Mozilla/5.0 (Windows NT 10.0; Win64; x64) AppleWebKit/537.36 (KHTML, like Gecko) Chrome/132.0.0.0 Safari/537.36","WebKit","Chrome","132.0.0.0","Windows","10.0","https://app.prolific.com/","en-US,en;q=0.9","66f93cc8e6f967889ef2e4b6","679cf675428f47411a224827","679d0a5031d7a1b7cc1c6c2f","","null","<img id='selected' src='G_5.jpg' height='90'> <img id='selected' src='G_2.jpg' height='90'> <img src='G_6.jpg' height='90'> <img src='G_7.jpg' height='90'> <img src='G_8.jpg' height='90'> <img src='G_4.jpg' height='90'> <img src='G_3.jpg' height='90'> <img src='G_1.jpg' height='90'>","null","Learning example 1","",""
"","","","","","html-button-response","135","246150","0.0-111.0-0.0-0.0","1","1","2025-01-31 17:37:39","838ec4b49f044157bad9e156c8cbc4a3","84.32.6.90","Mozilla/5.0 (Windows NT 10.0; Win64; x64) AppleWebKit/537.36 (KHTML, like Gecko) Chrome/132.0.0.0 Safari/537.36","WebKit","Chrome","132.0.0.0","Windows","10.0","https://app.prolific.com/","en-US,en;q=0.9","66f93cc8e6f967889ef2e4b6","679cf675428f47411a224827","679d0a5031d7a1b7cc1c6c2f","","1485","<img id='selected' src='G_5.jpg' height='90'> <img id='selected' src='G_2.jpg' height='90'> <img src='G_6.jpg' height='90'> <img src='G_7.jpg' height='90'> <img src='G_8.jpg' height='90'> <img src='G_4.jpg' height='90'> <img src='G_3.jpg' height='90'> <img src='G_1.jpg' height='90'>","0","Learning example 1","",""
"","","","","","html-button-response","136","246456","0.0-111.1-0.1-0.1","1","1","2025-01-31 17:37:39","838ec4b49f044157bad9e156c8cbc4a3","84.32.6.90","Mozilla/5.0 (Windows NT 10.0; Win64; x64) AppleWebKit/537.36 (KHTML, like Gecko) Chrome/132.0.0.0 Safari/537.36","WebKit","Chrome","132.0.0.0","Windows","10.0","https://app.prolific.com/","en-US,en;q=0.9","66f93cc8e6f967889ef2e4b6","679cf675428f47411a224827","679d0a5031d7a1b7cc1c6c2f","","297","<img id='selected' src='G_5.jpg' height='90'> <img id='selected' src='G_2.jpg' height='90'> <img src='G_6.jpg' height='90'> <img src='G_7.jpg' height='90'> <img src='G_8.jpg' height='90'> <img src='G_4.jpg' height='90'> <img src='G_3.jpg' height='90'> <img src='G_1.jpg' height='90'>","1","Learning example 1","",""
"","","","","","html-button-response","137","246675","0.0-112.0","1","1","2025-01-31 17:37:39","838ec4b49f044157bad9e156c8cbc4a3","84.32.6.90","Mozilla/5.0 (Windows NT 10.0; Win64; x64) AppleWebKit/537.36 (KHTML, like Gecko) Chrome/132.0.0.0 Safari/537.36","WebKit","Chrome","132.0.0.0","Windows","10.0","https://app.prolific.com/","en-US,en;q=0.9","66f93cc8e6f967889ef2e4b6","679cf675428f47411a224827","679d0a5031d7a1b7cc1c6c2f","","null","<img  src='G_5.jpg' height='90'> <img  src='G_2.jpg' height='90'> <img src='G_6.jpg' height='90'> <img src='G_7.jpg' height='90'> <img src='G_8.jpg' height='90'> <img src='G_4.jpg' height='90'> <img src='G_3.jpg' height='90'> <img src='G_1.jpg' height='90'>","null","Learning example 1","",""
"","","","","","html-button-response","138","247095","0.0-113.0","1","1","2025-01-31 17:37:39","838ec4b49f044157bad9e156c8cbc4a3","84.32.6.90","Mozilla/5.0 (Windows NT 10.0; Win64; x64) AppleWebKit/537.36 (KHTML, like Gecko) Chrome/132.0.0.0 Safari/537.36","WebKit","Chrome","132.0.0.0","Windows","10.0","https://app.prolific.com/","en-US,en;q=0.9","66f93cc8e6f967889ef2e4b6","679cf675428f47411a224827","679d0a5031d7a1b7cc1c6c2f","","null","<img  src='G_5.jpg' height='90'> <img id='selected'  src='G_2.jpg' height='90'> <img src='G_6.jpg' height='90'> <img src='G_7.jpg' height='90'> <img src='G_8.jpg' height='90'> <img src='G_4.jpg' height='90'> <img src='G_3.jpg' height='90'> <img src='G_1.jpg' height='90'>","null","Learning example 1","",""
"","","","","","html-button-response","139","247424","0.0-114.0","1","1","2025-01-31 17:37:39","838ec4b49f044157bad9e156c8cbc4a3","84.32.6.90","Mozilla/5.0 (Windows NT 10.0; Win64; x64) AppleWebKit/537.36 (KHTML, like Gecko) Chrome/132.0.0.0 Safari/537.36","WebKit","Chrome","132.0.0.0","Windows","10.0","https://app.prolific.com/","en-US,en;q=0.9","66f93cc8e6f967889ef2e4b6","679cf675428f47411a224827","679d0a5031d7a1b7cc1c6c2f","","null","<img  src='G_5.jpg' height='90'> <img id='selected'  src='G_2.jpg' height='90'> <img id='selected' src='G_6.jpg' height='90'> <img src='G_7.jpg' height='90'> <img src='G_8.jpg' height='90'> <img src='G_4.jpg' height='90'> <img src='G_3.jpg' height='90'> <img src='G_1.jpg' height='90'>","null","Learning example 1","",""
"","","","","","html-button-response","140","247754","0.0-115.0","1","1","2025-01-31 17:37:39","838ec4b49f044157bad9e156c8cbc4a3","84.32.6.90","Mozilla/5.0 (Windows NT 10.0; Win64; x64) AppleWebKit/537.36 (KHTML, like Gecko) Chrome/132.0.0.0 Safari/537.36","WebKit","Chrome","132.0.0.0","Windows","10.0","https://app.prolific.com/","en-US,en;q=0.9","66f93cc8e6f967889ef2e4b6","679cf675428f47411a224827","679d0a5031d7a1b7cc1c6c2f","","null","<img  src='G_5.jpg' height='90'> <img id='swapped' src='G_6.jpg' height='90'> <img id='swapped'  src='G_2.jpg' height='90'> <img src='G_7.jpg' height='90'> <img src='G_8.jpg' height='90'> <img src='G_4.jpg' height='90'> <img src='G_3.jpg' height='90'> <img src='G_1.jpg' height='90'>","null","Learning example 1","",""
"","","","","","html-button-response","141","248590","0.0-116.0-0.0-0.0","1","1","2025-01-31 17:37:39","838ec4b49f044157bad9e156c8cbc4a3","84.32.6.90","Mozilla/5.0 (Windows NT 10.0; Win64; x64) AppleWebKit/537.36 (KHTML, like Gecko) Chrome/132.0.0.0 Safari/537.36","WebKit","Chrome","132.0.0.0","Windows","10.0","https://app.prolific.com/","en-US,en;q=0.9","66f93cc8e6f967889ef2e4b6","679cf675428f47411a224827","679d0a5031d7a1b7cc1c6c2f","","823","<img  src='G_5.jpg' height='90'> <img id='swapped' src='G_6.jpg' height='90'> <img id='swapped'  src='G_2.jpg' height='90'> <img src='G_7.jpg' height='90'> <img src='G_8.jpg' height='90'> <img src='G_4.jpg' height='90'> <img src='G_3.jpg' height='90'> <img src='G_1.jpg' height='90'>","1","Learning example 1","",""
"","","","","","html-button-response","142","249063","0.0-116.1-0.1-0.1","1","1","2025-01-31 17:37:39","838ec4b49f044157bad9e156c8cbc4a3","84.32.6.90","Mozilla/5.0 (Windows NT 10.0; Win64; x64) AppleWebKit/537.36 (KHTML, like Gecko) Chrome/132.0.0.0 Safari/537.36","WebKit","Chrome","132.0.0.0","Windows","10.0","https://app.prolific.com/","en-US,en;q=0.9","66f93cc8e6f967889ef2e4b6","679cf675428f47411a224827","679d0a5031d7a1b7cc1c6c2f","","456","<img  src='G_5.jpg' height='90'> <img id='swapped' src='G_6.jpg' height='90'> <img id='swapped'  src='G_2.jpg' height='90'> <img src='G_7.jpg' height='90'> <img src='G_8.jpg' height='90'> <img src='G_4.jpg' height='90'> <img src='G_3.jpg' height='90'> <img src='G_1.jpg' height='90'>","2","Learning example 1","",""
"","","","","","html-button-response","143","249292","0.0-117.0","1","1","2025-01-31 17:37:39","838ec4b49f044157bad9e156c8cbc4a3","84.32.6.90","Mozilla/5.0 (Windows NT 10.0; Win64; x64) AppleWebKit/537.36 (KHTML, like Gecko) Chrome/132.0.0.0 Safari/537.36","WebKit","Chrome","132.0.0.0","Windows","10.0","https://app.prolific.com/","en-US,en;q=0.9","66f93cc8e6f967889ef2e4b6","679cf675428f47411a224827","679d0a5031d7a1b7cc1c6c2f","","null","<img  src='G_5.jpg' height='90'> <img  src='G_6.jpg' height='90'> <img   src='G_2.jpg' height='90'> <img src='G_7.jpg' height='90'> <img src='G_8.jpg' height='90'> <img src='G_4.jpg' height='90'> <img src='G_3.jpg' height='90'> <img src='G_1.jpg' height='90'>","null","Learning example 1","",""
"","","","","","html-button-response","144","249725","0.0-118.0","1","1","2025-01-31 17:37:39","838ec4b49f044157bad9e156c8cbc4a3","84.32.6.90","Mozilla/5.0 (Windows NT 10.0; Win64; x64) AppleWebKit/537.36 (KHTML, like Gecko) Chrome/132.0.0.0 Safari/537.36","WebKit","Chrome","132.0.0.0","Windows","10.0","https://app.prolific.com/","en-US,en;q=0.9","66f93cc8e6f967889ef2e4b6","679cf675428f47411a224827","679d0a5031d7a1b7cc1c6c2f","","null","<img id='selected'  src='G_5.jpg' height='90'> <img  src='G_6.jpg' height='90'> <img   src='G_2.jpg' height='90'> <img src='G_7.jpg' height='90'> <img src='G_8.jpg' height='90'> <img src='G_4.jpg' height='90'> <img src='G_3.jpg' height='90'> <img src='G_1.jpg' height='90'>","null","Learning example 1","",""
"","","","","","html-button-response","145","250057","0.0-119.0","1","1","2025-01-31 17:37:39","838ec4b49f044157bad9e156c8cbc4a3","84.32.6.90","Mozilla/5.0 (Windows NT 10.0; Win64; x64) AppleWebKit/537.36 (KHTML, like Gecko) Chrome/132.0.0.0 Safari/537.36","WebKit","Chrome","132.0.0.0","Windows","10.0","https://app.prolific.com/","en-US,en;q=0.9","66f93cc8e6f967889ef2e4b6","679cf675428f47411a224827","679d0a5031d7a1b7cc1c6c2f","","null","<img id='selected'  src='G_5.jpg' height='90'> <img id='selected'  src='G_6.jpg' height='90'> <img   src='G_2.jpg' height='90'> <img src='G_7.jpg' height='90'> <img src='G_8.jpg' height='90'> <img src='G_4.jpg' height='90'> <img src='G_3.jpg' height='90'> <img src='G_1.jpg' height='90'>","null","Learning example 1","",""
"","","","","","html-button-response","146","250374","0.0-120.0","1","1","2025-01-31 17:37:39","838ec4b49f044157bad9e156c8cbc4a3","84.32.6.90","Mozilla/5.0 (Windows NT 10.0; Win64; x64) AppleWebKit/537.36 (KHTML, like Gecko) Chrome/132.0.0.0 Safari/537.36","WebKit","Chrome","132.0.0.0","Windows","10.0","https://app.prolific.com/","en-US,en;q=0.9","66f93cc8e6f967889ef2e4b6","679cf675428f47411a224827","679d0a5031d7a1b7cc1c6c2f","","null","<img id='swapped'  src='G_6.jpg' height='90'> <img id='swapped'  src='G_5.jpg' height='90'> <img   src='G_2.jpg' height='90'> <img src='G_7.jpg' height='90'> <img src='G_8.jpg' height='90'> <img src='G_4.jpg' height='90'> <img src='G_3.jpg' height='90'> <img src='G_1.jpg' height='90'>","null","Learning example 1","",""
