"success","timeout","failed_images","failed_audio","failed_video","trial_type","trial_index","time_elapsed","internal_node_id","run_id","condition","recorded_at","source_code_version","ip","user_agent","device","browser","browser_version","platform","platform_version","referer","accept_language","PROLIFIC_PID","STUDY_ID","SESSION_ID","view_history","rt","stimulus","response","phase","question_order","presented_choices"
"true","false","[]","[]","[]","preload","0","731","0.0-0.0","3","1","2025-01-31 18:30:08","838ec4b49f044157bad9e156c8cbc4a3","134.29.63.149","Mozilla/5.0 (Windows NT 10.0; Win64; x64) AppleWebKit/537.36 (KHTML, like Gecko) Chrome/132.0.0.0 Safari/537.36","WebKit","Chrome","132.0.0.0","Windows","10.0","https://app.prolific.com/","en-US,en;q=0.9","67171faf0f5a8adece49db86","679cf675428f47411a224827","679d169d40bc131050b97497","","","","","","",""
"","","","","","instructions","1","17545","0.0-1.0","3","1","2025-01-31 18:30:08","838ec4b49f044157bad9e156c8cbc4a3","134.29.63.149","Mozilla/5.0 (Windows NT 10.0; Win64; x64) AppleWebKit/537.36 (KHTML, like Gecko) Chrome/132.0.0.0 Safari/537.36","WebKit","Chrome","132.0.0.0","Windows","10.0","https://app.prolific.com/","en-US,en;q=0.9","67171faf0f5a8adece49db86","679cf675428f47411a224827","679d169d40bc131050b97497","[{""page_index"":0,""viewing_time"":16811}]","16811","","","","",""
"","","","","","html-keyboard-response","2","18048","0.0-2.0","3","1","2025-01-31 18:30:08","838ec4b49f044157bad9e156c8cbc4a3","134.29.63.149","Mozilla/5.0 (Windows NT 10.0; Win64; x64) AppleWebKit/537.36 (KHTML, like Gecko) Chrome/132.0.0.0 Safari/537.36","WebKit","Chrome","132.0.0.0","Windows","10.0","https://app.prolific.com/","en-US,en;q=0.9","67171faf0f5a8adece49db86","679cf675428f47411a224827","679d169d40bc131050b97497","","null","<p> + <p/>","null","","",""
"","","","","","instructions","3","60561","0.0-3.0","3","1","2025-01-31 18:30:08","838ec4b49f044157bad9e156c8cbc4a3","134.29.63.149","Mozilla/5.0 (Windows NT 10.0; Win64; x64) AppleWebKit/537.36 (KHTML, like Gecko) Chrome/132.0.0.0 Safari/537.36","WebKit","Chrome","132.0.0.0","Windows","10.0","https://app.prolific.com/","en-US,en;q=0.9","67171faf0f5a8adece49db86","679cf675428f47411a224827","679d169d40bc131050b97497","[{""page_index"":0,""viewing_time"":2517},{""page_index"":1,""viewing_time"":19814},{""page_index"":2,""viewing_time"":9066},{""page_index"":3,""viewing_time"":3939},{""page_index"":4,""viewing_time"":7177}]","42512","","","","",""
"","","","","","html-button-response","4","75516","0.0-4.0-0.0-0.0","3","1","2025-01-31 18:30:08","838ec4b49f044157bad9e156c8cbc4a3","134.29.63.149","Mozilla/5.0 (Windows NT 10.0; Win64; x64) AppleWebKit/537.36 (KHTML, like Gecko) Chrome/132.0.0.0 Safari/537.36","WebKit","Chrome","132.0.0.0","Windows","10.0","https://app.prolific.com/","en-US,en;q=0.9","67171faf0f5a8adece49db86","679cf675428f47411a224827","679d169d40bc131050b97497","","14954","","0","Intro Trial","",""
"","","","","","html-button-response","5","76381","0.0-4.1-0.1-0.1","3","1","2025-01-31 18:30:08","838ec4b49f044157bad9e156c8cbc4a3","134.29.63.149","Mozilla/5.0 (Windows NT 10.0; Win64; x64) AppleWebKit/537.36 (KHTML, like Gecko) Chrome/132.0.0.0 Safari/537.36","WebKit","Chrome","132.0.0.0","Windows","10.0","https://app.prolific.com/","en-US,en;q=0.9","67171faf0f5a8adece49db86","679cf675428f47411a224827","679d169d40bc131050b97497","","863","","1","Intro Trial","",""
"","","","","","html-button-response","6","78884","0.0-4.2-0.2-0.2","3","1","2025-01-31 18:30:08","838ec4b49f044157bad9e156c8cbc4a3","134.29.63.149","Mozilla/5.0 (Windows NT 10.0; Win64; x64) AppleWebKit/537.36 (KHTML, like Gecko) Chrome/132.0.0.0 Safari/537.36","WebKit","Chrome","132.0.0.0","Windows","10.0","https://app.prolific.com/","en-US,en;q=0.9","67171faf0f5a8adece49db86","679cf675428f47411a224827","679d169d40bc131050b97497","","2501","","1","Intro Trial","",""
"","","","","","html-button-response","7","79565","0.0-4.3-0.3-0.3","3","1","2025-01-31 18:30:08","838ec4b49f044157bad9e156c8cbc4a3","134.29.63.149","Mozilla/5.0 (Windows NT 10.0; Win64; x64) AppleWebKit/537.36 (KHTML, like Gecko) Chrome/132.0.0.0 Safari/537.36","WebKit","Chrome","132.0.0.0","Windows","10.0","https://app.prolific.com/","en-US,en;q=0.9","67171faf0f5a8adece49db86","679cf675428f47411a224827","679d169d40bc131050b97497","","679","","2","Intro Trial","",""
"","","","","","html-button-response","8","80596","0.0-4.4-0.4-0.4","3","1","2025-01-31 18:30:08","838ec4b49f044157bad9e156c8cbc4a3","134.29.63.149","Mozilla/5.0 (Windows NT 10.0; Win64; x64) AppleWebKit/537.36 (KHTML, like Gecko) Chrome/132.0.0.0 Safari/537.36","WebKit","Chrome","132.0.0.0","Windows","10.0","https://app.prolific.com/","en-US,en;q=0.9","67171faf0f5a8adece49db86","679cf675428f47411a224827","679d169d40bc131050b97497","","1029","","2","Intro Trial","",""
"","","","","","html-button-response","9","81310","0.0-4.5-0.5-0.5","3","1","2025-01-31 18:30:08","838ec4b49f044157bad9e156c8cbc4a3","134.29.63.149","Mozilla/5.0 (Windows NT 10.0; Win64; x64) AppleWebKit/537.36 (KHTML, like Gecko) Chrome/132.0.0.0 Safari/537.36","WebKit","Chrome","132.0.0.0","Windows","10.0","https://app.prolific.com/","en-US,en;q=0.9","67171faf0f5a8adece49db86","679cf675428f47411a224827","679d169d40bc131050b97497","","712","","3","Intro Trial","",""
"","","","","","html-button-response","10","82389","0.0-4.6-0.6-0.6","3","1","2025-01-31 18:30:08","838ec4b49f044157bad9e156c8cbc4a3","134.29.63.149","Mozilla/5.0 (Windows NT 10.0; Win64; x64) AppleWebKit/537.36 (KHTML, like Gecko) Chrome/132.0.0.0 Safari/537.36","WebKit","Chrome","132.0.0.0","Windows","10.0","https://app.prolific.com/","en-US,en;q=0.9","67171faf0f5a8adece49db86","679cf675428f47411a224827","679d169d40bc131050b97497","","1077","","2","Intro Trial","",""
"","","","","","html-button-response","11","83159","0.0-4.7-0.7-0.7","3","1","2025-01-31 18:30:08","838ec4b49f044157bad9e156c8cbc4a3","134.29.63.149","Mozilla/5.0 (Windows NT 10.0; Win64; x64) AppleWebKit/537.36 (KHTML, like Gecko) Chrome/132.0.0.0 Safari/537.36","WebKit","Chrome","132.0.0.0","Windows","10.0","https://app.prolific.com/","en-US,en;q=0.9","67171faf0f5a8adece49db86","679cf675428f47411a224827","679d169d40bc131050b97497","","768","","3","Intro Trial","",""
"","","","","","html-button-response","12","84272","0.0-4.8-0.8-0.8","3","1","2025-01-31 18:30:08","838ec4b49f044157bad9e156c8cbc4a3","134.29.63.149","Mozilla/5.0 (Windows NT 10.0; Win64; x64) AppleWebKit/537.36 (KHTML, like Gecko) Chrome/132.0.0.0 Safari/537.36","WebKit","Chrome","132.0.0.0","Windows","10.0","https://app.prolific.com/","en-US,en;q=0.9","67171faf0f5a8adece49db86","679cf675428f47411a224827","679d169d40bc131050b97497","","1112","","3","Intro Trial","",""
"","","","","","html-button-response","13","85050","0.0-4.9-0.9-0.9","3","1","2025-01-31 18:30:08","838ec4b49f044157bad9e156c8cbc4a3","134.29.63.149","Mozilla/5.0 (Windows NT 10.0; Win64; x64) AppleWebKit/537.36 (KHTML, like Gecko) Chrome/132.0.0.0 Safari/537.36","WebKit","Chrome","132.0.0.0","Windows","10.0","https://app.prolific.com/","en-US,en;q=0.9","67171faf0f5a8adece49db86","679cf675428f47411a224827","679d169d40bc131050b97497","","776","","4","Intro Trial","",""
"","","","","","html-button-response","14","86651","0.0-4.10-0.10-0.10","3","1","2025-01-31 18:30:08","838ec4b49f044157bad9e156c8cbc4a3","134.29.63.149","Mozilla/5.0 (Windows NT 10.0; Win64; x64) AppleWebKit/537.36 (KHTML, like Gecko) Chrome/132.0.0.0 Safari/537.36","WebKit","Chrome","132.0.0.0","Windows","10.0","https://app.prolific.com/","en-US,en;q=0.9","67171faf0f5a8adece49db86","679cf675428f47411a224827","679d169d40bc131050b97497","","1599","","4","Intro Trial","",""
"","","","","","html-button-response","15","87467","0.0-4.11-0.11-0.11","3","1","2025-01-31 18:30:08","838ec4b49f044157bad9e156c8cbc4a3","134.29.63.149","Mozilla/5.0 (Windows NT 10.0; Win64; x64) AppleWebKit/537.36 (KHTML, like Gecko) Chrome/132.0.0.0 Safari/537.36","WebKit","Chrome","132.0.0.0","Windows","10.0","https://app.prolific.com/","en-US,en;q=0.9","67171faf0f5a8adece49db86","679cf675428f47411a224827","679d169d40bc131050b97497","","815","","3","Intro Trial","",""
"","","","","","html-button-response","16","88252","0.0-4.12-0.12-0.12","3","1","2025-01-31 18:30:08","838ec4b49f044157bad9e156c8cbc4a3","134.29.63.149","Mozilla/5.0 (Windows NT 10.0; Win64; x64) AppleWebKit/537.36 (KHTML, like Gecko) Chrome/132.0.0.0 Safari/537.36","WebKit","Chrome","132.0.0.0","Windows","10.0","https://app.prolific.com/","en-US,en;q=0.9","67171faf0f5a8adece49db86","679cf675428f47411a224827","679d169d40bc131050b97497","","783","","3","Intro Trial","",""
"","","","","","html-button-response","17","89064","0.0-4.13-0.13-0.13","3","1","2025-01-31 18:30:08","838ec4b49f044157bad9e156c8cbc4a3","134.29.63.149","Mozilla/5.0 (Windows NT 10.0; Win64; x64) AppleWebKit/537.36 (KHTML, like Gecko) Chrome/132.0.0.0 Safari/537.36","WebKit","Chrome","132.0.0.0","Windows","10.0","https://app.prolific.com/","en-US,en;q=0.9","67171faf0f5a8adece49db86","679cf675428f47411a224827","679d169d40bc131050b97497","","811","","2","Intro Trial","",""
"","","","","","html-button-response","18","91195","0.0-4.14-0.14-0.14","3","1","2025-01-31 18:30:08","838ec4b49f044157bad9e156c8cbc4a3","134.29.63.149","Mozilla/5.0 (Windows NT 10.0; Win64; x64) AppleWebKit/537.36 (KHTML, like Gecko) Chrome/132.0.0.0 Safari/537.36","WebKit","Chrome","132.0.0.0","Windows","10.0","https://app.prolific.com/","en-US,en;q=0.9","67171faf0f5a8adece49db86","679cf675428f47411a224827","679d169d40bc131050b97497","","2129","","2","Intro Trial","",""
"","","","","","html-button-response","19","91834","0.0-4.15-0.15-0.15","3","1","2025-01-31 18:30:08","838ec4b49f044157bad9e156c8cbc4a3","134.29.63.149","Mozilla/5.0 (Windows NT 10.0; Win64; x64) AppleWebKit/537.36 (KHTML, like Gecko) Chrome/132.0.0.0 Safari/537.36","WebKit","Chrome","132.0.0.0","Windows","10.0","https://app.prolific.com/","en-US,en;q=0.9","67171faf0f5a8adece49db86","679cf675428f47411a224827","679d169d40bc131050b97497","","638","","1","Intro Trial","",""
"","","","","","html-button-response","20","92735","0.0-4.16-0.16-0.16","3","1","2025-01-31 18:30:08","838ec4b49f044157bad9e156c8cbc4a3","134.29.63.149","Mozilla/5.0 (Windows NT 10.0; Win64; x64) AppleWebKit/537.36 (KHTML, like Gecko) Chrome/132.0.0.0 Safari/537.36","WebKit","Chrome","132.0.0.0","Windows","10.0","https://app.prolific.com/","en-US,en;q=0.9","67171faf0f5a8adece49db86","679cf675428f47411a224827","679d169d40bc131050b97497","","899","","1","Intro Trial","",""
"","","","","","html-button-response","21","93532","0.0-4.17-0.17-0.17","3","1","2025-01-31 18:30:08","838ec4b49f044157bad9e156c8cbc4a3","134.29.63.149","Mozilla/5.0 (Windows NT 10.0; Win64; x64) AppleWebKit/537.36 (KHTML, like Gecko) Chrome/132.0.0.0 Safari/537.36","WebKit","Chrome","132.0.0.0","Windows","10.0","https://app.prolific.com/","en-US,en;q=0.9","67171faf0f5a8adece49db86","679cf675428f47411a224827","679d169d40bc131050b97497","","795","","0","Intro Trial","",""
"","","","","","html-button-response","22","94577","0.0-4.18-0.18-0.18","3","1","2025-01-31 18:30:08","838ec4b49f044157bad9e156c8cbc4a3","134.29.63.149","Mozilla/5.0 (Windows NT 10.0; Win64; x64) AppleWebKit/537.36 (KHTML, like Gecko) Chrome/132.0.0.0 Safari/537.36","WebKit","Chrome","132.0.0.0","Windows","10.0","https://app.prolific.com/","en-US,en;q=0.9","67171faf0f5a8adece49db86","679cf675428f47411a224827","679d169d40bc131050b97497","","1043","","0","Intro Trial","",""
"","","","","","html-button-response","23","95326","0.0-4.19-0.19-0.19","3","1","2025-01-31 18:30:08","838ec4b49f044157bad9e156c8cbc4a3","134.29.63.149","Mozilla/5.0 (Windows NT 10.0; Win64; x64) AppleWebKit/537.36 (KHTML, like Gecko) Chrome/132.0.0.0 Safari/537.36","WebKit","Chrome","132.0.0.0","Windows","10.0","https://app.prolific.com/","en-US,en;q=0.9","67171faf0f5a8adece49db86","679cf675428f47411a224827","679d169d40bc131050b97497","","748","","1","Intro Trial","",""
"","","","","","html-button-response","24","96111","0.0-4.20-0.20-0.20","3","1","2025-01-31 18:30:08","838ec4b49f044157bad9e156c8cbc4a3","134.29.63.149","Mozilla/5.0 (Windows NT 10.0; Win64; x64) AppleWebKit/537.36 (KHTML, like Gecko) Chrome/132.0.0.0 Safari/537.36","WebKit","Chrome","132.0.0.0","Windows","10.0","https://app.prolific.com/","en-US,en;q=0.9","67171faf0f5a8adece49db86","679cf675428f47411a224827","679d169d40bc131050b97497","","783","","1","Intro Trial","",""
"","","","","","html-button-response","25","96839","0.0-4.21-0.21-0.21","3","1","2025-01-31 18:30:08","838ec4b49f044157bad9e156c8cbc4a3","134.29.63.149","Mozilla/5.0 (Windows NT 10.0; Win64; x64) AppleWebKit/537.36 (KHTML, like Gecko) Chrome/132.0.0.0 Safari/537.36","WebKit","Chrome","132.0.0.0","Windows","10.0","https://app.prolific.com/","en-US,en;q=0.9","67171faf0f5a8adece49db86","679cf675428f47411a224827","679d169d40bc131050b97497","","726","","2","Intro Trial","",""
"","","","","","html-button-response","26","98448","0.0-4.22-0.22-0.22","3","1","2025-01-31 18:30:08","838ec4b49f044157bad9e156c8cbc4a3","134.29.63.149","Mozilla/5.0 (Windows NT 10.0; Win64; x64) AppleWebKit/537.36 (KHTML, like Gecko) Chrome/132.0.0.0 Safari/537.36","WebKit","Chrome","132.0.0.0","Windows","10.0","https://app.prolific.com/","en-US,en;q=0.9","67171faf0f5a8adece49db86","679cf675428f47411a224827","679d169d40bc131050b97497","","1608","","2","Intro Trial","",""
"","","","","","html-button-response","27","99134","0.0-4.23-0.23-0.23","3","1","2025-01-31 18:30:08","838ec4b49f044157bad9e156c8cbc4a3","134.29.63.149","Mozilla/5.0 (Windows NT 10.0; Win64; x64) AppleWebKit/537.36 (KHTML, like Gecko) Chrome/132.0.0.0 Safari/537.36","WebKit","Chrome","132.0.0.0","Windows","10.0","https://app.prolific.com/","en-US,en;q=0.9","67171faf0f5a8adece49db86","679cf675428f47411a224827","679d169d40bc131050b97497","","685","","3","Intro Trial","",""
"","","","","","html-button-response","28","100598","0.0-4.24-0.24-0.24","3","1","2025-01-31 18:30:08","838ec4b49f044157bad9e156c8cbc4a3","134.29.63.149","Mozilla/5.0 (Windows NT 10.0; Win64; x64) AppleWebKit/537.36 (KHTML, like Gecko) Chrome/132.0.0.0 Safari/537.36","WebKit","Chrome","132.0.0.0","Windows","10.0","https://app.prolific.com/","en-US,en;q=0.9","67171faf0f5a8adece49db86","679cf675428f47411a224827","679d169d40bc131050b97497","","1462","","4","Intro Trial","",""
"","","","","","html-button-response","29","102579","0.0-4.25-0.25-0.25","3","1","2025-01-31 18:30:08","838ec4b49f044157bad9e156c8cbc4a3","134.29.63.149","Mozilla/5.0 (Windows NT 10.0; Win64; x64) AppleWebKit/537.36 (KHTML, like Gecko) Chrome/132.0.0.0 Safari/537.36","WebKit","Chrome","132.0.0.0","Windows","10.0","https://app.prolific.com/","en-US,en;q=0.9","67171faf0f5a8adece49db86","679cf675428f47411a224827","679d169d40bc131050b97497","","1979","","5","Intro Trial","",""
"","","","","","html-keyboard-response","30","111321","0.0-5.0","3","1","2025-01-31 18:30:08","838ec4b49f044157bad9e156c8cbc4a3","134.29.63.149","Mozilla/5.0 (Windows NT 10.0; Win64; x64) AppleWebKit/537.36 (KHTML, like Gecko) Chrome/132.0.0.0 Safari/537.36","WebKit","Chrome","132.0.0.0","Windows","10.0","https://app.prolific.com/","en-US,en;q=0.9","67171faf0f5a8adece49db86","679cf675428f47411a224827","679d169d40bc131050b97497","","8740","[""You sorted correctly by using the balance 12 times. <br><br> <img src='G_5.jpg' height='90'><img src='G_2.jpg' height='90'><img src='G_3.jpg' height='90'><img src='G_1.jpg' height='90'><img src='G_4.jpg' height='90'><br><br> Your final order is 1,2,3,4,5<br><br><br>Omgne Sort in this game will allow you to sort correctly by using the balance 8 times. Press Enter to learn it!""]","enter","","",""
"","","","","","html-keyboard-response","31","115937","0.0-6.0","3","1","2025-01-31 18:30:08","838ec4b49f044157bad9e156c8cbc4a3","134.29.63.149","Mozilla/5.0 (Windows NT 10.0; Win64; x64) AppleWebKit/537.36 (KHTML, like Gecko) Chrome/132.0.0.0 Safari/537.36","WebKit","Chrome","132.0.0.0","Windows","10.0","https://app.prolific.com/","en-US,en;q=0.9","67171faf0f5a8adece49db86","679cf675428f47411a224827","679d169d40bc131050b97497","","4615","<p>Welcome to the learning phase! <br><br> You will learn by six examples. The following learning trials will not be used to calculate your performance. <br><br> Press Enter to continue.<p/>","enter","","",""
"","","","","","html-keyboard-response","32","120409","0.0-7.0","3","1","2025-01-31 18:30:08","838ec4b49f044157bad9e156c8cbc4a3","134.29.63.149","Mozilla/5.0 (Windows NT 10.0; Win64; x64) AppleWebKit/537.36 (KHTML, like Gecko) Chrome/132.0.0.0 Safari/537.36","WebKit","Chrome","132.0.0.0","Windows","10.0","https://app.prolific.com/","en-US,en;q=0.9","67171faf0f5a8adece49db86","679cf675428f47411a224827","679d169d40bc131050b97497","","4471","[""Example 1<br><br>You will watch Omnge Sort in action. Try to identify any patterns in the comparisons made by this method. <br><br>Press Enter to continue.""]","enter","","",""
"","","","","","html-keyboard-response","33","120914","0.0-8.0","3","1","2025-01-31 18:30:08","838ec4b49f044157bad9e156c8cbc4a3","134.29.63.149","Mozilla/5.0 (Windows NT 10.0; Win64; x64) AppleWebKit/537.36 (KHTML, like Gecko) Chrome/132.0.0.0 Safari/537.36","WebKit","Chrome","132.0.0.0","Windows","10.0","https://app.prolific.com/","en-US,en;q=0.9","67171faf0f5a8adece49db86","679cf675428f47411a224827","679d169d40bc131050b97497","","null","<img id='selected' src='G_5.jpg' height='90'> <img src='G_9.jpg' height='90'> <img src='G_1.jpg' height='90'> <img src='G_3.jpg' height='90'> <img src='G_7.jpg' height='90'>","null","Animation0","",""
"","","","","","html-keyboard-response","34","121420","0.0-9.0","3","1","2025-01-31 18:30:08","838ec4b49f044157bad9e156c8cbc4a3","134.29.63.149","Mozilla/5.0 (Windows NT 10.0; Win64; x64) AppleWebKit/537.36 (KHTML, like Gecko) Chrome/132.0.0.0 Safari/537.36","WebKit","Chrome","132.0.0.0","Windows","10.0","https://app.prolific.com/","en-US,en;q=0.9","67171faf0f5a8adece49db86","679cf675428f47411a224827","679d169d40bc131050b97497","","null","<img id='selected' src='G_5.jpg' height='90'> <img id='selected' src='G_9.jpg' height='90'> <img src='G_1.jpg' height='90'> <img src='G_3.jpg' height='90'> <img src='G_7.jpg' height='90'>","null","Animation0","",""
"","","","","","html-keyboard-response","35","121928","0.0-10.0","3","1","2025-01-31 18:30:08","838ec4b49f044157bad9e156c8cbc4a3","134.29.63.149","Mozilla/5.0 (Windows NT 10.0; Win64; x64) AppleWebKit/537.36 (KHTML, like Gecko) Chrome/132.0.0.0 Safari/537.36","WebKit","Chrome","132.0.0.0","Windows","10.0","https://app.prolific.com/","en-US,en;q=0.9","67171faf0f5a8adece49db86","679cf675428f47411a224827","679d169d40bc131050b97497","","null","<img id='swapped' src='G_9.jpg' height='90'> <img id='swapped' src='G_5.jpg' height='90'> <img src='G_1.jpg' height='90'> <img src='G_3.jpg' height='90'> <img src='G_7.jpg' height='90'>","null","Animation0","",""
"","","","","","html-keyboard-response","36","122231","0.0-11.0","3","1","2025-01-31 18:30:08","838ec4b49f044157bad9e156c8cbc4a3","134.29.63.149","Mozilla/5.0 (Windows NT 10.0; Win64; x64) AppleWebKit/537.36 (KHTML, like Gecko) Chrome/132.0.0.0 Safari/537.36","WebKit","Chrome","132.0.0.0","Windows","10.0","https://app.prolific.com/","en-US,en;q=0.9","67171faf0f5a8adece49db86","679cf675428f47411a224827","679d169d40bc131050b97497","","null","<img  src='G_9.jpg' height='90'> <img  src='G_5.jpg' height='90'> <img src='G_1.jpg' height='90'> <img src='G_3.jpg' height='90'> <img src='G_7.jpg' height='90'>","null","Animation0","",""
"","","","","","html-keyboard-response","37","122741","0.0-12.0","3","1","2025-01-31 18:30:08","838ec4b49f044157bad9e156c8cbc4a3","134.29.63.149","Mozilla/5.0 (Windows NT 10.0; Win64; x64) AppleWebKit/537.36 (KHTML, like Gecko) Chrome/132.0.0.0 Safari/537.36","WebKit","Chrome","132.0.0.0","Windows","10.0","https://app.prolific.com/","en-US,en;q=0.9","67171faf0f5a8adece49db86","679cf675428f47411a224827","679d169d40bc131050b97497","","null","<img  src='G_9.jpg' height='90'> <img id='selected'  src='G_5.jpg' height='90'> <img src='G_1.jpg' height='90'> <img src='G_3.jpg' height='90'> <img src='G_7.jpg' height='90'>","null","Animation0","",""
"","","","","","html-keyboard-response","38","123247","0.0-13.0","3","1","2025-01-31 18:30:08","838ec4b49f044157bad9e156c8cbc4a3","134.29.63.149","Mozilla/5.0 (Windows NT 10.0; Win64; x64) AppleWebKit/537.36 (KHTML, like Gecko) Chrome/132.0.0.0 Safari/537.36","WebKit","Chrome","132.0.0.0","Windows","10.0","https://app.prolific.com/","en-US,en;q=0.9","67171faf0f5a8adece49db86","679cf675428f47411a224827","679d169d40bc131050b97497","","null","<img  src='G_9.jpg' height='90'> <img id='selected'  src='G_5.jpg' height='90'> <img id='selected' src='G_1.jpg' height='90'> <img src='G_3.jpg' height='90'> <img src='G_7.jpg' height='90'>","null","Animation0","",""
"","","","","","html-keyboard-response","39","123758","0.0-14.0","3","1","2025-01-31 18:30:08","838ec4b49f044157bad9e156c8cbc4a3","134.29.63.149","Mozilla/5.0 (Windows NT 10.0; Win64; x64) AppleWebKit/537.36 (KHTML, like Gecko) Chrome/132.0.0.0 Safari/537.36","WebKit","Chrome","132.0.0.0","Windows","10.0","https://app.prolific.com/","en-US,en;q=0.9","67171faf0f5a8adece49db86","679cf675428f47411a224827","679d169d40bc131050b97497","","null","<img  src='G_9.jpg' height='90'> <img id='selected'  src='G_5.jpg' height='90'> <img id='selected' src='G_1.jpg' height='90'> <img src='G_3.jpg' height='90'> <img src='G_7.jpg' height='90'>","null","Animation0","",""
"","","","","","html-keyboard-response","40","124061","0.0-15.0","3","1","2025-01-31 18:30:08","838ec4b49f044157bad9e156c8cbc4a3","134.29.63.149","Mozilla/5.0 (Windows NT 10.0; Win64; x64) AppleWebKit/537.36 (KHTML, like Gecko) Chrome/132.0.0.0 Safari/537.36","WebKit","Chrome","132.0.0.0","Windows","10.0","https://app.prolific.com/","en-US,en;q=0.9","67171faf0f5a8adece49db86","679cf675428f47411a224827","679d169d40bc131050b97497","","null","<img  src='G_9.jpg' height='90'> <img   src='G_5.jpg' height='90'> <img  src='G_1.jpg' height='90'> <img src='G_3.jpg' height='90'> <img src='G_7.jpg' height='90'>","null","Animation0","",""
"","","","","","html-keyboard-response","41","124565","0.0-16.0","3","1","2025-01-31 18:30:08","838ec4b49f044157bad9e156c8cbc4a3","134.29.63.149","Mozilla/5.0 (Windows NT 10.0; Win64; x64) AppleWebKit/537.36 (KHTML, like Gecko) Chrome/132.0.0.0 Safari/537.36","WebKit","Chrome","132.0.0.0","Windows","10.0","https://app.prolific.com/","en-US,en;q=0.9","67171faf0f5a8adece49db86","679cf675428f47411a224827","679d169d40bc131050b97497","","null","<img  src='G_9.jpg' height='90'> <img   src='G_5.jpg' height='90'> <img id='selected'  src='G_1.jpg' height='90'> <img src='G_3.jpg' height='90'> <img src='G_7.jpg' height='90'>","null","Animation0","",""
"","","","","","html-keyboard-response","42","125070","0.0-17.0","3","1","2025-01-31 18:30:08","838ec4b49f044157bad9e156c8cbc4a3","134.29.63.149","Mozilla/5.0 (Windows NT 10.0; Win64; x64) AppleWebKit/537.36 (KHTML, like Gecko) Chrome/132.0.0.0 Safari/537.36","WebKit","Chrome","132.0.0.0","Windows","10.0","https://app.prolific.com/","en-US,en;q=0.9","67171faf0f5a8adece49db86","679cf675428f47411a224827","679d169d40bc131050b97497","","null","<img  src='G_9.jpg' height='90'> <img   src='G_5.jpg' height='90'> <img id='selected'  src='G_1.jpg' height='90'> <img id='selected' src='G_3.jpg' height='90'> <img src='G_7.jpg' height='90'>","null","Animation0","",""
"","","","","","html-keyboard-response","43","125577","0.0-18.0","3","1","2025-01-31 18:30:08","838ec4b49f044157bad9e156c8cbc4a3","134.29.63.149","Mozilla/5.0 (Windows NT 10.0; Win64; x64) AppleWebKit/537.36 (KHTML, like Gecko) Chrome/132.0.0.0 Safari/537.36","WebKit","Chrome","132.0.0.0","Windows","10.0","https://app.prolific.com/","en-US,en;q=0.9","67171faf0f5a8adece49db86","679cf675428f47411a224827","679d169d40bc131050b97497","","null","<img  src='G_9.jpg' height='90'> <img   src='G_5.jpg' height='90'> <img id='selected'  src='G_1.jpg' height='90'> <img id='selected' src='G_3.jpg' height='90'> <img src='G_7.jpg' height='90'>","null","Animation0","",""
"","","","","","html-keyboard-response","44","125880","0.0-19.0","3","1","2025-01-31 18:30:08","838ec4b49f044157bad9e156c8cbc4a3","134.29.63.149","Mozilla/5.0 (Windows NT 10.0; Win64; x64) AppleWebKit/537.36 (KHTML, like Gecko) Chrome/132.0.0.0 Safari/537.36","WebKit","Chrome","132.0.0.0","Windows","10.0","https://app.prolific.com/","en-US,en;q=0.9","67171faf0f5a8adece49db86","679cf675428f47411a224827","679d169d40bc131050b97497","","null","<img  src='G_9.jpg' height='90'> <img   src='G_5.jpg' height='90'> <img   src='G_1.jpg' height='90'> <img  src='G_3.jpg' height='90'> <img src='G_7.jpg' height='90'>","null","Animation0","",""
"","","","","","html-keyboard-response","45","126384","0.0-20.0","3","1","2025-01-31 18:30:08","838ec4b49f044157bad9e156c8cbc4a3","134.29.63.149","Mozilla/5.0 (Windows NT 10.0; Win64; x64) AppleWebKit/537.36 (KHTML, like Gecko) Chrome/132.0.0.0 Safari/537.36","WebKit","Chrome","132.0.0.0","Windows","10.0","https://app.prolific.com/","en-US,en;q=0.9","67171faf0f5a8adece49db86","679cf675428f47411a224827","679d169d40bc131050b97497","","null","<img  src='G_9.jpg' height='90'> <img   src='G_5.jpg' height='90'> <img   src='G_1.jpg' height='90'> <img id='selected'  src='G_3.jpg' height='90'> <img src='G_7.jpg' height='90'>","null","Animation0","",""
"","","","","","html-keyboard-response","46","126891","0.0-21.0","3","1","2025-01-31 18:30:08","838ec4b49f044157bad9e156c8cbc4a3","134.29.63.149","Mozilla/5.0 (Windows NT 10.0; Win64; x64) AppleWebKit/537.36 (KHTML, like Gecko) Chrome/132.0.0.0 Safari/537.36","WebKit","Chrome","132.0.0.0","Windows","10.0","https://app.prolific.com/","en-US,en;q=0.9","67171faf0f5a8adece49db86","679cf675428f47411a224827","679d169d40bc131050b97497","","null","<img  src='G_9.jpg' height='90'> <img   src='G_5.jpg' height='90'> <img   src='G_1.jpg' height='90'> <img id='selected'  src='G_3.jpg' height='90'> <img id='selected' src='G_7.jpg' height='90'>","null","Animation0","",""
"","","","","","html-keyboard-response","47","127397","0.0-22.0","3","1","2025-01-31 18:30:08","838ec4b49f044157bad9e156c8cbc4a3","134.29.63.149","Mozilla/5.0 (Windows NT 10.0; Win64; x64) AppleWebKit/537.36 (KHTML, like Gecko) Chrome/132.0.0.0 Safari/537.36","WebKit","Chrome","132.0.0.0","Windows","10.0","https://app.prolific.com/","en-US,en;q=0.9","67171faf0f5a8adece49db86","679cf675428f47411a224827","679d169d40bc131050b97497","","null","<img  src='G_9.jpg' height='90'> <img   src='G_5.jpg' height='90'> <img   src='G_1.jpg' height='90'> <img id='selected'  src='G_3.jpg' height='90'> <img id='selected' src='G_7.jpg' height='90'>","null","Animation0","",""
"","","","","","html-keyboard-response","48","127703","0.0-23.0","3","1","2025-01-31 18:30:08","838ec4b49f044157bad9e156c8cbc4a3","134.29.63.149","Mozilla/5.0 (Windows NT 10.0; Win64; x64) AppleWebKit/537.36 (KHTML, like Gecko) Chrome/132.0.0.0 Safari/537.36","WebKit","Chrome","132.0.0.0","Windows","10.0","https://app.prolific.com/","en-US,en;q=0.9","67171faf0f5a8adece49db86","679cf675428f47411a224827","679d169d40bc131050b97497","","null","<img  src='G_9.jpg' height='90'> <img   src='G_5.jpg' height='90'> <img   src='G_1.jpg' height='90'> <img   src='G_3.jpg' height='90'> <img  src='G_7.jpg' height='90'>","null","Animation0","",""
"","","","","","html-keyboard-response","49","130622","0.0-24.0","3","1","2025-01-31 18:30:08","838ec4b49f044157bad9e156c8cbc4a3","134.29.63.149","Mozilla/5.0 (Windows NT 10.0; Win64; x64) AppleWebKit/537.36 (KHTML, like Gecko) Chrome/132.0.0.0 Safari/537.36","WebKit","Chrome","132.0.0.0","Windows","10.0","https://app.prolific.com/","en-US,en;q=0.9","67171faf0f5a8adece49db86","679cf675428f47411a224827","679d169d40bc131050b97497","","2918","[""Did you notice any patterns? <br><br>Press Enter to watch that example again and follow the steps of Omgne Sort.""]","enter","","",""
"","","","","","html-button-response","50","131030","0.0-25.0","3","1","2025-01-31 18:30:08","838ec4b49f044157bad9e156c8cbc4a3","134.29.63.149","Mozilla/5.0 (Windows NT 10.0; Win64; x64) AppleWebKit/537.36 (KHTML, like Gecko) Chrome/132.0.0.0 Safari/537.36","WebKit","Chrome","132.0.0.0","Windows","10.0","https://app.prolific.com/","en-US,en;q=0.9","67171faf0f5a8adece49db86","679cf675428f47411a224827","679d169d40bc131050b97497","","null","<img id='selected' src='G_5.jpg' height='90'> <img src='G_9.jpg' height='90'> <img src='G_1.jpg' height='90'> <img src='G_3.jpg' height='90'> <img src='G_7.jpg' height='90'>","null","Learning example 0","",""
"","","","","","html-button-response","51","131338","0.0-26.0","3","1","2025-01-31 18:30:08","838ec4b49f044157bad9e156c8cbc4a3","134.29.63.149","Mozilla/5.0 (Windows NT 10.0; Win64; x64) AppleWebKit/537.36 (KHTML, like Gecko) Chrome/132.0.0.0 Safari/537.36","WebKit","Chrome","132.0.0.0","Windows","10.0","https://app.prolific.com/","en-US,en;q=0.9","67171faf0f5a8adece49db86","679cf675428f47411a224827","679d169d40bc131050b97497","","null","<img id='selected' src='G_5.jpg' height='90'> <img id='selected' src='G_9.jpg' height='90'> <img src='G_1.jpg' height='90'> <img src='G_3.jpg' height='90'> <img src='G_7.jpg' height='90'>","null","Learning example 0","",""
"","","","","","html-button-response","52","131647","0.0-27.0","3","1","2025-01-31 18:30:08","838ec4b49f044157bad9e156c8cbc4a3","134.29.63.149","Mozilla/5.0 (Windows NT 10.0; Win64; x64) AppleWebKit/537.36 (KHTML, like Gecko) Chrome/132.0.0.0 Safari/537.36","WebKit","Chrome","132.0.0.0","Windows","10.0","https://app.prolific.com/","en-US,en;q=0.9","67171faf0f5a8adece49db86","679cf675428f47411a224827","679d169d40bc131050b97497","","null","<img id='swapped' src='G_9.jpg' height='90'> <img id='swapped' src='G_5.jpg' height='90'> <img src='G_1.jpg' height='90'> <img src='G_3.jpg' height='90'> <img src='G_7.jpg' height='90'>","null","Learning example 0","",""
"","","","","","html-button-response","53","133519","0.0-28.0-0.0-0.0","3","1","2025-01-31 18:30:08","838ec4b49f044157bad9e156c8cbc4a3","134.29.63.149","Mozilla/5.0 (Windows NT 10.0; Win64; x64) AppleWebKit/537.36 (KHTML, like Gecko) Chrome/132.0.0.0 Safari/537.36","WebKit","Chrome","132.0.0.0","Windows","10.0","https://app.prolific.com/","en-US,en;q=0.9","67171faf0f5a8adece49db86","679cf675428f47411a224827","679d169d40bc131050b97497","","1870","<img id='swapped' src='G_9.jpg' height='90'> <img id='swapped' src='G_5.jpg' height='90'> <img src='G_1.jpg' height='90'> <img src='G_3.jpg' height='90'> <img src='G_7.jpg' height='90'>","0","Learning example 0","",""
"","","","","","html-button-response","54","134062","0.0-28.1-0.1-0.1","3","1","2025-01-31 18:30:08","838ec4b49f044157bad9e156c8cbc4a3","134.29.63.149","Mozilla/5.0 (Windows NT 10.0; Win64; x64) AppleWebKit/537.36 (KHTML, like Gecko) Chrome/132.0.0.0 Safari/537.36","WebKit","Chrome","132.0.0.0","Windows","10.0","https://app.prolific.com/","en-US,en;q=0.9","67171faf0f5a8adece49db86","679cf675428f47411a224827","679d169d40bc131050b97497","","541","<img id='swapped' src='G_9.jpg' height='90'> <img id='swapped' src='G_5.jpg' height='90'> <img src='G_1.jpg' height='90'> <img src='G_3.jpg' height='90'> <img src='G_7.jpg' height='90'>","1","Learning example 0","",""
"","","","","","html-button-response","55","134295","0.0-29.0","3","1","2025-01-31 18:30:08","838ec4b49f044157bad9e156c8cbc4a3","134.29.63.149","Mozilla/5.0 (Windows NT 10.0; Win64; x64) AppleWebKit/537.36 (KHTML, like Gecko) Chrome/132.0.0.0 Safari/537.36","WebKit","Chrome","132.0.0.0","Windows","10.0","https://app.prolific.com/","en-US,en;q=0.9","67171faf0f5a8adece49db86","679cf675428f47411a224827","679d169d40bc131050b97497","","null","<img  src='G_9.jpg' height='90'> <img  src='G_5.jpg' height='90'> <img src='G_1.jpg' height='90'> <img src='G_3.jpg' height='90'> <img src='G_7.jpg' height='90'>","null","Learning example 0","",""
"","","","","","html-button-response","56","134697","0.0-30.0","3","1","2025-01-31 18:30:08","838ec4b49f044157bad9e156c8cbc4a3","134.29.63.149","Mozilla/5.0 (Windows NT 10.0; Win64; x64) AppleWebKit/537.36 (KHTML, like Gecko) Chrome/132.0.0.0 Safari/537.36","WebKit","Chrome","132.0.0.0","Windows","10.0","https://app.prolific.com/","en-US,en;q=0.9","67171faf0f5a8adece49db86","679cf675428f47411a224827","679d169d40bc131050b97497","","null","<img  src='G_9.jpg' height='90'> <img id='selected'  src='G_5.jpg' height='90'> <img src='G_1.jpg' height='90'> <img src='G_3.jpg' height='90'> <img src='G_7.jpg' height='90'>","null","Learning example 0","",""
"","","","","","html-button-response","57","135003","0.0-31.0","3","1","2025-01-31 18:30:08","838ec4b49f044157bad9e156c8cbc4a3","134.29.63.149","Mozilla/5.0 (Windows NT 10.0; Win64; x64) AppleWebKit/537.36 (KHTML, like Gecko) Chrome/132.0.0.0 Safari/537.36","WebKit","Chrome","132.0.0.0","Windows","10.0","https://app.prolific.com/","en-US,en;q=0.9","67171faf0f5a8adece49db86","679cf675428f47411a224827","679d169d40bc131050b97497","","null","<img  src='G_9.jpg' height='90'> <img id='selected'  src='G_5.jpg' height='90'> <img id='selected' src='G_1.jpg' height='90'> <img src='G_3.jpg' height='90'> <img src='G_7.jpg' height='90'>","null","Learning example 0","",""
"","","","","","html-button-response","58","135314","0.0-32.0","3","1","2025-01-31 18:30:08","838ec4b49f044157bad9e156c8cbc4a3","134.29.63.149","Mozilla/5.0 (Windows NT 10.0; Win64; x64) AppleWebKit/537.36 (KHTML, like Gecko) Chrome/132.0.0.0 Safari/537.36","WebKit","Chrome","132.0.0.0","Windows","10.0","https://app.prolific.com/","en-US,en;q=0.9","67171faf0f5a8adece49db86","679cf675428f47411a224827","679d169d40bc131050b97497","","null","<img  src='G_9.jpg' height='90'> <img id='selected'  src='G_5.jpg' height='90'> <img id='selected' src='G_1.jpg' height='90'> <img src='G_3.jpg' height='90'> <img src='G_7.jpg' height='90'>","null","Learning example 0","",""
"","","","","","html-button-response","59","135416","0.0-33.0-0.0-0.0","3","1","2025-01-31 18:30:08","838ec4b49f044157bad9e156c8cbc4a3","134.29.63.149","Mozilla/5.0 (Windows NT 10.0; Win64; x64) AppleWebKit/537.36 (KHTML, like Gecko) Chrome/132.0.0.0 Safari/537.36","WebKit","Chrome","132.0.0.0","Windows","10.0","https://app.prolific.com/","en-US,en;q=0.9","67171faf0f5a8adece49db86","679cf675428f47411a224827","679d169d40bc131050b97497","","98","<img  src='G_9.jpg' height='90'> <img id='selected'  src='G_5.jpg' height='90'> <img id='selected' src='G_1.jpg' height='90'> <img src='G_3.jpg' height='90'> <img src='G_7.jpg' height='90'>","1","Learning example 0","",""
"","","","","","html-button-response","60","135966","0.0-33.1-0.1-0.1","3","1","2025-01-31 18:30:08","838ec4b49f044157bad9e156c8cbc4a3","134.29.63.149","Mozilla/5.0 (Windows NT 10.0; Win64; x64) AppleWebKit/537.36 (KHTML, like Gecko) Chrome/132.0.0.0 Safari/537.36","WebKit","Chrome","132.0.0.0","Windows","10.0","https://app.prolific.com/","en-US,en;q=0.9","67171faf0f5a8adece49db86","679cf675428f47411a224827","679d169d40bc131050b97497","","547","<img  src='G_9.jpg' height='90'> <img id='selected'  src='G_5.jpg' height='90'> <img id='selected' src='G_1.jpg' height='90'> <img src='G_3.jpg' height='90'> <img src='G_7.jpg' height='90'>","2","Learning example 0","",""
"","","","","","html-button-response","61","136195","0.0-34.0","3","1","2025-01-31 18:30:08","838ec4b49f044157bad9e156c8cbc4a3","134.29.63.149","Mozilla/5.0 (Windows NT 10.0; Win64; x64) AppleWebKit/537.36 (KHTML, like Gecko) Chrome/132.0.0.0 Safari/537.36","WebKit","Chrome","132.0.0.0","Windows","10.0","https://app.prolific.com/","en-US,en;q=0.9","67171faf0f5a8adece49db86","679cf675428f47411a224827","679d169d40bc131050b97497","","null","<img  src='G_9.jpg' height='90'> <img   src='G_5.jpg' height='90'> <img  src='G_1.jpg' height='90'> <img src='G_3.jpg' height='90'> <img src='G_7.jpg' height='90'>","null","Learning example 0","",""
"","","","","","html-button-response","62","136598","0.0-35.0","3","1","2025-01-31 18:30:08","838ec4b49f044157bad9e156c8cbc4a3","134.29.63.149","Mozilla/5.0 (Windows NT 10.0; Win64; x64) AppleWebKit/537.36 (KHTML, like Gecko) Chrome/132.0.0.0 Safari/537.36","WebKit","Chrome","132.0.0.0","Windows","10.0","https://app.prolific.com/","en-US,en;q=0.9","67171faf0f5a8adece49db86","679cf675428f47411a224827","679d169d40bc131050b97497","","null","<img  src='G_9.jpg' height='90'> <img   src='G_5.jpg' height='90'> <img id='selected'  src='G_1.jpg' height='90'> <img src='G_3.jpg' height='90'> <img src='G_7.jpg' height='90'>","null","Learning example 0","",""
"","","","","","html-button-response","63","136903","0.0-36.0","3","1","2025-01-31 18:30:08","838ec4b49f044157bad9e156c8cbc4a3","134.29.63.149","Mozilla/5.0 (Windows NT 10.0; Win64; x64) AppleWebKit/537.36 (KHTML, like Gecko) Chrome/132.0.0.0 Safari/537.36","WebKit","Chrome","132.0.0.0","Windows","10.0","https://app.prolific.com/","en-US,en;q=0.9","67171faf0f5a8adece49db86","679cf675428f47411a224827","679d169d40bc131050b97497","","null","<img  src='G_9.jpg' height='90'> <img   src='G_5.jpg' height='90'> <img id='selected'  src='G_1.jpg' height='90'> <img id='selected' src='G_3.jpg' height='90'> <img src='G_7.jpg' height='90'>","null","Learning example 0","",""
"","","","","","html-button-response","64","137210","0.0-37.0","3","1","2025-01-31 18:30:08","838ec4b49f044157bad9e156c8cbc4a3","134.29.63.149","Mozilla/5.0 (Windows NT 10.0; Win64; x64) AppleWebKit/537.36 (KHTML, like Gecko) Chrome/132.0.0.0 Safari/537.36","WebKit","Chrome","132.0.0.0","Windows","10.0","https://app.prolific.com/","en-US,en;q=0.9","67171faf0f5a8adece49db86","679cf675428f47411a224827","679d169d40bc131050b97497","","null","<img  src='G_9.jpg' height='90'> <img   src='G_5.jpg' height='90'> <img id='selected'  src='G_1.jpg' height='90'> <img id='selected' src='G_3.jpg' height='90'> <img src='G_7.jpg' height='90'>","null","Learning example 0","",""
"","","","","","html-button-response","65","137382","0.0-38.0-0.0-0.0","3","1","2025-01-31 18:30:08","838ec4b49f044157bad9e156c8cbc4a3","134.29.63.149","Mozilla/5.0 (Windows NT 10.0; Win64; x64) AppleWebKit/537.36 (KHTML, like Gecko) Chrome/132.0.0.0 Safari/537.36","WebKit","Chrome","132.0.0.0","Windows","10.0","https://app.prolific.com/","en-US,en;q=0.9","67171faf0f5a8adece49db86","679cf675428f47411a224827","679d169d40bc131050b97497","","168","<img  src='G_9.jpg' height='90'> <img   src='G_5.jpg' height='90'> <img id='selected'  src='G_1.jpg' height='90'> <img id='selected' src='G_3.jpg' height='90'> <img src='G_7.jpg' height='90'>","2","Learning example 0","",""
"","","","","","html-button-response","66","137917","0.0-38.1-0.1-0.1","3","1","2025-01-31 18:30:08","838ec4b49f044157bad9e156c8cbc4a3","134.29.63.149","Mozilla/5.0 (Windows NT 10.0; Win64; x64) AppleWebKit/537.36 (KHTML, like Gecko) Chrome/132.0.0.0 Safari/537.36","WebKit","Chrome","132.0.0.0","Windows","10.0","https://app.prolific.com/","en-US,en;q=0.9","67171faf0f5a8adece49db86","679cf675428f47411a224827","679d169d40bc131050b97497","","533","<img  src='G_9.jpg' height='90'> <img   src='G_5.jpg' height='90'> <img id='selected'  src='G_1.jpg' height='90'> <img id='selected' src='G_3.jpg' height='90'> <img src='G_7.jpg' height='90'>","3","Learning example 0","",""
"","","","","","html-button-response","67","138147","0.0-39.0","3","1","2025-01-31 18:30:08","838ec4b49f044157bad9e156c8cbc4a3","134.29.63.149","Mozilla/5.0 (Windows NT 10.0; Win64; x64) AppleWebKit/537.36 (KHTML, like Gecko) Chrome/132.0.0.0 Safari/537.36","WebKit","Chrome","132.0.0.0","Windows","10.0","https://app.prolific.com/","en-US,en;q=0.9","67171faf0f5a8adece49db86","679cf675428f47411a224827","679d169d40bc131050b97497","","null","<img  src='G_9.jpg' height='90'> <img   src='G_5.jpg' height='90'> <img   src='G_1.jpg' height='90'> <img  src='G_3.jpg' height='90'> <img src='G_7.jpg' height='90'>","null","Learning example 0","",""
"","","","","","html-button-response","68","138549","0.0-40.0","3","1","2025-01-31 18:30:08","838ec4b49f044157bad9e156c8cbc4a3","134.29.63.149","Mozilla/5.0 (Windows NT 10.0; Win64; x64) AppleWebKit/537.36 (KHTML, like Gecko) Chrome/132.0.0.0 Safari/537.36","WebKit","Chrome","132.0.0.0","Windows","10.0","https://app.prolific.com/","en-US,en;q=0.9","67171faf0f5a8adece49db86","679cf675428f47411a224827","679d169d40bc131050b97497","","null","<img  src='G_9.jpg' height='90'> <img   src='G_5.jpg' height='90'> <img   src='G_1.jpg' height='90'> <img id='selected'  src='G_3.jpg' height='90'> <img src='G_7.jpg' height='90'>","null","Learning example 0","",""
"","","","","","html-button-response","69","138854","0.0-41.0","3","1","2025-01-31 18:30:08","838ec4b49f044157bad9e156c8cbc4a3","134.29.63.149","Mozilla/5.0 (Windows NT 10.0; Win64; x64) AppleWebKit/537.36 (KHTML, like Gecko) Chrome/132.0.0.0 Safari/537.36","WebKit","Chrome","132.0.0.0","Windows","10.0","https://app.prolific.com/","en-US,en;q=0.9","67171faf0f5a8adece49db86","679cf675428f47411a224827","679d169d40bc131050b97497","","null","<img  src='G_9.jpg' height='90'> <img   src='G_5.jpg' height='90'> <img   src='G_1.jpg' height='90'> <img id='selected'  src='G_3.jpg' height='90'> <img id='selected' src='G_7.jpg' height='90'>","null","Learning example 0","",""
"","","","","","html-button-response","70","139164","0.0-42.0","3","1","2025-01-31 18:30:08","838ec4b49f044157bad9e156c8cbc4a3","134.29.63.149","Mozilla/5.0 (Windows NT 10.0; Win64; x64) AppleWebKit/537.36 (KHTML, like Gecko) Chrome/132.0.0.0 Safari/537.36","WebKit","Chrome","132.0.0.0","Windows","10.0","https://app.prolific.com/","en-US,en;q=0.9","67171faf0f5a8adece49db86","679cf675428f47411a224827","679d169d40bc131050b97497","","null","<img  src='G_9.jpg' height='90'> <img   src='G_5.jpg' height='90'> <img   src='G_1.jpg' height='90'> <img id='selected'  src='G_3.jpg' height='90'> <img id='selected' src='G_7.jpg' height='90'>","null","Learning example 0","",""
"","","","","","html-button-response","71","139238","0.0-43.0-0.0-0.0","3","1","2025-01-31 18:30:08","838ec4b49f044157bad9e156c8cbc4a3","134.29.63.149","Mozilla/5.0 (Windows NT 10.0; Win64; x64) AppleWebKit/537.36 (KHTML, like Gecko) Chrome/132.0.0.0 Safari/537.36","WebKit","Chrome","132.0.0.0","Windows","10.0","https://app.prolific.com/","en-US,en;q=0.9","67171faf0f5a8adece49db86","679cf675428f47411a224827","679d169d40bc131050b97497","","71","<img  src='G_9.jpg' height='90'> <img   src='G_5.jpg' height='90'> <img   src='G_1.jpg' height='90'> <img id='selected'  src='G_3.jpg' height='90'> <img id='selected' src='G_7.jpg' height='90'>","3","Learning example 0","",""
"","","","","","html-button-response","72","139890","0.0-43.1-0.1-0.1","3","1","2025-01-31 18:30:08","838ec4b49f044157bad9e156c8cbc4a3","134.29.63.149","Mozilla/5.0 (Windows NT 10.0; Win64; x64) AppleWebKit/537.36 (KHTML, like Gecko) Chrome/132.0.0.0 Safari/537.36","WebKit","Chrome","132.0.0.0","Windows","10.0","https://app.prolific.com/","en-US,en;q=0.9","67171faf0f5a8adece49db86","679cf675428f47411a224827","679d169d40bc131050b97497","","650","<img  src='G_9.jpg' height='90'> <img   src='G_5.jpg' height='90'> <img   src='G_1.jpg' height='90'> <img id='selected'  src='G_3.jpg' height='90'> <img id='selected' src='G_7.jpg' height='90'>","4","Learning example 0","",""
"","","","","","html-button-response","73","140116","0.0-44.0","3","1","2025-01-31 18:30:08","838ec4b49f044157bad9e156c8cbc4a3","134.29.63.149","Mozilla/5.0 (Windows NT 10.0; Win64; x64) AppleWebKit/537.36 (KHTML, like Gecko) Chrome/132.0.0.0 Safari/537.36","WebKit","Chrome","132.0.0.0","Windows","10.0","https://app.prolific.com/","en-US,en;q=0.9","67171faf0f5a8adece49db86","679cf675428f47411a224827","679d169d40bc131050b97497","","null","<img  src='G_9.jpg' height='90'> <img   src='G_5.jpg' height='90'> <img   src='G_1.jpg' height='90'> <img   src='G_3.jpg' height='90'> <img  src='G_7.jpg' height='90'>","null","Learning example 0","",""
"","","","","","html-keyboard-response","74","144753","0.0-45.0","3","1","2025-01-31 18:30:08","838ec4b49f044157bad9e156c8cbc4a3","134.29.63.149","Mozilla/5.0 (Windows NT 10.0; Win64; x64) AppleWebKit/537.36 (KHTML, like Gecko) Chrome/132.0.0.0 Safari/537.36","WebKit","Chrome","132.0.0.0","Windows","10.0","https://app.prolific.com/","en-US,en;q=0.9","67171faf0f5a8adece49db86","679cf675428f47411a224827","679d169d40bc131050b97497","","4636","[""Final order was 1,2,3,4,5. The initial order was 2,1,3,4,5.<br>It took 1 swaps to sort it correctly with Omgne Sort. <br><br>Press Enter to continue.""]","enter","","",""
"","","","","","html-keyboard-response","75","152821","0.0-46.0","3","1","2025-01-31 18:30:08","838ec4b49f044157bad9e156c8cbc4a3","134.29.63.149","Mozilla/5.0 (Windows NT 10.0; Win64; x64) AppleWebKit/537.36 (KHTML, like Gecko) Chrome/132.0.0.0 Safari/537.36","WebKit","Chrome","132.0.0.0","Windows","10.0","https://app.prolific.com/","en-US,en;q=0.9","67171faf0f5a8adece49db86","679cf675428f47411a224827","679d169d40bc131050b97497","","8067","[""Example 2<br><br>You will watch Omnge Sort in action. Try to identify any patterns in the comparisons made by this method. <br><br>Press Enter to continue.""]","enter","","",""
"","","","","","html-keyboard-response","76","153330","0.0-47.0","3","1","2025-01-31 18:30:08","838ec4b49f044157bad9e156c8cbc4a3","134.29.63.149","Mozilla/5.0 (Windows NT 10.0; Win64; x64) AppleWebKit/537.36 (KHTML, like Gecko) Chrome/132.0.0.0 Safari/537.36","WebKit","Chrome","132.0.0.0","Windows","10.0","https://app.prolific.com/","en-US,en;q=0.9","67171faf0f5a8adece49db86","679cf675428f47411a224827","679d169d40bc131050b97497","","null","<img id='selected' src='G_3.jpg' height='90'> <img src='G_1.jpg' height='90'> <img src='G_7.jpg' height='90'> <img src='G_2.jpg' height='90'> <img src='G_6.jpg' height='90'> <img src='G_5.jpg' height='90'> <img src='G_4.jpg' height='90'> <img src='G_8.jpg' height='90'>","null","Animation1","",""
"","","","","","html-keyboard-response","77","153838","0.0-48.0","3","1","2025-01-31 18:30:08","838ec4b49f044157bad9e156c8cbc4a3","134.29.63.149","Mozilla/5.0 (Windows NT 10.0; Win64; x64) AppleWebKit/537.36 (KHTML, like Gecko) Chrome/132.0.0.0 Safari/537.36","WebKit","Chrome","132.0.0.0","Windows","10.0","https://app.prolific.com/","en-US,en;q=0.9","67171faf0f5a8adece49db86","679cf675428f47411a224827","679d169d40bc131050b97497","","null","<img id='selected' src='G_3.jpg' height='90'> <img id='selected' src='G_1.jpg' height='90'> <img src='G_7.jpg' height='90'> <img src='G_2.jpg' height='90'> <img src='G_6.jpg' height='90'> <img src='G_5.jpg' height='90'> <img src='G_4.jpg' height='90'> <img src='G_8.jpg' height='90'>","null","Animation1","",""
"","","","","","html-keyboard-response","78","154342","0.0-49.0","3","1","2025-01-31 18:30:08","838ec4b49f044157bad9e156c8cbc4a3","134.29.63.149","Mozilla/5.0 (Windows NT 10.0; Win64; x64) AppleWebKit/537.36 (KHTML, like Gecko) Chrome/132.0.0.0 Safari/537.36","WebKit","Chrome","132.0.0.0","Windows","10.0","https://app.prolific.com/","en-US,en;q=0.9","67171faf0f5a8adece49db86","679cf675428f47411a224827","679d169d40bc131050b97497","","null","<img id='selected' src='G_3.jpg' height='90'> <img id='selected' src='G_1.jpg' height='90'> <img src='G_7.jpg' height='90'> <img src='G_2.jpg' height='90'> <img src='G_6.jpg' height='90'> <img src='G_5.jpg' height='90'> <img src='G_4.jpg' height='90'> <img src='G_8.jpg' height='90'>","null","Animation1","",""
"","","","","","html-keyboard-response","79","154647","0.0-50.0","3","1","2025-01-31 18:30:08","838ec4b49f044157bad9e156c8cbc4a3","134.29.63.149","Mozilla/5.0 (Windows NT 10.0; Win64; x64) AppleWebKit/537.36 (KHTML, like Gecko) Chrome/132.0.0.0 Safari/537.36","WebKit","Chrome","132.0.0.0","Windows","10.0","https://app.prolific.com/","en-US,en;q=0.9","67171faf0f5a8adece49db86","679cf675428f47411a224827","679d169d40bc131050b97497","","null","<img  src='G_3.jpg' height='90'> <img  src='G_1.jpg' height='90'> <img src='G_7.jpg' height='90'> <img src='G_2.jpg' height='90'> <img src='G_6.jpg' height='90'> <img src='G_5.jpg' height='90'> <img src='G_4.jpg' height='90'> <img src='G_8.jpg' height='90'>","null","Animation1","",""
"","","","","","html-keyboard-response","80","155162","0.0-51.0","3","1","2025-01-31 18:30:08","838ec4b49f044157bad9e156c8cbc4a3","134.29.63.149","Mozilla/5.0 (Windows NT 10.0; Win64; x64) AppleWebKit/537.36 (KHTML, like Gecko) Chrome/132.0.0.0 Safari/537.36","WebKit","Chrome","132.0.0.0","Windows","10.0","https://app.prolific.com/","en-US,en;q=0.9","67171faf0f5a8adece49db86","679cf675428f47411a224827","679d169d40bc131050b97497","","null","<img  src='G_3.jpg' height='90'> <img id='selected'  src='G_1.jpg' height='90'> <img src='G_7.jpg' height='90'> <img src='G_2.jpg' height='90'> <img src='G_6.jpg' height='90'> <img src='G_5.jpg' height='90'> <img src='G_4.jpg' height='90'> <img src='G_8.jpg' height='90'>","null","Animation1","",""
"","","","","","html-keyboard-response","81","155669","0.0-52.0","3","1","2025-01-31 18:30:08","838ec4b49f044157bad9e156c8cbc4a3","134.29.63.149","Mozilla/5.0 (Windows NT 10.0; Win64; x64) AppleWebKit/537.36 (KHTML, like Gecko) Chrome/132.0.0.0 Safari/537.36","WebKit","Chrome","132.0.0.0","Windows","10.0","https://app.prolific.com/","en-US,en;q=0.9","67171faf0f5a8adece49db86","679cf675428f47411a224827","679d169d40bc131050b97497","","null","<img  src='G_3.jpg' height='90'> <img id='selected'  src='G_1.jpg' height='90'> <img id='selected' src='G_7.jpg' height='90'> <img src='G_2.jpg' height='90'> <img src='G_6.jpg' height='90'> <img src='G_5.jpg' height='90'> <img src='G_4.jpg' height='90'> <img src='G_8.jpg' height='90'>","null","Animation1","",""
"","","","","","html-keyboard-response","82","156181","0.0-53.0","3","1","2025-01-31 18:30:08","838ec4b49f044157bad9e156c8cbc4a3","134.29.63.149","Mozilla/5.0 (Windows NT 10.0; Win64; x64) AppleWebKit/537.36 (KHTML, like Gecko) Chrome/132.0.0.0 Safari/537.36","WebKit","Chrome","132.0.0.0","Windows","10.0","https://app.prolific.com/","en-US,en;q=0.9","67171faf0f5a8adece49db86","679cf675428f47411a224827","679d169d40bc131050b97497","","null","<img  src='G_3.jpg' height='90'> <img id='swapped' src='G_7.jpg' height='90'> <img id='swapped'  src='G_1.jpg' height='90'> <img src='G_2.jpg' height='90'> <img src='G_6.jpg' height='90'> <img src='G_5.jpg' height='90'> <img src='G_4.jpg' height='90'> <img src='G_8.jpg' height='90'>","null","Animation1","",""
"","","","","","html-keyboard-response","83","156491","0.0-54.0","3","1","2025-01-31 18:30:08","838ec4b49f044157bad9e156c8cbc4a3","134.29.63.149","Mozilla/5.0 (Windows NT 10.0; Win64; x64) AppleWebKit/537.36 (KHTML, like Gecko) Chrome/132.0.0.0 Safari/537.36","WebKit","Chrome","132.0.0.0","Windows","10.0","https://app.prolific.com/","en-US,en;q=0.9","67171faf0f5a8adece49db86","679cf675428f47411a224827","679d169d40bc131050b97497","","null","<img  src='G_3.jpg' height='90'> <img  src='G_7.jpg' height='90'> <img   src='G_1.jpg' height='90'> <img src='G_2.jpg' height='90'> <img src='G_6.jpg' height='90'> <img src='G_5.jpg' height='90'> <img src='G_4.jpg' height='90'> <img src='G_8.jpg' height='90'>","null","Animation1","",""
"","","","","","html-keyboard-response","84","156996","0.0-55.0","3","1","2025-01-31 18:30:08","838ec4b49f044157bad9e156c8cbc4a3","134.29.63.149","Mozilla/5.0 (Windows NT 10.0; Win64; x64) AppleWebKit/537.36 (KHTML, like Gecko) Chrome/132.0.0.0 Safari/537.36","WebKit","Chrome","132.0.0.0","Windows","10.0","https://app.prolific.com/","en-US,en;q=0.9","67171faf0f5a8adece49db86","679cf675428f47411a224827","679d169d40bc131050b97497","","null","<img id='selected'  src='G_3.jpg' height='90'> <img  src='G_7.jpg' height='90'> <img   src='G_1.jpg' height='90'> <img src='G_2.jpg' height='90'> <img src='G_6.jpg' height='90'> <img src='G_5.jpg' height='90'> <img src='G_4.jpg' height='90'> <img src='G_8.jpg' height='90'>","null","Animation1","",""
"","","","","","html-keyboard-response","85","157504","0.0-56.0","3","1","2025-01-31 18:30:08","838ec4b49f044157bad9e156c8cbc4a3","134.29.63.149","Mozilla/5.0 (Windows NT 10.0; Win64; x64) AppleWebKit/537.36 (KHTML, like Gecko) Chrome/132.0.0.0 Safari/537.36","WebKit","Chrome","132.0.0.0","Windows","10.0","https://app.prolific.com/","en-US,en;q=0.9","67171faf0f5a8adece49db86","679cf675428f47411a224827","679d169d40bc131050b97497","","null","<img id='selected'  src='G_3.jpg' height='90'> <img id='selected'  src='G_7.jpg' height='90'> <img   src='G_1.jpg' height='90'> <img src='G_2.jpg' height='90'> <img src='G_6.jpg' height='90'> <img src='G_5.jpg' height='90'> <img src='G_4.jpg' height='90'> <img src='G_8.jpg' height='90'>","null","Animation1","",""
"","","","","","html-keyboard-response","86","158014","0.0-57.0","3","1","2025-01-31 18:30:08","838ec4b49f044157bad9e156c8cbc4a3","134.29.63.149","Mozilla/5.0 (Windows NT 10.0; Win64; x64) AppleWebKit/537.36 (KHTML, like Gecko) Chrome/132.0.0.0 Safari/537.36","WebKit","Chrome","132.0.0.0","Windows","10.0","https://app.prolific.com/","en-US,en;q=0.9","67171faf0f5a8adece49db86","679cf675428f47411a224827","679d169d40bc131050b97497","","null","<img id='swapped'  src='G_7.jpg' height='90'> <img id='swapped'  src='G_3.jpg' height='90'> <img   src='G_1.jpg' height='90'> <img src='G_2.jpg' height='90'> <img src='G_6.jpg' height='90'> <img src='G_5.jpg' height='90'> <img src='G_4.jpg' height='90'> <img src='G_8.jpg' height='90'>","null","Animation1","",""
"","","","","","html-keyboard-response","87","158320","0.0-58.0","3","1","2025-01-31 18:30:08","838ec4b49f044157bad9e156c8cbc4a3","134.29.63.149","Mozilla/5.0 (Windows NT 10.0; Win64; x64) AppleWebKit/537.36 (KHTML, like Gecko) Chrome/132.0.0.0 Safari/537.36","WebKit","Chrome","132.0.0.0","Windows","10.0","https://app.prolific.com/","en-US,en;q=0.9","67171faf0f5a8adece49db86","679cf675428f47411a224827","679d169d40bc131050b97497","","null","<img   src='G_7.jpg' height='90'> <img   src='G_3.jpg' height='90'> <img   src='G_1.jpg' height='90'> <img src='G_2.jpg' height='90'> <img src='G_6.jpg' height='90'> <img src='G_5.jpg' height='90'> <img src='G_4.jpg' height='90'> <img src='G_8.jpg' height='90'>","null","Animation1","",""
"","","","","","html-keyboard-response","88","158831","0.0-59.0","3","1","2025-01-31 18:30:08","838ec4b49f044157bad9e156c8cbc4a3","134.29.63.149","Mozilla/5.0 (Windows NT 10.0; Win64; x64) AppleWebKit/537.36 (KHTML, like Gecko) Chrome/132.0.0.0 Safari/537.36","WebKit","Chrome","132.0.0.0","Windows","10.0","https://app.prolific.com/","en-US,en;q=0.9","67171faf0f5a8adece49db86","679cf675428f47411a224827","679d169d40bc131050b97497","","null","<img   src='G_7.jpg' height='90'> <img   src='G_3.jpg' height='90'> <img id='selected'   src='G_1.jpg' height='90'> <img src='G_2.jpg' height='90'> <img src='G_6.jpg' height='90'> <img src='G_5.jpg' height='90'> <img src='G_4.jpg' height='90'> <img src='G_8.jpg' height='90'>","null","Animation1","",""
"","","","","","html-keyboard-response","89","159341","0.0-60.0","3","1","2025-01-31 18:30:08","838ec4b49f044157bad9e156c8cbc4a3","134.29.63.149","Mozilla/5.0 (Windows NT 10.0; Win64; x64) AppleWebKit/537.36 (KHTML, like Gecko) Chrome/132.0.0.0 Safari/537.36","WebKit","Chrome","132.0.0.0","Windows","10.0","https://app.prolific.com/","en-US,en;q=0.9","67171faf0f5a8adece49db86","679cf675428f47411a224827","679d169d40bc131050b97497","","null","<img   src='G_7.jpg' height='90'> <img   src='G_3.jpg' height='90'> <img id='selected'   src='G_1.jpg' height='90'> <img id='selected' src='G_2.jpg' height='90'> <img src='G_6.jpg' height='90'> <img src='G_5.jpg' height='90'> <img src='G_4.jpg' height='90'> <img src='G_8.jpg' height='90'>","null","Animation1","",""
"","","","","","html-keyboard-response","90","159846","0.0-61.0","3","1","2025-01-31 18:30:08","838ec4b49f044157bad9e156c8cbc4a3","134.29.63.149","Mozilla/5.0 (Windows NT 10.0; Win64; x64) AppleWebKit/537.36 (KHTML, like Gecko) Chrome/132.0.0.0 Safari/537.36","WebKit","Chrome","132.0.0.0","Windows","10.0","https://app.prolific.com/","en-US,en;q=0.9","67171faf0f5a8adece49db86","679cf675428f47411a224827","679d169d40bc131050b97497","","null","<img   src='G_7.jpg' height='90'> <img   src='G_3.jpg' height='90'> <img id='swapped' src='G_2.jpg' height='90'> <img id='swapped'   src='G_1.jpg' height='90'> <img src='G_6.jpg' height='90'> <img src='G_5.jpg' height='90'> <img src='G_4.jpg' height='90'> <img src='G_8.jpg' height='90'>","null","Animation1","",""
"","","","","","html-keyboard-response","91","160150","0.0-62.0","3","1","2025-01-31 18:30:08","838ec4b49f044157bad9e156c8cbc4a3","134.29.63.149","Mozilla/5.0 (Windows NT 10.0; Win64; x64) AppleWebKit/537.36 (KHTML, like Gecko) Chrome/132.0.0.0 Safari/537.36","WebKit","Chrome","132.0.0.0","Windows","10.0","https://app.prolific.com/","en-US,en;q=0.9","67171faf0f5a8adece49db86","679cf675428f47411a224827","679d169d40bc131050b97497","","null","<img   src='G_7.jpg' height='90'> <img   src='G_3.jpg' height='90'> <img  src='G_2.jpg' height='90'> <img    src='G_1.jpg' height='90'> <img src='G_6.jpg' height='90'> <img src='G_5.jpg' height='90'> <img src='G_4.jpg' height='90'> <img src='G_8.jpg' height='90'>","null","Animation1","",""
"","","","","","html-keyboard-response","92","160661","0.0-63.0","3","1","2025-01-31 18:30:08","838ec4b49f044157bad9e156c8cbc4a3","134.29.63.149","Mozilla/5.0 (Windows NT 10.0; Win64; x64) AppleWebKit/537.36 (KHTML, like Gecko) Chrome/132.0.0.0 Safari/537.36","WebKit","Chrome","132.0.0.0","Windows","10.0","https://app.prolific.com/","en-US,en;q=0.9","67171faf0f5a8adece49db86","679cf675428f47411a224827","679d169d40bc131050b97497","","null","<img   src='G_7.jpg' height='90'> <img id='selected'   src='G_3.jpg' height='90'> <img  src='G_2.jpg' height='90'> <img    src='G_1.jpg' height='90'> <img src='G_6.jpg' height='90'> <img src='G_5.jpg' height='90'> <img src='G_4.jpg' height='90'> <img src='G_8.jpg' height='90'>","null","Animation1","",""
"","","","","","html-keyboard-response","93","161168","0.0-64.0","3","1","2025-01-31 18:30:08","838ec4b49f044157bad9e156c8cbc4a3","134.29.63.149","Mozilla/5.0 (Windows NT 10.0; Win64; x64) AppleWebKit/537.36 (KHTML, like Gecko) Chrome/132.0.0.0 Safari/537.36","WebKit","Chrome","132.0.0.0","Windows","10.0","https://app.prolific.com/","en-US,en;q=0.9","67171faf0f5a8adece49db86","679cf675428f47411a224827","679d169d40bc131050b97497","","null","<img   src='G_7.jpg' height='90'> <img id='selected'   src='G_3.jpg' height='90'> <img id='selected'  src='G_2.jpg' height='90'> <img    src='G_1.jpg' height='90'> <img src='G_6.jpg' height='90'> <img src='G_5.jpg' height='90'> <img src='G_4.jpg' height='90'> <img src='G_8.jpg' height='90'>","null","Animation1","",""
"","","","","","html-keyboard-response","94","161678","0.0-65.0","3","1","2025-01-31 18:30:08","838ec4b49f044157bad9e156c8cbc4a3","134.29.63.149","Mozilla/5.0 (Windows NT 10.0; Win64; x64) AppleWebKit/537.36 (KHTML, like Gecko) Chrome/132.0.0.0 Safari/537.36","WebKit","Chrome","132.0.0.0","Windows","10.0","https://app.prolific.com/","en-US,en;q=0.9","67171faf0f5a8adece49db86","679cf675428f47411a224827","679d169d40bc131050b97497","","null","<img   src='G_7.jpg' height='90'> <img id='swapped'  src='G_2.jpg' height='90'> <img id='swapped'   src='G_3.jpg' height='90'> <img    src='G_1.jpg' height='90'> <img src='G_6.jpg' height='90'> <img src='G_5.jpg' height='90'> <img src='G_4.jpg' height='90'> <img src='G_8.jpg' height='90'>","null","Animation1","",""
"","","","","","html-keyboard-response","95","161991","0.0-66.0","3","1","2025-01-31 18:30:08","838ec4b49f044157bad9e156c8cbc4a3","134.29.63.149","Mozilla/5.0 (Windows NT 10.0; Win64; x64) AppleWebKit/537.36 (KHTML, like Gecko) Chrome/132.0.0.0 Safari/537.36","WebKit","Chrome","132.0.0.0","Windows","10.0","https://app.prolific.com/","en-US,en;q=0.9","67171faf0f5a8adece49db86","679cf675428f47411a224827","679d169d40bc131050b97497","","null","<img   src='G_7.jpg' height='90'> <img   src='G_2.jpg' height='90'> <img    src='G_3.jpg' height='90'> <img    src='G_1.jpg' height='90'> <img src='G_6.jpg' height='90'> <img src='G_5.jpg' height='90'> <img src='G_4.jpg' height='90'> <img src='G_8.jpg' height='90'>","null","Animation1","",""
"","","","","","html-keyboard-response","96","162497","0.0-67.0","3","1","2025-01-31 18:30:08","838ec4b49f044157bad9e156c8cbc4a3","134.29.63.149","Mozilla/5.0 (Windows NT 10.0; Win64; x64) AppleWebKit/537.36 (KHTML, like Gecko) Chrome/132.0.0.0 Safari/537.36","WebKit","Chrome","132.0.0.0","Windows","10.0","https://app.prolific.com/","en-US,en;q=0.9","67171faf0f5a8adece49db86","679cf675428f47411a224827","679d169d40bc131050b97497","","null","<img id='selected'   src='G_7.jpg' height='90'> <img   src='G_2.jpg' height='90'> <img    src='G_3.jpg' height='90'> <img    src='G_1.jpg' height='90'> <img src='G_6.jpg' height='90'> <img src='G_5.jpg' height='90'> <img src='G_4.jpg' height='90'> <img src='G_8.jpg' height='90'>","null","Animation1","",""
"","","","","","html-keyboard-response","97","163002","0.0-68.0","3","1","2025-01-31 18:30:08","838ec4b49f044157bad9e156c8cbc4a3","134.29.63.149","Mozilla/5.0 (Windows NT 10.0; Win64; x64) AppleWebKit/537.36 (KHTML, like Gecko) Chrome/132.0.0.0 Safari/537.36","WebKit","Chrome","132.0.0.0","Windows","10.0","https://app.prolific.com/","en-US,en;q=0.9","67171faf0f5a8adece49db86","679cf675428f47411a224827","679d169d40bc131050b97497","","null","<img id='selected'   src='G_7.jpg' height='90'> <img id='selected'   src='G_2.jpg' height='90'> <img    src='G_3.jpg' height='90'> <img    src='G_1.jpg' height='90'> <img src='G_6.jpg' height='90'> <img src='G_5.jpg' height='90'> <img src='G_4.jpg' height='90'> <img src='G_8.jpg' height='90'>","null","Animation1","",""
"","","","","","html-keyboard-response","98","163511","0.0-69.0","3","1","2025-01-31 18:30:08","838ec4b49f044157bad9e156c8cbc4a3","134.29.63.149","Mozilla/5.0 (Windows NT 10.0; Win64; x64) AppleWebKit/537.36 (KHTML, like Gecko) Chrome/132.0.0.0 Safari/537.36","WebKit","Chrome","132.0.0.0","Windows","10.0","https://app.prolific.com/","en-US,en;q=0.9","67171faf0f5a8adece49db86","679cf675428f47411a224827","679d169d40bc131050b97497","","null","<img id='swapped'   src='G_2.jpg' height='90'> <img id='swapped'   src='G_7.jpg' height='90'> <img    src='G_3.jpg' height='90'> <img    src='G_1.jpg' height='90'> <img src='G_6.jpg' height='90'> <img src='G_5.jpg' height='90'> <img src='G_4.jpg' height='90'> <img src='G_8.jpg' height='90'>","null","Animation1","",""
"","","","","","html-keyboard-response","99","163815","0.0-70.0","3","1","2025-01-31 18:30:08","838ec4b49f044157bad9e156c8cbc4a3","134.29.63.149","Mozilla/5.0 (Windows NT 10.0; Win64; x64) AppleWebKit/537.36 (KHTML, like Gecko) Chrome/132.0.0.0 Safari/537.36","WebKit","Chrome","132.0.0.0","Windows","10.0","https://app.prolific.com/","en-US,en;q=0.9","67171faf0f5a8adece49db86","679cf675428f47411a224827","679d169d40bc131050b97497","","null","<img    src='G_2.jpg' height='90'> <img    src='G_7.jpg' height='90'> <img    src='G_3.jpg' height='90'> <img    src='G_1.jpg' height='90'> <img src='G_6.jpg' height='90'> <img src='G_5.jpg' height='90'> <img src='G_4.jpg' height='90'> <img src='G_8.jpg' height='90'>","null","Animation1","",""
"","","","","","html-keyboard-response","100","164319","0.0-71.0","3","1","2025-01-31 18:30:08","838ec4b49f044157bad9e156c8cbc4a3","134.29.63.149","Mozilla/5.0 (Windows NT 10.0; Win64; x64) AppleWebKit/537.36 (KHTML, like Gecko) Chrome/132.0.0.0 Safari/537.36","WebKit","Chrome","132.0.0.0","Windows","10.0","https://app.prolific.com/","en-US,en;q=0.9","67171faf0f5a8adece49db86","679cf675428f47411a224827","679d169d40bc131050b97497","","null","<img    src='G_2.jpg' height='90'> <img    src='G_7.jpg' height='90'> <img    src='G_3.jpg' height='90'> <img id='selected'    src='G_1.jpg' height='90'> <img src='G_6.jpg' height='90'> <img src='G_5.jpg' height='90'> <img src='G_4.jpg' height='90'> <img src='G_8.jpg' height='90'>","null","Animation1","",""
"","","","","","html-keyboard-response","101","164828","0.0-72.0","3","1","2025-01-31 18:30:08","838ec4b49f044157bad9e156c8cbc4a3","134.29.63.149","Mozilla/5.0 (Windows NT 10.0; Win64; x64) AppleWebKit/537.36 (KHTML, like Gecko) Chrome/132.0.0.0 Safari/537.36","WebKit","Chrome","132.0.0.0","Windows","10.0","https://app.prolific.com/","en-US,en;q=0.9","67171faf0f5a8adece49db86","679cf675428f47411a224827","679d169d40bc131050b97497","","null","<img    src='G_2.jpg' height='90'> <img    src='G_7.jpg' height='90'> <img    src='G_3.jpg' height='90'> <img id='selected'    src='G_1.jpg' height='90'> <img id='selected' src='G_6.jpg' height='90'> <img src='G_5.jpg' height='90'> <img src='G_4.jpg' height='90'> <img src='G_8.jpg' height='90'>","null","Animation1","",""
"","","","","","html-keyboard-response","102","165338","0.0-73.0","3","1","2025-01-31 18:30:08","838ec4b49f044157bad9e156c8cbc4a3","134.29.63.149","Mozilla/5.0 (Windows NT 10.0; Win64; x64) AppleWebKit/537.36 (KHTML, like Gecko) Chrome/132.0.0.0 Safari/537.36","WebKit","Chrome","132.0.0.0","Windows","10.0","https://app.prolific.com/","en-US,en;q=0.9","67171faf0f5a8adece49db86","679cf675428f47411a224827","679d169d40bc131050b97497","","null","<img    src='G_2.jpg' height='90'> <img    src='G_7.jpg' height='90'> <img    src='G_3.jpg' height='90'> <img id='swapped' src='G_6.jpg' height='90'> <img id='swapped'    src='G_1.jpg' height='90'> <img src='G_5.jpg' height='90'> <img src='G_4.jpg' height='90'> <img src='G_8.jpg' height='90'>","null","Animation1","",""
"","","","","","html-keyboard-response","103","165646","0.0-74.0","3","1","2025-01-31 18:30:08","838ec4b49f044157bad9e156c8cbc4a3","134.29.63.149","Mozilla/5.0 (Windows NT 10.0; Win64; x64) AppleWebKit/537.36 (KHTML, like Gecko) Chrome/132.0.0.0 Safari/537.36","WebKit","Chrome","132.0.0.0","Windows","10.0","https://app.prolific.com/","en-US,en;q=0.9","67171faf0f5a8adece49db86","679cf675428f47411a224827","679d169d40bc131050b97497","","null","<img    src='G_2.jpg' height='90'> <img    src='G_7.jpg' height='90'> <img    src='G_3.jpg' height='90'> <img  src='G_6.jpg' height='90'> <img     src='G_1.jpg' height='90'> <img src='G_5.jpg' height='90'> <img src='G_4.jpg' height='90'> <img src='G_8.jpg' height='90'>","null","Animation1","",""
"","","","","","html-keyboard-response","104","166154","0.0-75.0","3","1","2025-01-31 18:30:08","838ec4b49f044157bad9e156c8cbc4a3","134.29.63.149","Mozilla/5.0 (Windows NT 10.0; Win64; x64) AppleWebKit/537.36 (KHTML, like Gecko) Chrome/132.0.0.0 Safari/537.36","WebKit","Chrome","132.0.0.0","Windows","10.0","https://app.prolific.com/","en-US,en;q=0.9","67171faf0f5a8adece49db86","679cf675428f47411a224827","679d169d40bc131050b97497","","null","<img    src='G_2.jpg' height='90'> <img    src='G_7.jpg' height='90'> <img id='selected'    src='G_3.jpg' height='90'> <img  src='G_6.jpg' height='90'> <img     src='G_1.jpg' height='90'> <img src='G_5.jpg' height='90'> <img src='G_4.jpg' height='90'> <img src='G_8.jpg' height='90'>","null","Animation1","",""
"","","","","","html-keyboard-response","105","166663","0.0-76.0","3","1","2025-01-31 18:30:08","838ec4b49f044157bad9e156c8cbc4a3","134.29.63.149","Mozilla/5.0 (Windows NT 10.0; Win64; x64) AppleWebKit/537.36 (KHTML, like Gecko) Chrome/132.0.0.0 Safari/537.36","WebKit","Chrome","132.0.0.0","Windows","10.0","https://app.prolific.com/","en-US,en;q=0.9","67171faf0f5a8adece49db86","679cf675428f47411a224827","679d169d40bc131050b97497","","null","<img    src='G_2.jpg' height='90'> <img    src='G_7.jpg' height='90'> <img id='selected'    src='G_3.jpg' height='90'> <img id='selected'  src='G_6.jpg' height='90'> <img     src='G_1.jpg' height='90'> <img src='G_5.jpg' height='90'> <img src='G_4.jpg' height='90'> <img src='G_8.jpg' height='90'>","null","Animation1","",""
"","","","","","html-keyboard-response","106","167172","0.0-77.0","3","1","2025-01-31 18:30:08","838ec4b49f044157bad9e156c8cbc4a3","134.29.63.149","Mozilla/5.0 (Windows NT 10.0; Win64; x64) AppleWebKit/537.36 (KHTML, like Gecko) Chrome/132.0.0.0 Safari/537.36","WebKit","Chrome","132.0.0.0","Windows","10.0","https://app.prolific.com/","en-US,en;q=0.9","67171faf0f5a8adece49db86","679cf675428f47411a224827","679d169d40bc131050b97497","","null","<img    src='G_2.jpg' height='90'> <img    src='G_7.jpg' height='90'> <img id='swapped'  src='G_6.jpg' height='90'> <img id='swapped'    src='G_3.jpg' height='90'> <img     src='G_1.jpg' height='90'> <img src='G_5.jpg' height='90'> <img src='G_4.jpg' height='90'> <img src='G_8.jpg' height='90'>","null","Animation1","",""
"","","","","","html-keyboard-response","107","167480","0.0-78.0","3","1","2025-01-31 18:30:08","838ec4b49f044157bad9e156c8cbc4a3","134.29.63.149","Mozilla/5.0 (Windows NT 10.0; Win64; x64) AppleWebKit/537.36 (KHTML, like Gecko) Chrome/132.0.0.0 Safari/537.36","WebKit","Chrome","132.0.0.0","Windows","10.0","https://app.prolific.com/","en-US,en;q=0.9","67171faf0f5a8adece49db86","679cf675428f47411a224827","679d169d40bc131050b97497","","null","<img    src='G_2.jpg' height='90'> <img    src='G_7.jpg' height='90'> <img   src='G_6.jpg' height='90'> <img     src='G_3.jpg' height='90'> <img     src='G_1.jpg' height='90'> <img src='G_5.jpg' height='90'> <img src='G_4.jpg' height='90'> <img src='G_8.jpg' height='90'>","null","Animation1","",""
"","","","","","html-keyboard-response","108","167997","0.0-79.0","3","1","2025-01-31 18:30:08","838ec4b49f044157bad9e156c8cbc4a3","134.29.63.149","Mozilla/5.0 (Windows NT 10.0; Win64; x64) AppleWebKit/537.36 (KHTML, like Gecko) Chrome/132.0.0.0 Safari/537.36","WebKit","Chrome","132.0.0.0","Windows","10.0","https://app.prolific.com/","en-US,en;q=0.9","67171faf0f5a8adece49db86","679cf675428f47411a224827","679d169d40bc131050b97497","","null","<img    src='G_2.jpg' height='90'> <img id='selected'    src='G_7.jpg' height='90'> <img   src='G_6.jpg' height='90'> <img     src='G_3.jpg' height='90'> <img     src='G_1.jpg' height='90'> <img src='G_5.jpg' height='90'> <img src='G_4.jpg' height='90'> <img src='G_8.jpg' height='90'>","null","Animation1","",""
"","","","","","html-keyboard-response","109","168511","0.0-80.0","3","1","2025-01-31 18:30:08","838ec4b49f044157bad9e156c8cbc4a3","134.29.63.149","Mozilla/5.0 (Windows NT 10.0; Win64; x64) AppleWebKit/537.36 (KHTML, like Gecko) Chrome/132.0.0.0 Safari/537.36","WebKit","Chrome","132.0.0.0","Windows","10.0","https://app.prolific.com/","en-US,en;q=0.9","67171faf0f5a8adece49db86","679cf675428f47411a224827","679d169d40bc131050b97497","","null","<img    src='G_2.jpg' height='90'> <img id='selected'    src='G_7.jpg' height='90'> <img id='selected'   src='G_6.jpg' height='90'> <img     src='G_3.jpg' height='90'> <img     src='G_1.jpg' height='90'> <img src='G_5.jpg' height='90'> <img src='G_4.jpg' height='90'> <img src='G_8.jpg' height='90'>","null","Animation1","",""
"","","","","","html-keyboard-response","110","169021","0.0-81.0","3","1","2025-01-31 18:30:08","838ec4b49f044157bad9e156c8cbc4a3","134.29.63.149","Mozilla/5.0 (Windows NT 10.0; Win64; x64) AppleWebKit/537.36 (KHTML, like Gecko) Chrome/132.0.0.0 Safari/537.36","WebKit","Chrome","132.0.0.0","Windows","10.0","https://app.prolific.com/","en-US,en;q=0.9","67171faf0f5a8adece49db86","679cf675428f47411a224827","679d169d40bc131050b97497","","null","<img    src='G_2.jpg' height='90'> <img id='swapped'   src='G_6.jpg' height='90'> <img id='swapped'    src='G_7.jpg' height='90'> <img     src='G_3.jpg' height='90'> <img     src='G_1.jpg' height='90'> <img src='G_5.jpg' height='90'> <img src='G_4.jpg' height='90'> <img src='G_8.jpg' height='90'>","null","Animation1","",""
"","","","","","html-keyboard-response","111","169331","0.0-82.0","3","1","2025-01-31 18:30:08","838ec4b49f044157bad9e156c8cbc4a3","134.29.63.149","Mozilla/5.0 (Windows NT 10.0; Win64; x64) AppleWebKit/537.36 (KHTML, like Gecko) Chrome/132.0.0.0 Safari/537.36","WebKit","Chrome","132.0.0.0","Windows","10.0","https://app.prolific.com/","en-US,en;q=0.9","67171faf0f5a8adece49db86","679cf675428f47411a224827","679d169d40bc131050b97497","","null","<img    src='G_2.jpg' height='90'> <img    src='G_6.jpg' height='90'> <img     src='G_7.jpg' height='90'> <img     src='G_3.jpg' height='90'> <img     src='G_1.jpg' height='90'> <img src='G_5.jpg' height='90'> <img src='G_4.jpg' height='90'> <img src='G_8.jpg' height='90'>","null","Animation1","",""
"","","","","","html-keyboard-response","112","169841","0.0-83.0","3","1","2025-01-31 18:30:08","838ec4b49f044157bad9e156c8cbc4a3","134.29.63.149","Mozilla/5.0 (Windows NT 10.0; Win64; x64) AppleWebKit/537.36 (KHTML, like Gecko) Chrome/132.0.0.0 Safari/537.36","WebKit","Chrome","132.0.0.0","Windows","10.0","https://app.prolific.com/","en-US,en;q=0.9","67171faf0f5a8adece49db86","679cf675428f47411a224827","679d169d40bc131050b97497","","null","<img id='selected'    src='G_2.jpg' height='90'> <img    src='G_6.jpg' height='90'> <img     src='G_7.jpg' height='90'> <img     src='G_3.jpg' height='90'> <img     src='G_1.jpg' height='90'> <img src='G_5.jpg' height='90'> <img src='G_4.jpg' height='90'> <img src='G_8.jpg' height='90'>","null","Animation1","",""
"","","","","","html-keyboard-response","113","170347","0.0-84.0","3","1","2025-01-31 18:30:08","838ec4b49f044157bad9e156c8cbc4a3","134.29.63.149","Mozilla/5.0 (Windows NT 10.0; Win64; x64) AppleWebKit/537.36 (KHTML, like Gecko) Chrome/132.0.0.0 Safari/537.36","WebKit","Chrome","132.0.0.0","Windows","10.0","https://app.prolific.com/","en-US,en;q=0.9","67171faf0f5a8adece49db86","679cf675428f47411a224827","679d169d40bc131050b97497","","null","<img id='selected'    src='G_2.jpg' height='90'> <img id='selected'    src='G_6.jpg' height='90'> <img     src='G_7.jpg' height='90'> <img     src='G_3.jpg' height='90'> <img     src='G_1.jpg' height='90'> <img src='G_5.jpg' height='90'> <img src='G_4.jpg' height='90'> <img src='G_8.jpg' height='90'>","null","Animation1","",""
"","","","","","html-keyboard-response","114","170863","0.0-85.0","3","1","2025-01-31 18:30:08","838ec4b49f044157bad9e156c8cbc4a3","134.29.63.149","Mozilla/5.0 (Windows NT 10.0; Win64; x64) AppleWebKit/537.36 (KHTML, like Gecko) Chrome/132.0.0.0 Safari/537.36","WebKit","Chrome","132.0.0.0","Windows","10.0","https://app.prolific.com/","en-US,en;q=0.9","67171faf0f5a8adece49db86","679cf675428f47411a224827","679d169d40bc131050b97497","","null","<img id='selected'    src='G_2.jpg' height='90'> <img id='selected'    src='G_6.jpg' height='90'> <img     src='G_7.jpg' height='90'> <img     src='G_3.jpg' height='90'> <img     src='G_1.jpg' height='90'> <img src='G_5.jpg' height='90'> <img src='G_4.jpg' height='90'> <img src='G_8.jpg' height='90'>","null","Animation1","",""
"","","","","","html-keyboard-response","115","171170","0.0-86.0","3","1","2025-01-31 18:30:08","838ec4b49f044157bad9e156c8cbc4a3","134.29.63.149","Mozilla/5.0 (Windows NT 10.0; Win64; x64) AppleWebKit/537.36 (KHTML, like Gecko) Chrome/132.0.0.0 Safari/537.36","WebKit","Chrome","132.0.0.0","Windows","10.0","https://app.prolific.com/","en-US,en;q=0.9","67171faf0f5a8adece49db86","679cf675428f47411a224827","679d169d40bc131050b97497","","null","<img     src='G_2.jpg' height='90'> <img     src='G_6.jpg' height='90'> <img     src='G_7.jpg' height='90'> <img     src='G_3.jpg' height='90'> <img     src='G_1.jpg' height='90'> <img src='G_5.jpg' height='90'> <img src='G_4.jpg' height='90'> <img src='G_8.jpg' height='90'>","null","Animation1","",""
"","","","","","html-keyboard-response","116","171678","0.0-87.0","3","1","2025-01-31 18:30:08","838ec4b49f044157bad9e156c8cbc4a3","134.29.63.149","Mozilla/5.0 (Windows NT 10.0; Win64; x64) AppleWebKit/537.36 (KHTML, like Gecko) Chrome/132.0.0.0 Safari/537.36","WebKit","Chrome","132.0.0.0","Windows","10.0","https://app.prolific.com/","en-US,en;q=0.9","67171faf0f5a8adece49db86","679cf675428f47411a224827","679d169d40bc131050b97497","","null","<img     src='G_2.jpg' height='90'> <img     src='G_6.jpg' height='90'> <img     src='G_7.jpg' height='90'> <img     src='G_3.jpg' height='90'> <img id='selected'     src='G_1.jpg' height='90'> <img src='G_5.jpg' height='90'> <img src='G_4.jpg' height='90'> <img src='G_8.jpg' height='90'>","null","Animation1","",""
"","","","","","html-keyboard-response","117","172186","0.0-88.0","3","1","2025-01-31 18:30:08","838ec4b49f044157bad9e156c8cbc4a3","134.29.63.149","Mozilla/5.0 (Windows NT 10.0; Win64; x64) AppleWebKit/537.36 (KHTML, like Gecko) Chrome/132.0.0.0 Safari/537.36","WebKit","Chrome","132.0.0.0","Windows","10.0","https://app.prolific.com/","en-US,en;q=0.9","67171faf0f5a8adece49db86","679cf675428f47411a224827","679d169d40bc131050b97497","","null","<img     src='G_2.jpg' height='90'> <img     src='G_6.jpg' height='90'> <img     src='G_7.jpg' height='90'> <img     src='G_3.jpg' height='90'> <img id='selected'     src='G_1.jpg' height='90'> <img id='selected' src='G_5.jpg' height='90'> <img src='G_4.jpg' height='90'> <img src='G_8.jpg' height='90'>","null","Animation1","",""
"","","","","","html-keyboard-response","118","172691","0.0-89.0","3","1","2025-01-31 18:30:08","838ec4b49f044157bad9e156c8cbc4a3","134.29.63.149","Mozilla/5.0 (Windows NT 10.0; Win64; x64) AppleWebKit/537.36 (KHTML, like Gecko) Chrome/132.0.0.0 Safari/537.36","WebKit","Chrome","132.0.0.0","Windows","10.0","https://app.prolific.com/","en-US,en;q=0.9","67171faf0f5a8adece49db86","679cf675428f47411a224827","679d169d40bc131050b97497","","null","<img     src='G_2.jpg' height='90'> <img     src='G_6.jpg' height='90'> <img     src='G_7.jpg' height='90'> <img     src='G_3.jpg' height='90'> <img id='swapped' src='G_5.jpg' height='90'> <img id='swapped'     src='G_1.jpg' height='90'> <img src='G_4.jpg' height='90'> <img src='G_8.jpg' height='90'>","null","Animation1","",""
"","","","","","html-keyboard-response","119","172997","0.0-90.0","3","1","2025-01-31 18:30:08","838ec4b49f044157bad9e156c8cbc4a3","134.29.63.149","Mozilla/5.0 (Windows NT 10.0; Win64; x64) AppleWebKit/537.36 (KHTML, like Gecko) Chrome/132.0.0.0 Safari/537.36","WebKit","Chrome","132.0.0.0","Windows","10.0","https://app.prolific.com/","en-US,en;q=0.9","67171faf0f5a8adece49db86","679cf675428f47411a224827","679d169d40bc131050b97497","","null","<img     src='G_2.jpg' height='90'> <img     src='G_6.jpg' height='90'> <img     src='G_7.jpg' height='90'> <img     src='G_3.jpg' height='90'> <img  src='G_5.jpg' height='90'> <img      src='G_1.jpg' height='90'> <img src='G_4.jpg' height='90'> <img src='G_8.jpg' height='90'>","null","Animation1","",""
"","","","","","html-keyboard-response","120","173513","0.0-91.0","3","1","2025-01-31 18:30:08","838ec4b49f044157bad9e156c8cbc4a3","134.29.63.149","Mozilla/5.0 (Windows NT 10.0; Win64; x64) AppleWebKit/537.36 (KHTML, like Gecko) Chrome/132.0.0.0 Safari/537.36","WebKit","Chrome","132.0.0.0","Windows","10.0","https://app.prolific.com/","en-US,en;q=0.9","67171faf0f5a8adece49db86","679cf675428f47411a224827","679d169d40bc131050b97497","","null","<img     src='G_2.jpg' height='90'> <img     src='G_6.jpg' height='90'> <img     src='G_7.jpg' height='90'> <img id='selected'     src='G_3.jpg' height='90'> <img  src='G_5.jpg' height='90'> <img      src='G_1.jpg' height='90'> <img src='G_4.jpg' height='90'> <img src='G_8.jpg' height='90'>","null","Animation1","",""
"","","","","","html-keyboard-response","121","174020","0.0-92.0","3","1","2025-01-31 18:30:08","838ec4b49f044157bad9e156c8cbc4a3","134.29.63.149","Mozilla/5.0 (Windows NT 10.0; Win64; x64) AppleWebKit/537.36 (KHTML, like Gecko) Chrome/132.0.0.0 Safari/537.36","WebKit","Chrome","132.0.0.0","Windows","10.0","https://app.prolific.com/","en-US,en;q=0.9","67171faf0f5a8adece49db86","679cf675428f47411a224827","679d169d40bc131050b97497","","null","<img     src='G_2.jpg' height='90'> <img     src='G_6.jpg' height='90'> <img     src='G_7.jpg' height='90'> <img id='selected'     src='G_3.jpg' height='90'> <img id='selected'  src='G_5.jpg' height='90'> <img      src='G_1.jpg' height='90'> <img src='G_4.jpg' height='90'> <img src='G_8.jpg' height='90'>","null","Animation1","",""
"","","","","","html-keyboard-response","122","174529","0.0-93.0","3","1","2025-01-31 18:30:08","838ec4b49f044157bad9e156c8cbc4a3","134.29.63.149","Mozilla/5.0 (Windows NT 10.0; Win64; x64) AppleWebKit/537.36 (KHTML, like Gecko) Chrome/132.0.0.0 Safari/537.36","WebKit","Chrome","132.0.0.0","Windows","10.0","https://app.prolific.com/","en-US,en;q=0.9","67171faf0f5a8adece49db86","679cf675428f47411a224827","679d169d40bc131050b97497","","null","<img     src='G_2.jpg' height='90'> <img     src='G_6.jpg' height='90'> <img     src='G_7.jpg' height='90'> <img id='selected'     src='G_3.jpg' height='90'> <img id='selected'  src='G_5.jpg' height='90'> <img      src='G_1.jpg' height='90'> <img src='G_4.jpg' height='90'> <img src='G_8.jpg' height='90'>","null","Animation1","",""
"","","","","","html-keyboard-response","123","174841","0.0-94.0","3","1","2025-01-31 18:30:08","838ec4b49f044157bad9e156c8cbc4a3","134.29.63.149","Mozilla/5.0 (Windows NT 10.0; Win64; x64) AppleWebKit/537.36 (KHTML, like Gecko) Chrome/132.0.0.0 Safari/537.36","WebKit","Chrome","132.0.0.0","Windows","10.0","https://app.prolific.com/","en-US,en;q=0.9","67171faf0f5a8adece49db86","679cf675428f47411a224827","679d169d40bc131050b97497","","null","<img     src='G_2.jpg' height='90'> <img     src='G_6.jpg' height='90'> <img     src='G_7.jpg' height='90'> <img      src='G_3.jpg' height='90'> <img   src='G_5.jpg' height='90'> <img      src='G_1.jpg' height='90'> <img src='G_4.jpg' height='90'> <img src='G_8.jpg' height='90'>","null","Animation1","",""
"","","","","","html-keyboard-response","124","175347","0.0-95.0","3","1","2025-01-31 18:30:08","838ec4b49f044157bad9e156c8cbc4a3","134.29.63.149","Mozilla/5.0 (Windows NT 10.0; Win64; x64) AppleWebKit/537.36 (KHTML, like Gecko) Chrome/132.0.0.0 Safari/537.36","WebKit","Chrome","132.0.0.0","Windows","10.0","https://app.prolific.com/","en-US,en;q=0.9","67171faf0f5a8adece49db86","679cf675428f47411a224827","679d169d40bc131050b97497","","null","<img     src='G_2.jpg' height='90'> <img     src='G_6.jpg' height='90'> <img     src='G_7.jpg' height='90'> <img      src='G_3.jpg' height='90'> <img   src='G_5.jpg' height='90'> <img id='selected'      src='G_1.jpg' height='90'> <img src='G_4.jpg' height='90'> <img src='G_8.jpg' height='90'>","null","Animation1","",""
"","","","","","html-keyboard-response","125","175861","0.0-96.0","3","1","2025-01-31 18:30:08","838ec4b49f044157bad9e156c8cbc4a3","134.29.63.149","Mozilla/5.0 (Windows NT 10.0; Win64; x64) AppleWebKit/537.36 (KHTML, like Gecko) Chrome/132.0.0.0 Safari/537.36","WebKit","Chrome","132.0.0.0","Windows","10.0","https://app.prolific.com/","en-US,en;q=0.9","67171faf0f5a8adece49db86","679cf675428f47411a224827","679d169d40bc131050b97497","","null","<img     src='G_2.jpg' height='90'> <img     src='G_6.jpg' height='90'> <img     src='G_7.jpg' height='90'> <img      src='G_3.jpg' height='90'> <img   src='G_5.jpg' height='90'> <img id='selected'      src='G_1.jpg' height='90'> <img id='selected' src='G_4.jpg' height='90'> <img src='G_8.jpg' height='90'>","null","Animation1","",""
"","","","","","html-keyboard-response","126","176371","0.0-97.0","3","1","2025-01-31 18:30:08","838ec4b49f044157bad9e156c8cbc4a3","134.29.63.149","Mozilla/5.0 (Windows NT 10.0; Win64; x64) AppleWebKit/537.36 (KHTML, like Gecko) Chrome/132.0.0.0 Safari/537.36","WebKit","Chrome","132.0.0.0","Windows","10.0","https://app.prolific.com/","en-US,en;q=0.9","67171faf0f5a8adece49db86","679cf675428f47411a224827","679d169d40bc131050b97497","","null","<img     src='G_2.jpg' height='90'> <img     src='G_6.jpg' height='90'> <img     src='G_7.jpg' height='90'> <img      src='G_3.jpg' height='90'> <img   src='G_5.jpg' height='90'> <img id='selected'      src='G_1.jpg' height='90'> <img id='selected' src='G_4.jpg' height='90'> <img src='G_8.jpg' height='90'>","null","Animation1","",""
"","","","","","html-keyboard-response","127","176680","0.0-98.0","3","1","2025-01-31 18:30:08","838ec4b49f044157bad9e156c8cbc4a3","134.29.63.149","Mozilla/5.0 (Windows NT 10.0; Win64; x64) AppleWebKit/537.36 (KHTML, like Gecko) Chrome/132.0.0.0 Safari/537.36","WebKit","Chrome","132.0.0.0","Windows","10.0","https://app.prolific.com/","en-US,en;q=0.9","67171faf0f5a8adece49db86","679cf675428f47411a224827","679d169d40bc131050b97497","","null","<img     src='G_2.jpg' height='90'> <img     src='G_6.jpg' height='90'> <img     src='G_7.jpg' height='90'> <img      src='G_3.jpg' height='90'> <img   src='G_5.jpg' height='90'> <img       src='G_1.jpg' height='90'> <img  src='G_4.jpg' height='90'> <img src='G_8.jpg' height='90'>","null","Animation1","",""
"","","","","","html-keyboard-response","128","177188","0.0-99.0","3","1","2025-01-31 18:30:08","838ec4b49f044157bad9e156c8cbc4a3","134.29.63.149","Mozilla/5.0 (Windows NT 10.0; Win64; x64) AppleWebKit/537.36 (KHTML, like Gecko) Chrome/132.0.0.0 Safari/537.36","WebKit","Chrome","132.0.0.0","Windows","10.0","https://app.prolific.com/","en-US,en;q=0.9","67171faf0f5a8adece49db86","679cf675428f47411a224827","679d169d40bc131050b97497","","null","<img     src='G_2.jpg' height='90'> <img     src='G_6.jpg' height='90'> <img     src='G_7.jpg' height='90'> <img      src='G_3.jpg' height='90'> <img   src='G_5.jpg' height='90'> <img       src='G_1.jpg' height='90'> <img id='selected'  src='G_4.jpg' height='90'> <img src='G_8.jpg' height='90'>","null","Animation1","",""
"","","","","","html-keyboard-response","129","177697","0.0-100.0","3","1","2025-01-31 18:30:08","838ec4b49f044157bad9e156c8cbc4a3","134.29.63.149","Mozilla/5.0 (Windows NT 10.0; Win64; x64) AppleWebKit/537.36 (KHTML, like Gecko) Chrome/132.0.0.0 Safari/537.36","WebKit","Chrome","132.0.0.0","Windows","10.0","https://app.prolific.com/","en-US,en;q=0.9","67171faf0f5a8adece49db86","679cf675428f47411a224827","679d169d40bc131050b97497","","null","<img     src='G_2.jpg' height='90'> <img     src='G_6.jpg' height='90'> <img     src='G_7.jpg' height='90'> <img      src='G_3.jpg' height='90'> <img   src='G_5.jpg' height='90'> <img       src='G_1.jpg' height='90'> <img id='selected'  src='G_4.jpg' height='90'> <img id='selected' src='G_8.jpg' height='90'>","null","Animation1","",""
"","","","","","html-keyboard-response","130","178212","0.0-101.0","3","1","2025-01-31 18:30:08","838ec4b49f044157bad9e156c8cbc4a3","134.29.63.149","Mozilla/5.0 (Windows NT 10.0; Win64; x64) AppleWebKit/537.36 (KHTML, like Gecko) Chrome/132.0.0.0 Safari/537.36","WebKit","Chrome","132.0.0.0","Windows","10.0","https://app.prolific.com/","en-US,en;q=0.9","67171faf0f5a8adece49db86","679cf675428f47411a224827","679d169d40bc131050b97497","","null","<img     src='G_2.jpg' height='90'> <img     src='G_6.jpg' height='90'> <img     src='G_7.jpg' height='90'> <img      src='G_3.jpg' height='90'> <img   src='G_5.jpg' height='90'> <img       src='G_1.jpg' height='90'> <img id='swapped' src='G_8.jpg' height='90'> <img id='swapped'  src='G_4.jpg' height='90'>","null","Animation1","",""
"","","","","","html-keyboard-response","131","178530","0.0-102.0","3","1","2025-01-31 18:30:08","838ec4b49f044157bad9e156c8cbc4a3","134.29.63.149","Mozilla/5.0 (Windows NT 10.0; Win64; x64) AppleWebKit/537.36 (KHTML, like Gecko) Chrome/132.0.0.0 Safari/537.36","WebKit","Chrome","132.0.0.0","Windows","10.0","https://app.prolific.com/","en-US,en;q=0.9","67171faf0f5a8adece49db86","679cf675428f47411a224827","679d169d40bc131050b97497","","null","<img     src='G_2.jpg' height='90'> <img     src='G_6.jpg' height='90'> <img     src='G_7.jpg' height='90'> <img      src='G_3.jpg' height='90'> <img   src='G_5.jpg' height='90'> <img       src='G_1.jpg' height='90'> <img  src='G_8.jpg' height='90'> <img   src='G_4.jpg' height='90'>","null","Animation1","",""
"","","","","","html-keyboard-response","132","179046","0.0-103.0","3","1","2025-01-31 18:30:08","838ec4b49f044157bad9e156c8cbc4a3","134.29.63.149","Mozilla/5.0 (Windows NT 10.0; Win64; x64) AppleWebKit/537.36 (KHTML, like Gecko) Chrome/132.0.0.0 Safari/537.36","WebKit","Chrome","132.0.0.0","Windows","10.0","https://app.prolific.com/","en-US,en;q=0.9","67171faf0f5a8adece49db86","679cf675428f47411a224827","679d169d40bc131050b97497","","null","<img     src='G_2.jpg' height='90'> <img     src='G_6.jpg' height='90'> <img     src='G_7.jpg' height='90'> <img      src='G_3.jpg' height='90'> <img   src='G_5.jpg' height='90'> <img id='selected'       src='G_1.jpg' height='90'> <img  src='G_8.jpg' height='90'> <img   src='G_4.jpg' height='90'>","null","Animation1","",""
"","","","","","html-keyboard-response","133","179553","0.0-104.0","3","1","2025-01-31 18:30:08","838ec4b49f044157bad9e156c8cbc4a3","134.29.63.149","Mozilla/5.0 (Windows NT 10.0; Win64; x64) AppleWebKit/537.36 (KHTML, like Gecko) Chrome/132.0.0.0 Safari/537.36","WebKit","Chrome","132.0.0.0","Windows","10.0","https://app.prolific.com/","en-US,en;q=0.9","67171faf0f5a8adece49db86","679cf675428f47411a224827","679d169d40bc131050b97497","","null","<img     src='G_2.jpg' height='90'> <img     src='G_6.jpg' height='90'> <img     src='G_7.jpg' height='90'> <img      src='G_3.jpg' height='90'> <img   src='G_5.jpg' height='90'> <img id='selected'       src='G_1.jpg' height='90'> <img id='selected'  src='G_8.jpg' height='90'> <img   src='G_4.jpg' height='90'>","null","Animation1","",""
"","","","","","html-keyboard-response","134","180063","0.0-105.0","3","1","2025-01-31 18:30:08","838ec4b49f044157bad9e156c8cbc4a3","134.29.63.149","Mozilla/5.0 (Windows NT 10.0; Win64; x64) AppleWebKit/537.36 (KHTML, like Gecko) Chrome/132.0.0.0 Safari/537.36","WebKit","Chrome","132.0.0.0","Windows","10.0","https://app.prolific.com/","en-US,en;q=0.9","67171faf0f5a8adece49db86","679cf675428f47411a224827","679d169d40bc131050b97497","","null","<img     src='G_2.jpg' height='90'> <img     src='G_6.jpg' height='90'> <img     src='G_7.jpg' height='90'> <img      src='G_3.jpg' height='90'> <img   src='G_5.jpg' height='90'> <img id='selected'       src='G_1.jpg' height='90'> <img id='selected'  src='G_8.jpg' height='90'> <img   src='G_4.jpg' height='90'>","null","Animation1","",""
"","","","","","html-keyboard-response","135","180370","0.0-106.0","3","1","2025-01-31 18:30:08","838ec4b49f044157bad9e156c8cbc4a3","134.29.63.149","Mozilla/5.0 (Windows NT 10.0; Win64; x64) AppleWebKit/537.36 (KHTML, like Gecko) Chrome/132.0.0.0 Safari/537.36","WebKit","Chrome","132.0.0.0","Windows","10.0","https://app.prolific.com/","en-US,en;q=0.9","67171faf0f5a8adece49db86","679cf675428f47411a224827","679d169d40bc131050b97497","","null","<img     src='G_2.jpg' height='90'> <img     src='G_6.jpg' height='90'> <img     src='G_7.jpg' height='90'> <img      src='G_3.jpg' height='90'> <img   src='G_5.jpg' height='90'> <img        src='G_1.jpg' height='90'> <img   src='G_8.jpg' height='90'> <img   src='G_4.jpg' height='90'>","null","Animation1","",""
"","","","","","html-keyboard-response","136","182513","0.0-107.0","3","1","2025-01-31 18:30:08","838ec4b49f044157bad9e156c8cbc4a3","134.29.63.149","Mozilla/5.0 (Windows NT 10.0; Win64; x64) AppleWebKit/537.36 (KHTML, like Gecko) Chrome/132.0.0.0 Safari/537.36","WebKit","Chrome","132.0.0.0","Windows","10.0","https://app.prolific.com/","en-US,en;q=0.9","67171faf0f5a8adece49db86","679cf675428f47411a224827","679d169d40bc131050b97497","","2138","[""Did you notice any patterns? <br><br>Press Enter to watch that example again and follow the steps of Omgne Sort.""]","enter","","",""
"","","","","","html-button-response","137","182923","0.0-108.0","3","1","2025-01-31 18:30:08","838ec4b49f044157bad9e156c8cbc4a3","134.29.63.149","Mozilla/5.0 (Windows NT 10.0; Win64; x64) AppleWebKit/537.36 (KHTML, like Gecko) Chrome/132.0.0.0 Safari/537.36","WebKit","Chrome","132.0.0.0","Windows","10.0","https://app.prolific.com/","en-US,en;q=0.9","67171faf0f5a8adece49db86","679cf675428f47411a224827","679d169d40bc131050b97497","","null","<img id='selected' src='G_3.jpg' height='90'> <img src='G_1.jpg' height='90'> <img src='G_7.jpg' height='90'> <img src='G_2.jpg' height='90'> <img src='G_6.jpg' height='90'> <img src='G_5.jpg' height='90'> <img src='G_4.jpg' height='90'> <img src='G_8.jpg' height='90'>","null","Learning example 1","",""
"","","","","","html-button-response","138","183231","0.0-109.0","3","1","2025-01-31 18:30:08","838ec4b49f044157bad9e156c8cbc4a3","134.29.63.149","Mozilla/5.0 (Windows NT 10.0; Win64; x64) AppleWebKit/537.36 (KHTML, like Gecko) Chrome/132.0.0.0 Safari/537.36","WebKit","Chrome","132.0.0.0","Windows","10.0","https://app.prolific.com/","en-US,en;q=0.9","67171faf0f5a8adece49db86","679cf675428f47411a224827","679d169d40bc131050b97497","","null","<img id='selected' src='G_3.jpg' height='90'> <img id='selected' src='G_1.jpg' height='90'> <img src='G_7.jpg' height='90'> <img src='G_2.jpg' height='90'> <img src='G_6.jpg' height='90'> <img src='G_5.jpg' height='90'> <img src='G_4.jpg' height='90'> <img src='G_8.jpg' height='90'>","null","Learning example 1","",""
"","","","","","html-button-response","139","183538","0.0-110.0","3","1","2025-01-31 18:30:08","838ec4b49f044157bad9e156c8cbc4a3","134.29.63.149","Mozilla/5.0 (Windows NT 10.0; Win64; x64) AppleWebKit/537.36 (KHTML, like Gecko) Chrome/132.0.0.0 Safari/537.36","WebKit","Chrome","132.0.0.0","Windows","10.0","https://app.prolific.com/","en-US,en;q=0.9","67171faf0f5a8adece49db86","679cf675428f47411a224827","679d169d40bc131050b97497","","null","<img id='selected' src='G_3.jpg' height='90'> <img id='selected' src='G_1.jpg' height='90'> <img src='G_7.jpg' height='90'> <img src='G_2.jpg' height='90'> <img src='G_6.jpg' height='90'> <img src='G_5.jpg' height='90'> <img src='G_4.jpg' height='90'> <img src='G_8.jpg' height='90'>","null","Learning example 1","",""
"","","","","","html-button-response","140","184139","0.0-111.0-0.0-0.0","3","1","2025-01-31 18:30:08","838ec4b49f044157bad9e156c8cbc4a3","134.29.63.149","Mozilla/5.0 (Windows NT 10.0; Win64; x64) AppleWebKit/537.36 (KHTML, like Gecko) Chrome/132.0.0.0 Safari/537.36","WebKit","Chrome","132.0.0.0","Windows","10.0","https://app.prolific.com/","en-US,en;q=0.9","67171faf0f5a8adece49db86","679cf675428f47411a224827","679d169d40bc131050b97497","","596","<img id='selected' src='G_3.jpg' height='90'> <img id='selected' src='G_1.jpg' height='90'> <img src='G_7.jpg' height='90'> <img src='G_2.jpg' height='90'> <img src='G_6.jpg' height='90'> <img src='G_5.jpg' height='90'> <img src='G_4.jpg' height='90'> <img src='G_8.jpg' height='90'>","0","Learning example 1","",""
"","","","","","html-button-response","141","184661","0.0-111.1-0.1-0.1","3","1","2025-01-31 18:30:08","838ec4b49f044157bad9e156c8cbc4a3","134.29.63.149","Mozilla/5.0 (Windows NT 10.0; Win64; x64) AppleWebKit/537.36 (KHTML, like Gecko) Chrome/132.0.0.0 Safari/537.36","WebKit","Chrome","132.0.0.0","Windows","10.0","https://app.prolific.com/","en-US,en;q=0.9","67171faf0f5a8adece49db86","679cf675428f47411a224827","679d169d40bc131050b97497","","519","<img id='selected' src='G_3.jpg' height='90'> <img id='selected' src='G_1.jpg' height='90'> <img src='G_7.jpg' height='90'> <img src='G_2.jpg' height='90'> <img src='G_6.jpg' height='90'> <img src='G_5.jpg' height='90'> <img src='G_4.jpg' height='90'> <img src='G_8.jpg' height='90'>","1","Learning example 1","",""
"","","","","","html-button-response","142","184889","0.0-112.0","3","1","2025-01-31 18:30:08","838ec4b49f044157bad9e156c8cbc4a3","134.29.63.149","Mozilla/5.0 (Windows NT 10.0; Win64; x64) AppleWebKit/537.36 (KHTML, like Gecko) Chrome/132.0.0.0 Safari/537.36","WebKit","Chrome","132.0.0.0","Windows","10.0","https://app.prolific.com/","en-US,en;q=0.9","67171faf0f5a8adece49db86","679cf675428f47411a224827","679d169d40bc131050b97497","","null","<img  src='G_3.jpg' height='90'> <img  src='G_1.jpg' height='90'> <img src='G_7.jpg' height='90'> <img src='G_2.jpg' height='90'> <img src='G_6.jpg' height='90'> <img src='G_5.jpg' height='90'> <img src='G_4.jpg' height='90'> <img src='G_8.jpg' height='90'>","null","Learning example 1","",""
"","","","","","html-button-response","143","185297","0.0-113.0","3","1","2025-01-31 18:30:08","838ec4b49f044157bad9e156c8cbc4a3","134.29.63.149","Mozilla/5.0 (Windows NT 10.0; Win64; x64) AppleWebKit/537.36 (KHTML, like Gecko) Chrome/132.0.0.0 Safari/537.36","WebKit","Chrome","132.0.0.0","Windows","10.0","https://app.prolific.com/","en-US,en;q=0.9","67171faf0f5a8adece49db86","679cf675428f47411a224827","679d169d40bc131050b97497","","null","<img  src='G_3.jpg' height='90'> <img id='selected'  src='G_1.jpg' height='90'> <img src='G_7.jpg' height='90'> <img src='G_2.jpg' height='90'> <img src='G_6.jpg' height='90'> <img src='G_5.jpg' height='90'> <img src='G_4.jpg' height='90'> <img src='G_8.jpg' height='90'>","null","Learning example 1","",""
"","","","","","html-button-response","144","185602","0.0-114.0","3","1","2025-01-31 18:30:08","838ec4b49f044157bad9e156c8cbc4a3","134.29.63.149","Mozilla/5.0 (Windows NT 10.0; Win64; x64) AppleWebKit/537.36 (KHTML, like Gecko) Chrome/132.0.0.0 Safari/537.36","WebKit","Chrome","132.0.0.0","Windows","10.0","https://app.prolific.com/","en-US,en;q=0.9","67171faf0f5a8adece49db86","679cf675428f47411a224827","679d169d40bc131050b97497","","null","<img  src='G_3.jpg' height='90'> <img id='selected'  src='G_1.jpg' height='90'> <img id='selected' src='G_7.jpg' height='90'> <img src='G_2.jpg' height='90'> <img src='G_6.jpg' height='90'> <img src='G_5.jpg' height='90'> <img src='G_4.jpg' height='90'> <img src='G_8.jpg' height='90'>","null","Learning example 1","",""
"","","","","","html-button-response","145","185905","0.0-115.0","3","1","2025-01-31 18:30:08","838ec4b49f044157bad9e156c8cbc4a3","134.29.63.149","Mozilla/5.0 (Windows NT 10.0; Win64; x64) AppleWebKit/537.36 (KHTML, like Gecko) Chrome/132.0.0.0 Safari/537.36","WebKit","Chrome","132.0.0.0","Windows","10.0","https://app.prolific.com/","en-US,en;q=0.9","67171faf0f5a8adece49db86","679cf675428f47411a224827","679d169d40bc131050b97497","","299","<img  src='G_3.jpg' height='90'> <img id='swapped' src='G_7.jpg' height='90'> <img id='swapped'  src='G_1.jpg' height='90'> <img src='G_2.jpg' height='90'> <img src='G_6.jpg' height='90'> <img src='G_5.jpg' height='90'> <img src='G_4.jpg' height='90'> <img src='G_8.jpg' height='90'>","1","Learning example 1","",""
"","","","","","html-button-response","146","186435","0.0-116.0-0.0-0.0","3","1","2025-01-31 18:30:08","838ec4b49f044157bad9e156c8cbc4a3","134.29.63.149","Mozilla/5.0 (Windows NT 10.0; Win64; x64) AppleWebKit/537.36 (KHTML, like Gecko) Chrome/132.0.0.0 Safari/537.36","WebKit","Chrome","132.0.0.0","Windows","10.0","https://app.prolific.com/","en-US,en;q=0.9","67171faf0f5a8adece49db86","679cf675428f47411a224827","679d169d40bc131050b97497","","527","<img  src='G_3.jpg' height='90'> <img id='swapped' src='G_7.jpg' height='90'> <img id='swapped'  src='G_1.jpg' height='90'> <img src='G_2.jpg' height='90'> <img src='G_6.jpg' height='90'> <img src='G_5.jpg' height='90'> <img src='G_4.jpg' height='90'> <img src='G_8.jpg' height='90'>","2","Learning example 1","",""
"","","","","","html-button-response","147","186663","0.0-117.0","3","1","2025-01-31 18:30:08","838ec4b49f044157bad9e156c8cbc4a3","134.29.63.149","Mozilla/5.0 (Windows NT 10.0; Win64; x64) AppleWebKit/537.36 (KHTML, like Gecko) Chrome/132.0.0.0 Safari/537.36","WebKit","Chrome","132.0.0.0","Windows","10.0","https://app.prolific.com/","en-US,en;q=0.9","67171faf0f5a8adece49db86","679cf675428f47411a224827","679d169d40bc131050b97497","","null","<img  src='G_3.jpg' height='90'> <img  src='G_7.jpg' height='90'> <img   src='G_1.jpg' height='90'> <img src='G_2.jpg' height='90'> <img src='G_6.jpg' height='90'> <img src='G_5.jpg' height='90'> <img src='G_4.jpg' height='90'> <img src='G_8.jpg' height='90'>","null","Learning example 1","",""
