"success","timeout","failed_images","failed_audio","failed_video","trial_type","trial_index","time_elapsed","internal_node_id","run_id","condition","recorded_at","source_code_version","ip","user_agent","device","browser","browser_version","platform","platform_version","referer","accept_language","PROLIFIC_PID","STUDY_ID","SESSION_ID","view_history","rt","stimulus","response","phase","question_order","presented_choices"
"true","false","[]","[]","[]","preload","0","614","0.0-0.0","5","1","2025-01-31 18:40:13","838ec4b49f044157bad9e156c8cbc4a3","174.79.1.214","Mozilla/5.0 (Windows NT 10.0; Win64; x64) AppleWebKit/537.36 (KHTML, like Gecko) Chrome/132.0.0.0 Safari/537.36","WebKit","Chrome","132.0.0.0","Windows","10.0","https://app.prolific.com/","en-US,en;q=0.7","63e5257dc5aceb22cee2ddf1","679cf675428f47411a224827","679d18f6b10a7f4fce889c13","","","","","","",""
"","","","","","instructions","1","17784","0.0-1.0","5","1","2025-01-31 18:40:13","838ec4b49f044157bad9e156c8cbc4a3","174.79.1.214","Mozilla/5.0 (Windows NT 10.0; Win64; x64) AppleWebKit/537.36 (KHTML, like Gecko) Chrome/132.0.0.0 Safari/537.36","WebKit","Chrome","132.0.0.0","Windows","10.0","https://app.prolific.com/","en-US,en;q=0.7","63e5257dc5aceb22cee2ddf1","679cf675428f47411a224827","679d18f6b10a7f4fce889c13","[{""page_index"":0,""viewing_time"":17153}]","17154","","","","",""
"","","","","","html-keyboard-response","2","18292","0.0-2.0","5","1","2025-01-31 18:40:13","838ec4b49f044157bad9e156c8cbc4a3","174.79.1.214","Mozilla/5.0 (Windows NT 10.0; Win64; x64) AppleWebKit/537.36 (KHTML, like Gecko) Chrome/132.0.0.0 Safari/537.36","WebKit","Chrome","132.0.0.0","Windows","10.0","https://app.prolific.com/","en-US,en;q=0.7","63e5257dc5aceb22cee2ddf1","679cf675428f47411a224827","679d18f6b10a7f4fce889c13","","null","<p> + <p/>","null","","",""
"","","","","","instructions","3","76579","0.0-3.0","5","1","2025-01-31 18:40:13","838ec4b49f044157bad9e156c8cbc4a3","174.79.1.214","Mozilla/5.0 (Windows NT 10.0; Win64; x64) AppleWebKit/537.36 (KHTML, like Gecko) Chrome/132.0.0.0 Safari/537.36","WebKit","Chrome","132.0.0.0","Windows","10.0","https://app.prolific.com/","en-US,en;q=0.7","63e5257dc5aceb22cee2ddf1","679cf675428f47411a224827","679d18f6b10a7f4fce889c13","[{""page_index"":0,""viewing_time"":14230},{""page_index"":1,""viewing_time"":9791},{""page_index"":2,""viewing_time"":19424},{""page_index"":3,""viewing_time"":5240},{""page_index"":4,""viewing_time"":9600}]","58284","","","","",""
"","","","","","html-button-response","4","101083","0.0-4.0-0.0-0.0","5","1","2025-01-31 18:40:13","838ec4b49f044157bad9e156c8cbc4a3","174.79.1.214","Mozilla/5.0 (Windows NT 10.0; Win64; x64) AppleWebKit/537.36 (KHTML, like Gecko) Chrome/132.0.0.0 Safari/537.36","WebKit","Chrome","132.0.0.0","Windows","10.0","https://app.prolific.com/","en-US,en;q=0.7","63e5257dc5aceb22cee2ddf1","679cf675428f47411a224827","679d18f6b10a7f4fce889c13","","24500","","0","Intro Trial","",""
"","","","","","html-button-response","5","102296","0.0-4.1-0.1-0.1","5","1","2025-01-31 18:40:13","838ec4b49f044157bad9e156c8cbc4a3","174.79.1.214","Mozilla/5.0 (Windows NT 10.0; Win64; x64) AppleWebKit/537.36 (KHTML, like Gecko) Chrome/132.0.0.0 Safari/537.36","WebKit","Chrome","132.0.0.0","Windows","10.0","https://app.prolific.com/","en-US,en;q=0.7","63e5257dc5aceb22cee2ddf1","679cf675428f47411a224827","679d18f6b10a7f4fce889c13","","1210","","2","Intro Trial","",""
"","","","","","html-button-response","6","113494","0.0-4.2-0.2-0.2","5","1","2025-01-31 18:40:13","838ec4b49f044157bad9e156c8cbc4a3","174.79.1.214","Mozilla/5.0 (Windows NT 10.0; Win64; x64) AppleWebKit/537.36 (KHTML, like Gecko) Chrome/132.0.0.0 Safari/537.36","WebKit","Chrome","132.0.0.0","Windows","10.0","https://app.prolific.com/","en-US,en;q=0.7","63e5257dc5aceb22cee2ddf1","679cf675428f47411a224827","679d18f6b10a7f4fce889c13","","11196","","1","Intro Trial","",""
"","","","","","html-button-response","7","114210","0.0-4.3-0.3-0.3","5","1","2025-01-31 18:40:13","838ec4b49f044157bad9e156c8cbc4a3","174.79.1.214","Mozilla/5.0 (Windows NT 10.0; Win64; x64) AppleWebKit/537.36 (KHTML, like Gecko) Chrome/132.0.0.0 Safari/537.36","WebKit","Chrome","132.0.0.0","Windows","10.0","https://app.prolific.com/","en-US,en;q=0.7","63e5257dc5aceb22cee2ddf1","679cf675428f47411a224827","679d18f6b10a7f4fce889c13","","713","","2","Intro Trial","",""
"","","","","","html-button-response","8","118807","0.0-4.4-0.4-0.4","5","1","2025-01-31 18:40:13","838ec4b49f044157bad9e156c8cbc4a3","174.79.1.214","Mozilla/5.0 (Windows NT 10.0; Win64; x64) AppleWebKit/537.36 (KHTML, like Gecko) Chrome/132.0.0.0 Safari/537.36","WebKit","Chrome","132.0.0.0","Windows","10.0","https://app.prolific.com/","en-US,en;q=0.7","63e5257dc5aceb22cee2ddf1","679cf675428f47411a224827","679d18f6b10a7f4fce889c13","","4592","","3","Intro Trial","",""
"","","","","","html-button-response","9","119498","0.0-4.5-0.5-0.5","5","1","2025-01-31 18:40:13","838ec4b49f044157bad9e156c8cbc4a3","174.79.1.214","Mozilla/5.0 (Windows NT 10.0; Win64; x64) AppleWebKit/537.36 (KHTML, like Gecko) Chrome/132.0.0.0 Safari/537.36","WebKit","Chrome","132.0.0.0","Windows","10.0","https://app.prolific.com/","en-US,en;q=0.7","63e5257dc5aceb22cee2ddf1","679cf675428f47411a224827","679d18f6b10a7f4fce889c13","","689","","2","Intro Trial","",""
"","","","","","html-button-response","10","120761","0.0-4.6-0.6-0.6","5","1","2025-01-31 18:40:13","838ec4b49f044157bad9e156c8cbc4a3","174.79.1.214","Mozilla/5.0 (Windows NT 10.0; Win64; x64) AppleWebKit/537.36 (KHTML, like Gecko) Chrome/132.0.0.0 Safari/537.36","WebKit","Chrome","132.0.0.0","Windows","10.0","https://app.prolific.com/","en-US,en;q=0.7","63e5257dc5aceb22cee2ddf1","679cf675428f47411a224827","679d18f6b10a7f4fce889c13","","1260","","4","Intro Trial","",""
"","","","","","html-button-response","11","121367","0.0-4.7-0.7-0.7","5","1","2025-01-31 18:40:13","838ec4b49f044157bad9e156c8cbc4a3","174.79.1.214","Mozilla/5.0 (Windows NT 10.0; Win64; x64) AppleWebKit/537.36 (KHTML, like Gecko) Chrome/132.0.0.0 Safari/537.36","WebKit","Chrome","132.0.0.0","Windows","10.0","https://app.prolific.com/","en-US,en;q=0.7","63e5257dc5aceb22cee2ddf1","679cf675428f47411a224827","679d18f6b10a7f4fce889c13","","603","","3","Intro Trial","",""
"","","","","","html-button-response","12","125940","0.0-4.8-0.8-0.8","5","1","2025-01-31 18:40:13","838ec4b49f044157bad9e156c8cbc4a3","174.79.1.214","Mozilla/5.0 (Windows NT 10.0; Win64; x64) AppleWebKit/537.36 (KHTML, like Gecko) Chrome/132.0.0.0 Safari/537.36","WebKit","Chrome","132.0.0.0","Windows","10.0","https://app.prolific.com/","en-US,en;q=0.7","63e5257dc5aceb22cee2ddf1","679cf675428f47411a224827","679d18f6b10a7f4fce889c13","","4570","","1","Intro Trial","",""
"","","","","","html-button-response","13","126972","0.0-4.9-0.9-0.9","5","1","2025-01-31 18:40:13","838ec4b49f044157bad9e156c8cbc4a3","174.79.1.214","Mozilla/5.0 (Windows NT 10.0; Win64; x64) AppleWebKit/537.36 (KHTML, like Gecko) Chrome/132.0.0.0 Safari/537.36","WebKit","Chrome","132.0.0.0","Windows","10.0","https://app.prolific.com/","en-US,en;q=0.7","63e5257dc5aceb22cee2ddf1","679cf675428f47411a224827","679d18f6b10a7f4fce889c13","","1029","","3","Intro Trial","",""
"","","","","","html-button-response","14","128573","0.0-4.10-0.10-0.10","5","1","2025-01-31 18:40:13","838ec4b49f044157bad9e156c8cbc4a3","174.79.1.214","Mozilla/5.0 (Windows NT 10.0; Win64; x64) AppleWebKit/537.36 (KHTML, like Gecko) Chrome/132.0.0.0 Safari/537.36","WebKit","Chrome","132.0.0.0","Windows","10.0","https://app.prolific.com/","en-US,en;q=0.7","63e5257dc5aceb22cee2ddf1","679cf675428f47411a224827","679d18f6b10a7f4fce889c13","","1580","","4","Intro Trial","",""
"","","","","","html-button-response","15","129179","0.0-4.11-0.11-0.11","5","1","2025-01-31 18:40:13","838ec4b49f044157bad9e156c8cbc4a3","174.79.1.214","Mozilla/5.0 (Windows NT 10.0; Win64; x64) AppleWebKit/537.36 (KHTML, like Gecko) Chrome/132.0.0.0 Safari/537.36","WebKit","Chrome","132.0.0.0","Windows","10.0","https://app.prolific.com/","en-US,en;q=0.7","63e5257dc5aceb22cee2ddf1","679cf675428f47411a224827","679d18f6b10a7f4fce889c13","","603","","3","Intro Trial","",""
"","","","","","html-button-response","16","130003","0.0-4.12-0.12-0.12","5","1","2025-01-31 18:40:13","838ec4b49f044157bad9e156c8cbc4a3","174.79.1.214","Mozilla/5.0 (Windows NT 10.0; Win64; x64) AppleWebKit/537.36 (KHTML, like Gecko) Chrome/132.0.0.0 Safari/537.36","WebKit","Chrome","132.0.0.0","Windows","10.0","https://app.prolific.com/","en-US,en;q=0.7","63e5257dc5aceb22cee2ddf1","679cf675428f47411a224827","679d18f6b10a7f4fce889c13","","822","","3","Intro Trial","",""
"","","","","","html-button-response","17","130501","0.0-4.13-0.13-0.13","5","1","2025-01-31 18:40:13","838ec4b49f044157bad9e156c8cbc4a3","174.79.1.214","Mozilla/5.0 (Windows NT 10.0; Win64; x64) AppleWebKit/537.36 (KHTML, like Gecko) Chrome/132.0.0.0 Safari/537.36","WebKit","Chrome","132.0.0.0","Windows","10.0","https://app.prolific.com/","en-US,en;q=0.7","63e5257dc5aceb22cee2ddf1","679cf675428f47411a224827","679d18f6b10a7f4fce889c13","","495","","2","Intro Trial","",""
"","","","","","html-button-response","18","131023","0.0-4.14-0.14-0.14","5","1","2025-01-31 18:40:13","838ec4b49f044157bad9e156c8cbc4a3","174.79.1.214","Mozilla/5.0 (Windows NT 10.0; Win64; x64) AppleWebKit/537.36 (KHTML, like Gecko) Chrome/132.0.0.0 Safari/537.36","WebKit","Chrome","132.0.0.0","Windows","10.0","https://app.prolific.com/","en-US,en;q=0.7","63e5257dc5aceb22cee2ddf1","679cf675428f47411a224827","679d18f6b10a7f4fce889c13","","520","","3","Intro Trial","",""
"","","","","","html-button-response","19","131969","0.0-4.15-0.15-0.15","5","1","2025-01-31 18:40:13","838ec4b49f044157bad9e156c8cbc4a3","174.79.1.214","Mozilla/5.0 (Windows NT 10.0; Win64; x64) AppleWebKit/537.36 (KHTML, like Gecko) Chrome/132.0.0.0 Safari/537.36","WebKit","Chrome","132.0.0.0","Windows","10.0","https://app.prolific.com/","en-US,en;q=0.7","63e5257dc5aceb22cee2ddf1","679cf675428f47411a224827","679d18f6b10a7f4fce889c13","","943","","4","Intro Trial","",""
"","","","","","html-button-response","20","132916","0.0-4.16-0.16-0.16","5","1","2025-01-31 18:40:13","838ec4b49f044157bad9e156c8cbc4a3","174.79.1.214","Mozilla/5.0 (Windows NT 10.0; Win64; x64) AppleWebKit/537.36 (KHTML, like Gecko) Chrome/132.0.0.0 Safari/537.36","WebKit","Chrome","132.0.0.0","Windows","10.0","https://app.prolific.com/","en-US,en;q=0.7","63e5257dc5aceb22cee2ddf1","679cf675428f47411a224827","679d18f6b10a7f4fce889c13","","944","","2","Intro Trial","",""
"","","","","","html-button-response","21","133886","0.0-4.17-0.17-0.17","5","1","2025-01-31 18:40:13","838ec4b49f044157bad9e156c8cbc4a3","174.79.1.214","Mozilla/5.0 (Windows NT 10.0; Win64; x64) AppleWebKit/537.36 (KHTML, like Gecko) Chrome/132.0.0.0 Safari/537.36","WebKit","Chrome","132.0.0.0","Windows","10.0","https://app.prolific.com/","en-US,en;q=0.7","63e5257dc5aceb22cee2ddf1","679cf675428f47411a224827","679d18f6b10a7f4fce889c13","","968","","1","Intro Trial","",""
"","","","","","html-button-response","22","134520","0.0-4.18-0.18-0.18","5","1","2025-01-31 18:40:13","838ec4b49f044157bad9e156c8cbc4a3","174.79.1.214","Mozilla/5.0 (Windows NT 10.0; Win64; x64) AppleWebKit/537.36 (KHTML, like Gecko) Chrome/132.0.0.0 Safari/537.36","WebKit","Chrome","132.0.0.0","Windows","10.0","https://app.prolific.com/","en-US,en;q=0.7","63e5257dc5aceb22cee2ddf1","679cf675428f47411a224827","679d18f6b10a7f4fce889c13","","630","","3","Intro Trial","",""
"","","","","","html-button-response","23","135196","0.0-4.19-0.19-0.19","5","1","2025-01-31 18:40:13","838ec4b49f044157bad9e156c8cbc4a3","174.79.1.214","Mozilla/5.0 (Windows NT 10.0; Win64; x64) AppleWebKit/537.36 (KHTML, like Gecko) Chrome/132.0.0.0 Safari/537.36","WebKit","Chrome","132.0.0.0","Windows","10.0","https://app.prolific.com/","en-US,en;q=0.7","63e5257dc5aceb22cee2ddf1","679cf675428f47411a224827","679d18f6b10a7f4fce889c13","","672","","4","Intro Trial","",""
"","","","","","html-button-response","24","135874","0.0-4.20-0.20-0.20","5","1","2025-01-31 18:40:13","838ec4b49f044157bad9e156c8cbc4a3","174.79.1.214","Mozilla/5.0 (Windows NT 10.0; Win64; x64) AppleWebKit/537.36 (KHTML, like Gecko) Chrome/132.0.0.0 Safari/537.36","WebKit","Chrome","132.0.0.0","Windows","10.0","https://app.prolific.com/","en-US,en;q=0.7","63e5257dc5aceb22cee2ddf1","679cf675428f47411a224827","679d18f6b10a7f4fce889c13","","676","","2","Intro Trial","",""
"","","","","","html-button-response","25","136566","0.0-4.21-0.21-0.21","5","1","2025-01-31 18:40:13","838ec4b49f044157bad9e156c8cbc4a3","174.79.1.214","Mozilla/5.0 (Windows NT 10.0; Win64; x64) AppleWebKit/537.36 (KHTML, like Gecko) Chrome/132.0.0.0 Safari/537.36","WebKit","Chrome","132.0.0.0","Windows","10.0","https://app.prolific.com/","en-US,en;q=0.7","63e5257dc5aceb22cee2ddf1","679cf675428f47411a224827","679d18f6b10a7f4fce889c13","","688","","0","Intro Trial","",""
"","","","","","html-button-response","26","137245","0.0-4.22-0.22-0.22","5","1","2025-01-31 18:40:13","838ec4b49f044157bad9e156c8cbc4a3","174.79.1.214","Mozilla/5.0 (Windows NT 10.0; Win64; x64) AppleWebKit/537.36 (KHTML, like Gecko) Chrome/132.0.0.0 Safari/537.36","WebKit","Chrome","132.0.0.0","Windows","10.0","https://app.prolific.com/","en-US,en;q=0.7","63e5257dc5aceb22cee2ddf1","679cf675428f47411a224827","679d18f6b10a7f4fce889c13","","677","","1","Intro Trial","",""
"","","","","","html-button-response","27","138567","0.0-4.23-0.23-0.23","5","1","2025-01-31 18:40:13","838ec4b49f044157bad9e156c8cbc4a3","174.79.1.214","Mozilla/5.0 (Windows NT 10.0; Win64; x64) AppleWebKit/537.36 (KHTML, like Gecko) Chrome/132.0.0.0 Safari/537.36","WebKit","Chrome","132.0.0.0","Windows","10.0","https://app.prolific.com/","en-US,en;q=0.7","63e5257dc5aceb22cee2ddf1","679cf675428f47411a224827","679d18f6b10a7f4fce889c13","","1319","","0","Intro Trial","",""
"","","","","","html-button-response","28","139137","0.0-4.24-0.24-0.24","5","1","2025-01-31 18:40:13","838ec4b49f044157bad9e156c8cbc4a3","174.79.1.214","Mozilla/5.0 (Windows NT 10.0; Win64; x64) AppleWebKit/537.36 (KHTML, like Gecko) Chrome/132.0.0.0 Safari/537.36","WebKit","Chrome","132.0.0.0","Windows","10.0","https://app.prolific.com/","en-US,en;q=0.7","63e5257dc5aceb22cee2ddf1","679cf675428f47411a224827","679d18f6b10a7f4fce889c13","","568","","2","Intro Trial","",""
"","","","","","html-button-response","29","140654","0.0-4.25-0.25-0.25","5","1","2025-01-31 18:40:13","838ec4b49f044157bad9e156c8cbc4a3","174.79.1.214","Mozilla/5.0 (Windows NT 10.0; Win64; x64) AppleWebKit/537.36 (KHTML, like Gecko) Chrome/132.0.0.0 Safari/537.36","WebKit","Chrome","132.0.0.0","Windows","10.0","https://app.prolific.com/","en-US,en;q=0.7","63e5257dc5aceb22cee2ddf1","679cf675428f47411a224827","679d18f6b10a7f4fce889c13","","1513","","0","Intro Trial","",""
"","","","","","html-button-response","30","141637","0.0-4.26-0.26-0.26","5","1","2025-01-31 18:40:13","838ec4b49f044157bad9e156c8cbc4a3","174.79.1.214","Mozilla/5.0 (Windows NT 10.0; Win64; x64) AppleWebKit/537.36 (KHTML, like Gecko) Chrome/132.0.0.0 Safari/537.36","WebKit","Chrome","132.0.0.0","Windows","10.0","https://app.prolific.com/","en-US,en;q=0.7","63e5257dc5aceb22cee2ddf1","679cf675428f47411a224827","679d18f6b10a7f4fce889c13","","980","","2","Intro Trial","",""
"","","","","","html-button-response","31","142244","0.0-4.27-0.27-0.27","5","1","2025-01-31 18:40:13","838ec4b49f044157bad9e156c8cbc4a3","174.79.1.214","Mozilla/5.0 (Windows NT 10.0; Win64; x64) AppleWebKit/537.36 (KHTML, like Gecko) Chrome/132.0.0.0 Safari/537.36","WebKit","Chrome","132.0.0.0","Windows","10.0","https://app.prolific.com/","en-US,en;q=0.7","63e5257dc5aceb22cee2ddf1","679cf675428f47411a224827","679d18f6b10a7f4fce889c13","","604","","3","Intro Trial","",""
"","","","","","html-button-response","32","142826","0.0-4.28-0.28-0.28","5","1","2025-01-31 18:40:13","838ec4b49f044157bad9e156c8cbc4a3","174.79.1.214","Mozilla/5.0 (Windows NT 10.0; Win64; x64) AppleWebKit/537.36 (KHTML, like Gecko) Chrome/132.0.0.0 Safari/537.36","WebKit","Chrome","132.0.0.0","Windows","10.0","https://app.prolific.com/","en-US,en;q=0.7","63e5257dc5aceb22cee2ddf1","679cf675428f47411a224827","679d18f6b10a7f4fce889c13","","579","","4","Intro Trial","",""
"","","","","","html-button-response","33","143711","0.0-4.29-0.29-0.29","5","1","2025-01-31 18:40:13","838ec4b49f044157bad9e156c8cbc4a3","174.79.1.214","Mozilla/5.0 (Windows NT 10.0; Win64; x64) AppleWebKit/537.36 (KHTML, like Gecko) Chrome/132.0.0.0 Safari/537.36","WebKit","Chrome","132.0.0.0","Windows","10.0","https://app.prolific.com/","en-US,en;q=0.7","63e5257dc5aceb22cee2ddf1","679cf675428f47411a224827","679d18f6b10a7f4fce889c13","","882","","3","Intro Trial","",""
"","","","","","html-button-response","34","144377","0.0-4.30-0.30-0.30","5","1","2025-01-31 18:40:13","838ec4b49f044157bad9e156c8cbc4a3","174.79.1.214","Mozilla/5.0 (Windows NT 10.0; Win64; x64) AppleWebKit/537.36 (KHTML, like Gecko) Chrome/132.0.0.0 Safari/537.36","WebKit","Chrome","132.0.0.0","Windows","10.0","https://app.prolific.com/","en-US,en;q=0.7","63e5257dc5aceb22cee2ddf1","679cf675428f47411a224827","679d18f6b10a7f4fce889c13","","663","","2","Intro Trial","",""
"","","","","","html-button-response","35","145131","0.0-4.31-0.31-0.31","5","1","2025-01-31 18:40:13","838ec4b49f044157bad9e156c8cbc4a3","174.79.1.214","Mozilla/5.0 (Windows NT 10.0; Win64; x64) AppleWebKit/537.36 (KHTML, like Gecko) Chrome/132.0.0.0 Safari/537.36","WebKit","Chrome","132.0.0.0","Windows","10.0","https://app.prolific.com/","en-US,en;q=0.7","63e5257dc5aceb22cee2ddf1","679cf675428f47411a224827","679d18f6b10a7f4fce889c13","","748","","1","Intro Trial","",""
"","","","","","html-button-response","36","145786","0.0-4.32-0.32-0.32","5","1","2025-01-31 18:40:13","838ec4b49f044157bad9e156c8cbc4a3","174.79.1.214","Mozilla/5.0 (Windows NT 10.0; Win64; x64) AppleWebKit/537.36 (KHTML, like Gecko) Chrome/132.0.0.0 Safari/537.36","WebKit","Chrome","132.0.0.0","Windows","10.0","https://app.prolific.com/","en-US,en;q=0.7","63e5257dc5aceb22cee2ddf1","679cf675428f47411a224827","679d18f6b10a7f4fce889c13","","652","","0","Intro Trial","",""
"","","","","","html-button-response","37","146780","0.0-4.33-0.33-0.33","5","1","2025-01-31 18:40:13","838ec4b49f044157bad9e156c8cbc4a3","174.79.1.214","Mozilla/5.0 (Windows NT 10.0; Win64; x64) AppleWebKit/537.36 (KHTML, like Gecko) Chrome/132.0.0.0 Safari/537.36","WebKit","Chrome","132.0.0.0","Windows","10.0","https://app.prolific.com/","en-US,en;q=0.7","63e5257dc5aceb22cee2ddf1","679cf675428f47411a224827","679d18f6b10a7f4fce889c13","","991","","4","Intro Trial","",""
"","","","","","html-button-response","38","149182","0.0-4.34-0.34-0.34","5","1","2025-01-31 18:40:13","838ec4b49f044157bad9e156c8cbc4a3","174.79.1.214","Mozilla/5.0 (Windows NT 10.0; Win64; x64) AppleWebKit/537.36 (KHTML, like Gecko) Chrome/132.0.0.0 Safari/537.36","WebKit","Chrome","132.0.0.0","Windows","10.0","https://app.prolific.com/","en-US,en;q=0.7","63e5257dc5aceb22cee2ddf1","679cf675428f47411a224827","679d18f6b10a7f4fce889c13","","2399","","5","Intro Trial","",""
"","","","","","html-keyboard-response","39","175155","0.0-5.0","5","1","2025-01-31 18:40:13","838ec4b49f044157bad9e156c8cbc4a3","174.79.1.214","Mozilla/5.0 (Windows NT 10.0; Win64; x64) AppleWebKit/537.36 (KHTML, like Gecko) Chrome/132.0.0.0 Safari/537.36","WebKit","Chrome","132.0.0.0","Windows","10.0","https://app.prolific.com/","en-US,en;q=0.7","63e5257dc5aceb22cee2ddf1","679cf675428f47411a224827","679d18f6b10a7f4fce889c13","","25970","[""You sorted correctly by using the balance 17 times. <br><br> <img src='G_5.jpg' height='90'><img src='G_2.jpg' height='90'><img src='G_3.jpg' height='90'><img src='G_1.jpg' height='90'><img src='G_4.jpg' height='90'><br><br> Your final order is 1,2,3,4,5<br><br><br>Omgne Sort in this game will allow you to sort correctly by using the balance 8 times. Press Enter to learn it!""]","enter","","",""
"","","","","","html-keyboard-response","40","182987","0.0-6.0","5","1","2025-01-31 18:40:13","838ec4b49f044157bad9e156c8cbc4a3","174.79.1.214","Mozilla/5.0 (Windows NT 10.0; Win64; x64) AppleWebKit/537.36 (KHTML, like Gecko) Chrome/132.0.0.0 Safari/537.36","WebKit","Chrome","132.0.0.0","Windows","10.0","https://app.prolific.com/","en-US,en;q=0.7","63e5257dc5aceb22cee2ddf1","679cf675428f47411a224827","679d18f6b10a7f4fce889c13","","7829","<p>Welcome to the learning phase! <br><br> You will learn by six examples. The following learning trials will not be used to calculate your performance. <br><br> Press Enter to continue.<p/>","enter","","",""
"","","","","","html-keyboard-response","41","194507","0.0-7.0","5","1","2025-01-31 18:40:13","838ec4b49f044157bad9e156c8cbc4a3","174.79.1.214","Mozilla/5.0 (Windows NT 10.0; Win64; x64) AppleWebKit/537.36 (KHTML, like Gecko) Chrome/132.0.0.0 Safari/537.36","WebKit","Chrome","132.0.0.0","Windows","10.0","https://app.prolific.com/","en-US,en;q=0.7","63e5257dc5aceb22cee2ddf1","679cf675428f47411a224827","679d18f6b10a7f4fce889c13","","11518","[""Example 1<br><br>You will watch Omnge Sort in action. Try to identify any patterns in the comparisons made by this method. <br><br>Press Enter to continue.""]","enter","","",""
"","","","","","html-keyboard-response","42","195023","0.0-8.0","5","1","2025-01-31 18:40:13","838ec4b49f044157bad9e156c8cbc4a3","174.79.1.214","Mozilla/5.0 (Windows NT 10.0; Win64; x64) AppleWebKit/537.36 (KHTML, like Gecko) Chrome/132.0.0.0 Safari/537.36","WebKit","Chrome","132.0.0.0","Windows","10.0","https://app.prolific.com/","en-US,en;q=0.7","63e5257dc5aceb22cee2ddf1","679cf675428f47411a224827","679d18f6b10a7f4fce889c13","","null","<img id='selected' src='G_1.jpg' height='90'> <img src='G_9.jpg' height='90'> <img src='G_7.jpg' height='90'> <img src='G_5.jpg' height='90'> <img src='G_3.jpg' height='90'>","null","Animation0","",""
"","","","","","html-keyboard-response","43","195536","0.0-9.0","5","1","2025-01-31 18:40:13","838ec4b49f044157bad9e156c8cbc4a3","174.79.1.214","Mozilla/5.0 (Windows NT 10.0; Win64; x64) AppleWebKit/537.36 (KHTML, like Gecko) Chrome/132.0.0.0 Safari/537.36","WebKit","Chrome","132.0.0.0","Windows","10.0","https://app.prolific.com/","en-US,en;q=0.7","63e5257dc5aceb22cee2ddf1","679cf675428f47411a224827","679d18f6b10a7f4fce889c13","","null","<img id='selected' src='G_1.jpg' height='90'> <img id='selected' src='G_9.jpg' height='90'> <img src='G_7.jpg' height='90'> <img src='G_5.jpg' height='90'> <img src='G_3.jpg' height='90'>","null","Animation0","",""
"","","","","","html-keyboard-response","44","196042","0.0-10.0","5","1","2025-01-31 18:40:13","838ec4b49f044157bad9e156c8cbc4a3","174.79.1.214","Mozilla/5.0 (Windows NT 10.0; Win64; x64) AppleWebKit/537.36 (KHTML, like Gecko) Chrome/132.0.0.0 Safari/537.36","WebKit","Chrome","132.0.0.0","Windows","10.0","https://app.prolific.com/","en-US,en;q=0.7","63e5257dc5aceb22cee2ddf1","679cf675428f47411a224827","679d18f6b10a7f4fce889c13","","null","<img id='swapped' src='G_9.jpg' height='90'> <img id='swapped' src='G_1.jpg' height='90'> <img src='G_7.jpg' height='90'> <img src='G_5.jpg' height='90'> <img src='G_3.jpg' height='90'>","null","Animation0","",""
"","","","","","html-keyboard-response","45","196358","0.0-11.0","5","1","2025-01-31 18:40:13","838ec4b49f044157bad9e156c8cbc4a3","174.79.1.214","Mozilla/5.0 (Windows NT 10.0; Win64; x64) AppleWebKit/537.36 (KHTML, like Gecko) Chrome/132.0.0.0 Safari/537.36","WebKit","Chrome","132.0.0.0","Windows","10.0","https://app.prolific.com/","en-US,en;q=0.7","63e5257dc5aceb22cee2ddf1","679cf675428f47411a224827","679d18f6b10a7f4fce889c13","","null","<img  src='G_9.jpg' height='90'> <img  src='G_1.jpg' height='90'> <img src='G_7.jpg' height='90'> <img src='G_5.jpg' height='90'> <img src='G_3.jpg' height='90'>","null","Animation0","",""
"","","","","","html-keyboard-response","46","196881","0.0-12.0","5","1","2025-01-31 18:40:13","838ec4b49f044157bad9e156c8cbc4a3","174.79.1.214","Mozilla/5.0 (Windows NT 10.0; Win64; x64) AppleWebKit/537.36 (KHTML, like Gecko) Chrome/132.0.0.0 Safari/537.36","WebKit","Chrome","132.0.0.0","Windows","10.0","https://app.prolific.com/","en-US,en;q=0.7","63e5257dc5aceb22cee2ddf1","679cf675428f47411a224827","679d18f6b10a7f4fce889c13","","null","<img  src='G_9.jpg' height='90'> <img id='selected'  src='G_1.jpg' height='90'> <img src='G_7.jpg' height='90'> <img src='G_5.jpg' height='90'> <img src='G_3.jpg' height='90'>","null","Animation0","",""
"","","","","","html-keyboard-response","47","197397","0.0-13.0","5","1","2025-01-31 18:40:13","838ec4b49f044157bad9e156c8cbc4a3","174.79.1.214","Mozilla/5.0 (Windows NT 10.0; Win64; x64) AppleWebKit/537.36 (KHTML, like Gecko) Chrome/132.0.0.0 Safari/537.36","WebKit","Chrome","132.0.0.0","Windows","10.0","https://app.prolific.com/","en-US,en;q=0.7","63e5257dc5aceb22cee2ddf1","679cf675428f47411a224827","679d18f6b10a7f4fce889c13","","null","<img  src='G_9.jpg' height='90'> <img id='selected'  src='G_1.jpg' height='90'> <img id='selected' src='G_7.jpg' height='90'> <img src='G_5.jpg' height='90'> <img src='G_3.jpg' height='90'>","null","Animation0","",""
"","","","","","html-keyboard-response","48","197914","0.0-14.0","5","1","2025-01-31 18:40:13","838ec4b49f044157bad9e156c8cbc4a3","174.79.1.214","Mozilla/5.0 (Windows NT 10.0; Win64; x64) AppleWebKit/537.36 (KHTML, like Gecko) Chrome/132.0.0.0 Safari/537.36","WebKit","Chrome","132.0.0.0","Windows","10.0","https://app.prolific.com/","en-US,en;q=0.7","63e5257dc5aceb22cee2ddf1","679cf675428f47411a224827","679d18f6b10a7f4fce889c13","","null","<img  src='G_9.jpg' height='90'> <img id='selected'  src='G_1.jpg' height='90'> <img id='selected' src='G_7.jpg' height='90'> <img src='G_5.jpg' height='90'> <img src='G_3.jpg' height='90'>","null","Animation0","",""
"","","","","","html-keyboard-response","49","198230","0.0-15.0","5","1","2025-01-31 18:40:13","838ec4b49f044157bad9e156c8cbc4a3","174.79.1.214","Mozilla/5.0 (Windows NT 10.0; Win64; x64) AppleWebKit/537.36 (KHTML, like Gecko) Chrome/132.0.0.0 Safari/537.36","WebKit","Chrome","132.0.0.0","Windows","10.0","https://app.prolific.com/","en-US,en;q=0.7","63e5257dc5aceb22cee2ddf1","679cf675428f47411a224827","679d18f6b10a7f4fce889c13","","null","<img  src='G_9.jpg' height='90'> <img   src='G_1.jpg' height='90'> <img  src='G_7.jpg' height='90'> <img src='G_5.jpg' height='90'> <img src='G_3.jpg' height='90'>","null","Animation0","",""
"","","","","","html-keyboard-response","50","198748","0.0-16.0","5","1","2025-01-31 18:40:13","838ec4b49f044157bad9e156c8cbc4a3","174.79.1.214","Mozilla/5.0 (Windows NT 10.0; Win64; x64) AppleWebKit/537.36 (KHTML, like Gecko) Chrome/132.0.0.0 Safari/537.36","WebKit","Chrome","132.0.0.0","Windows","10.0","https://app.prolific.com/","en-US,en;q=0.7","63e5257dc5aceb22cee2ddf1","679cf675428f47411a224827","679d18f6b10a7f4fce889c13","","null","<img  src='G_9.jpg' height='90'> <img   src='G_1.jpg' height='90'> <img id='selected'  src='G_7.jpg' height='90'> <img src='G_5.jpg' height='90'> <img src='G_3.jpg' height='90'>","null","Animation0","",""
"","","","","","html-keyboard-response","51","199264","0.0-17.0","5","1","2025-01-31 18:40:13","838ec4b49f044157bad9e156c8cbc4a3","174.79.1.214","Mozilla/5.0 (Windows NT 10.0; Win64; x64) AppleWebKit/537.36 (KHTML, like Gecko) Chrome/132.0.0.0 Safari/537.36","WebKit","Chrome","132.0.0.0","Windows","10.0","https://app.prolific.com/","en-US,en;q=0.7","63e5257dc5aceb22cee2ddf1","679cf675428f47411a224827","679d18f6b10a7f4fce889c13","","null","<img  src='G_9.jpg' height='90'> <img   src='G_1.jpg' height='90'> <img id='selected'  src='G_7.jpg' height='90'> <img id='selected' src='G_5.jpg' height='90'> <img src='G_3.jpg' height='90'>","null","Animation0","",""
"","","","","","html-keyboard-response","52","199787","0.0-18.0","5","1","2025-01-31 18:40:13","838ec4b49f044157bad9e156c8cbc4a3","174.79.1.214","Mozilla/5.0 (Windows NT 10.0; Win64; x64) AppleWebKit/537.36 (KHTML, like Gecko) Chrome/132.0.0.0 Safari/537.36","WebKit","Chrome","132.0.0.0","Windows","10.0","https://app.prolific.com/","en-US,en;q=0.7","63e5257dc5aceb22cee2ddf1","679cf675428f47411a224827","679d18f6b10a7f4fce889c13","","null","<img  src='G_9.jpg' height='90'> <img   src='G_1.jpg' height='90'> <img id='selected'  src='G_7.jpg' height='90'> <img id='selected' src='G_5.jpg' height='90'> <img src='G_3.jpg' height='90'>","null","Animation0","",""
"","","","","","html-keyboard-response","53","200103","0.0-19.0","5","1","2025-01-31 18:40:13","838ec4b49f044157bad9e156c8cbc4a3","174.79.1.214","Mozilla/5.0 (Windows NT 10.0; Win64; x64) AppleWebKit/537.36 (KHTML, like Gecko) Chrome/132.0.0.0 Safari/537.36","WebKit","Chrome","132.0.0.0","Windows","10.0","https://app.prolific.com/","en-US,en;q=0.7","63e5257dc5aceb22cee2ddf1","679cf675428f47411a224827","679d18f6b10a7f4fce889c13","","null","<img  src='G_9.jpg' height='90'> <img   src='G_1.jpg' height='90'> <img   src='G_7.jpg' height='90'> <img  src='G_5.jpg' height='90'> <img src='G_3.jpg' height='90'>","null","Animation0","",""
"","","","","","html-keyboard-response","54","200621","0.0-20.0","5","1","2025-01-31 18:40:13","838ec4b49f044157bad9e156c8cbc4a3","174.79.1.214","Mozilla/5.0 (Windows NT 10.0; Win64; x64) AppleWebKit/537.36 (KHTML, like Gecko) Chrome/132.0.0.0 Safari/537.36","WebKit","Chrome","132.0.0.0","Windows","10.0","https://app.prolific.com/","en-US,en;q=0.7","63e5257dc5aceb22cee2ddf1","679cf675428f47411a224827","679d18f6b10a7f4fce889c13","","null","<img  src='G_9.jpg' height='90'> <img   src='G_1.jpg' height='90'> <img   src='G_7.jpg' height='90'> <img id='selected'  src='G_5.jpg' height='90'> <img src='G_3.jpg' height='90'>","null","Animation0","",""
"","","","","","html-keyboard-response","55","201137","0.0-21.0","5","1","2025-01-31 18:40:13","838ec4b49f044157bad9e156c8cbc4a3","174.79.1.214","Mozilla/5.0 (Windows NT 10.0; Win64; x64) AppleWebKit/537.36 (KHTML, like Gecko) Chrome/132.0.0.0 Safari/537.36","WebKit","Chrome","132.0.0.0","Windows","10.0","https://app.prolific.com/","en-US,en;q=0.7","63e5257dc5aceb22cee2ddf1","679cf675428f47411a224827","679d18f6b10a7f4fce889c13","","null","<img  src='G_9.jpg' height='90'> <img   src='G_1.jpg' height='90'> <img   src='G_7.jpg' height='90'> <img id='selected'  src='G_5.jpg' height='90'> <img id='selected' src='G_3.jpg' height='90'>","null","Animation0","",""
"","","","","","html-keyboard-response","56","201646","0.0-22.0","5","1","2025-01-31 18:40:13","838ec4b49f044157bad9e156c8cbc4a3","174.79.1.214","Mozilla/5.0 (Windows NT 10.0; Win64; x64) AppleWebKit/537.36 (KHTML, like Gecko) Chrome/132.0.0.0 Safari/537.36","WebKit","Chrome","132.0.0.0","Windows","10.0","https://app.prolific.com/","en-US,en;q=0.7","63e5257dc5aceb22cee2ddf1","679cf675428f47411a224827","679d18f6b10a7f4fce889c13","","null","<img  src='G_9.jpg' height='90'> <img   src='G_1.jpg' height='90'> <img   src='G_7.jpg' height='90'> <img id='selected'  src='G_5.jpg' height='90'> <img id='selected' src='G_3.jpg' height='90'>","null","Animation0","",""
"","","","","","html-keyboard-response","57","201954","0.0-23.0","5","1","2025-01-31 18:40:13","838ec4b49f044157bad9e156c8cbc4a3","174.79.1.214","Mozilla/5.0 (Windows NT 10.0; Win64; x64) AppleWebKit/537.36 (KHTML, like Gecko) Chrome/132.0.0.0 Safari/537.36","WebKit","Chrome","132.0.0.0","Windows","10.0","https://app.prolific.com/","en-US,en;q=0.7","63e5257dc5aceb22cee2ddf1","679cf675428f47411a224827","679d18f6b10a7f4fce889c13","","null","<img  src='G_9.jpg' height='90'> <img   src='G_1.jpg' height='90'> <img   src='G_7.jpg' height='90'> <img   src='G_5.jpg' height='90'> <img  src='G_3.jpg' height='90'>","null","Animation0","",""
"","","","","","html-keyboard-response","58","209131","0.0-24.0","5","1","2025-01-31 18:40:13","838ec4b49f044157bad9e156c8cbc4a3","174.79.1.214","Mozilla/5.0 (Windows NT 10.0; Win64; x64) AppleWebKit/537.36 (KHTML, like Gecko) Chrome/132.0.0.0 Safari/537.36","WebKit","Chrome","132.0.0.0","Windows","10.0","https://app.prolific.com/","en-US,en;q=0.7","63e5257dc5aceb22cee2ddf1","679cf675428f47411a224827","679d18f6b10a7f4fce889c13","","7174","[""Did you notice any patterns? <br><br>Press Enter to watch that example again and follow the steps of Omgne Sort.""]","enter","","",""
"","","","","","html-button-response","59","209548","0.0-25.0","5","1","2025-01-31 18:40:13","838ec4b49f044157bad9e156c8cbc4a3","174.79.1.214","Mozilla/5.0 (Windows NT 10.0; Win64; x64) AppleWebKit/537.36 (KHTML, like Gecko) Chrome/132.0.0.0 Safari/537.36","WebKit","Chrome","132.0.0.0","Windows","10.0","https://app.prolific.com/","en-US,en;q=0.7","63e5257dc5aceb22cee2ddf1","679cf675428f47411a224827","679d18f6b10a7f4fce889c13","","null","<img id='selected' src='G_1.jpg' height='90'> <img src='G_9.jpg' height='90'> <img src='G_7.jpg' height='90'> <img src='G_5.jpg' height='90'> <img src='G_3.jpg' height='90'>","null","Learning example 0","",""
"","","","","","html-button-response","60","209863","0.0-26.0","5","1","2025-01-31 18:40:13","838ec4b49f044157bad9e156c8cbc4a3","174.79.1.214","Mozilla/5.0 (Windows NT 10.0; Win64; x64) AppleWebKit/537.36 (KHTML, like Gecko) Chrome/132.0.0.0 Safari/537.36","WebKit","Chrome","132.0.0.0","Windows","10.0","https://app.prolific.com/","en-US,en;q=0.7","63e5257dc5aceb22cee2ddf1","679cf675428f47411a224827","679d18f6b10a7f4fce889c13","","null","<img id='selected' src='G_1.jpg' height='90'> <img id='selected' src='G_9.jpg' height='90'> <img src='G_7.jpg' height='90'> <img src='G_5.jpg' height='90'> <img src='G_3.jpg' height='90'>","null","Learning example 0","",""
"","","","","","html-button-response","61","210180","0.0-27.0","5","1","2025-01-31 18:40:13","838ec4b49f044157bad9e156c8cbc4a3","174.79.1.214","Mozilla/5.0 (Windows NT 10.0; Win64; x64) AppleWebKit/537.36 (KHTML, like Gecko) Chrome/132.0.0.0 Safari/537.36","WebKit","Chrome","132.0.0.0","Windows","10.0","https://app.prolific.com/","en-US,en;q=0.7","63e5257dc5aceb22cee2ddf1","679cf675428f47411a224827","679d18f6b10a7f4fce889c13","","null","<img id='swapped' src='G_9.jpg' height='90'> <img id='swapped' src='G_1.jpg' height='90'> <img src='G_7.jpg' height='90'> <img src='G_5.jpg' height='90'> <img src='G_3.jpg' height='90'>","null","Learning example 0","",""
"","","","","","html-button-response","62","219357","0.0-28.0-0.0-0.0","5","1","2025-01-31 18:40:13","838ec4b49f044157bad9e156c8cbc4a3","174.79.1.214","Mozilla/5.0 (Windows NT 10.0; Win64; x64) AppleWebKit/537.36 (KHTML, like Gecko) Chrome/132.0.0.0 Safari/537.36","WebKit","Chrome","132.0.0.0","Windows","10.0","https://app.prolific.com/","en-US,en;q=0.7","63e5257dc5aceb22cee2ddf1","679cf675428f47411a224827","679d18f6b10a7f4fce889c13","","9172","<img id='swapped' src='G_9.jpg' height='90'> <img id='swapped' src='G_1.jpg' height='90'> <img src='G_7.jpg' height='90'> <img src='G_5.jpg' height='90'> <img src='G_3.jpg' height='90'>","0","Learning example 0","",""
"","","","","","html-button-response","63","219929","0.0-28.1-0.1-0.1","5","1","2025-01-31 18:40:13","838ec4b49f044157bad9e156c8cbc4a3","174.79.1.214","Mozilla/5.0 (Windows NT 10.0; Win64; x64) AppleWebKit/537.36 (KHTML, like Gecko) Chrome/132.0.0.0 Safari/537.36","WebKit","Chrome","132.0.0.0","Windows","10.0","https://app.prolific.com/","en-US,en;q=0.7","63e5257dc5aceb22cee2ddf1","679cf675428f47411a224827","679d18f6b10a7f4fce889c13","","567","<img id='swapped' src='G_9.jpg' height='90'> <img id='swapped' src='G_1.jpg' height='90'> <img src='G_7.jpg' height='90'> <img src='G_5.jpg' height='90'> <img src='G_3.jpg' height='90'>","1","Learning example 0","",""
"","","","","","html-button-response","64","220144","0.0-29.0","5","1","2025-01-31 18:40:13","838ec4b49f044157bad9e156c8cbc4a3","174.79.1.214","Mozilla/5.0 (Windows NT 10.0; Win64; x64) AppleWebKit/537.36 (KHTML, like Gecko) Chrome/132.0.0.0 Safari/537.36","WebKit","Chrome","132.0.0.0","Windows","10.0","https://app.prolific.com/","en-US,en;q=0.7","63e5257dc5aceb22cee2ddf1","679cf675428f47411a224827","679d18f6b10a7f4fce889c13","","null","<img  src='G_9.jpg' height='90'> <img  src='G_1.jpg' height='90'> <img src='G_7.jpg' height='90'> <img src='G_5.jpg' height='90'> <img src='G_3.jpg' height='90'>","null","Learning example 0","",""
"","","","","","html-button-response","65","220561","0.0-30.0","5","1","2025-01-31 18:40:13","838ec4b49f044157bad9e156c8cbc4a3","174.79.1.214","Mozilla/5.0 (Windows NT 10.0; Win64; x64) AppleWebKit/537.36 (KHTML, like Gecko) Chrome/132.0.0.0 Safari/537.36","WebKit","Chrome","132.0.0.0","Windows","10.0","https://app.prolific.com/","en-US,en;q=0.7","63e5257dc5aceb22cee2ddf1","679cf675428f47411a224827","679d18f6b10a7f4fce889c13","","null","<img  src='G_9.jpg' height='90'> <img id='selected'  src='G_1.jpg' height='90'> <img src='G_7.jpg' height='90'> <img src='G_5.jpg' height='90'> <img src='G_3.jpg' height='90'>","null","Learning example 0","",""
"","","","","","html-button-response","66","220877","0.0-31.0","5","1","2025-01-31 18:40:13","838ec4b49f044157bad9e156c8cbc4a3","174.79.1.214","Mozilla/5.0 (Windows NT 10.0; Win64; x64) AppleWebKit/537.36 (KHTML, like Gecko) Chrome/132.0.0.0 Safari/537.36","WebKit","Chrome","132.0.0.0","Windows","10.0","https://app.prolific.com/","en-US,en;q=0.7","63e5257dc5aceb22cee2ddf1","679cf675428f47411a224827","679d18f6b10a7f4fce889c13","","null","<img  src='G_9.jpg' height='90'> <img id='selected'  src='G_1.jpg' height='90'> <img id='selected' src='G_7.jpg' height='90'> <img src='G_5.jpg' height='90'> <img src='G_3.jpg' height='90'>","null","Learning example 0","",""
"","","","","","html-button-response","67","221192","0.0-32.0","5","1","2025-01-31 18:40:13","838ec4b49f044157bad9e156c8cbc4a3","174.79.1.214","Mozilla/5.0 (Windows NT 10.0; Win64; x64) AppleWebKit/537.36 (KHTML, like Gecko) Chrome/132.0.0.0 Safari/537.36","WebKit","Chrome","132.0.0.0","Windows","10.0","https://app.prolific.com/","en-US,en;q=0.7","63e5257dc5aceb22cee2ddf1","679cf675428f47411a224827","679d18f6b10a7f4fce889c13","","null","<img  src='G_9.jpg' height='90'> <img id='selected'  src='G_1.jpg' height='90'> <img id='selected' src='G_7.jpg' height='90'> <img src='G_5.jpg' height='90'> <img src='G_3.jpg' height='90'>","null","Learning example 0","",""
"","","","","","html-button-response","68","225823","0.0-33.0-0.0-0.0","5","1","2025-01-31 18:40:13","838ec4b49f044157bad9e156c8cbc4a3","174.79.1.214","Mozilla/5.0 (Windows NT 10.0; Win64; x64) AppleWebKit/537.36 (KHTML, like Gecko) Chrome/132.0.0.0 Safari/537.36","WebKit","Chrome","132.0.0.0","Windows","10.0","https://app.prolific.com/","en-US,en;q=0.7","63e5257dc5aceb22cee2ddf1","679cf675428f47411a224827","679d18f6b10a7f4fce889c13","","4625","<img  src='G_9.jpg' height='90'> <img id='selected'  src='G_1.jpg' height='90'> <img id='selected' src='G_7.jpg' height='90'> <img src='G_5.jpg' height='90'> <img src='G_3.jpg' height='90'>","1","Learning example 0","",""
"","","","","","html-button-response","69","226563","0.0-33.1-0.1-0.1","5","1","2025-01-31 18:40:13","838ec4b49f044157bad9e156c8cbc4a3","174.79.1.214","Mozilla/5.0 (Windows NT 10.0; Win64; x64) AppleWebKit/537.36 (KHTML, like Gecko) Chrome/132.0.0.0 Safari/537.36","WebKit","Chrome","132.0.0.0","Windows","10.0","https://app.prolific.com/","en-US,en;q=0.7","63e5257dc5aceb22cee2ddf1","679cf675428f47411a224827","679d18f6b10a7f4fce889c13","","736","<img  src='G_9.jpg' height='90'> <img id='selected'  src='G_1.jpg' height='90'> <img id='selected' src='G_7.jpg' height='90'> <img src='G_5.jpg' height='90'> <img src='G_3.jpg' height='90'>","2","Learning example 0","",""
"","","","","","html-button-response","70","226776","0.0-34.0","5","1","2025-01-31 18:40:13","838ec4b49f044157bad9e156c8cbc4a3","174.79.1.214","Mozilla/5.0 (Windows NT 10.0; Win64; x64) AppleWebKit/537.36 (KHTML, like Gecko) Chrome/132.0.0.0 Safari/537.36","WebKit","Chrome","132.0.0.0","Windows","10.0","https://app.prolific.com/","en-US,en;q=0.7","63e5257dc5aceb22cee2ddf1","679cf675428f47411a224827","679d18f6b10a7f4fce889c13","","null","<img  src='G_9.jpg' height='90'> <img   src='G_1.jpg' height='90'> <img  src='G_7.jpg' height='90'> <img src='G_5.jpg' height='90'> <img src='G_3.jpg' height='90'>","null","Learning example 0","",""
"","","","","","html-button-response","71","227192","0.0-35.0","5","1","2025-01-31 18:40:13","838ec4b49f044157bad9e156c8cbc4a3","174.79.1.214","Mozilla/5.0 (Windows NT 10.0; Win64; x64) AppleWebKit/537.36 (KHTML, like Gecko) Chrome/132.0.0.0 Safari/537.36","WebKit","Chrome","132.0.0.0","Windows","10.0","https://app.prolific.com/","en-US,en;q=0.7","63e5257dc5aceb22cee2ddf1","679cf675428f47411a224827","679d18f6b10a7f4fce889c13","","null","<img  src='G_9.jpg' height='90'> <img   src='G_1.jpg' height='90'> <img id='selected'  src='G_7.jpg' height='90'> <img src='G_5.jpg' height='90'> <img src='G_3.jpg' height='90'>","null","Learning example 0","",""
"","","","","","html-button-response","72","227508","0.0-36.0","5","1","2025-01-31 18:40:13","838ec4b49f044157bad9e156c8cbc4a3","174.79.1.214","Mozilla/5.0 (Windows NT 10.0; Win64; x64) AppleWebKit/537.36 (KHTML, like Gecko) Chrome/132.0.0.0 Safari/537.36","WebKit","Chrome","132.0.0.0","Windows","10.0","https://app.prolific.com/","en-US,en;q=0.7","63e5257dc5aceb22cee2ddf1","679cf675428f47411a224827","679d18f6b10a7f4fce889c13","","null","<img  src='G_9.jpg' height='90'> <img   src='G_1.jpg' height='90'> <img id='selected'  src='G_7.jpg' height='90'> <img id='selected' src='G_5.jpg' height='90'> <img src='G_3.jpg' height='90'>","null","Learning example 0","",""
"","","","","","html-button-response","73","227824","0.0-37.0","5","1","2025-01-31 18:40:13","838ec4b49f044157bad9e156c8cbc4a3","174.79.1.214","Mozilla/5.0 (Windows NT 10.0; Win64; x64) AppleWebKit/537.36 (KHTML, like Gecko) Chrome/132.0.0.0 Safari/537.36","WebKit","Chrome","132.0.0.0","Windows","10.0","https://app.prolific.com/","en-US,en;q=0.7","63e5257dc5aceb22cee2ddf1","679cf675428f47411a224827","679d18f6b10a7f4fce889c13","","null","<img  src='G_9.jpg' height='90'> <img   src='G_1.jpg' height='90'> <img id='selected'  src='G_7.jpg' height='90'> <img id='selected' src='G_5.jpg' height='90'> <img src='G_3.jpg' height='90'>","null","Learning example 0","",""
"","","","","","html-button-response","74","232460","0.0-38.0-0.0-0.0","5","1","2025-01-31 18:40:13","838ec4b49f044157bad9e156c8cbc4a3","174.79.1.214","Mozilla/5.0 (Windows NT 10.0; Win64; x64) AppleWebKit/537.36 (KHTML, like Gecko) Chrome/132.0.0.0 Safari/537.36","WebKit","Chrome","132.0.0.0","Windows","10.0","https://app.prolific.com/","en-US,en;q=0.7","63e5257dc5aceb22cee2ddf1","679cf675428f47411a224827","679d18f6b10a7f4fce889c13","","4629","<img  src='G_9.jpg' height='90'> <img   src='G_1.jpg' height='90'> <img id='selected'  src='G_7.jpg' height='90'> <img id='selected' src='G_5.jpg' height='90'> <img src='G_3.jpg' height='90'>","2","Learning example 0","",""
"","","","","","html-button-response","75","233041","0.0-38.1-0.1-0.1","5","1","2025-01-31 18:40:13","838ec4b49f044157bad9e156c8cbc4a3","174.79.1.214","Mozilla/5.0 (Windows NT 10.0; Win64; x64) AppleWebKit/537.36 (KHTML, like Gecko) Chrome/132.0.0.0 Safari/537.36","WebKit","Chrome","132.0.0.0","Windows","10.0","https://app.prolific.com/","en-US,en;q=0.7","63e5257dc5aceb22cee2ddf1","679cf675428f47411a224827","679d18f6b10a7f4fce889c13","","577","<img  src='G_9.jpg' height='90'> <img   src='G_1.jpg' height='90'> <img id='selected'  src='G_7.jpg' height='90'> <img id='selected' src='G_5.jpg' height='90'> <img src='G_3.jpg' height='90'>","1","Learning example 0","",""
"","","","","","html-button-response","76","236377","0.0-38.2-0.2-0.2","5","1","2025-01-31 18:40:13","838ec4b49f044157bad9e156c8cbc4a3","174.79.1.214","Mozilla/5.0 (Windows NT 10.0; Win64; x64) AppleWebKit/537.36 (KHTML, like Gecko) Chrome/132.0.0.0 Safari/537.36","WebKit","Chrome","132.0.0.0","Windows","10.0","https://app.prolific.com/","en-US,en;q=0.7","63e5257dc5aceb22cee2ddf1","679cf675428f47411a224827","679d18f6b10a7f4fce889c13","","3332","<img  src='G_9.jpg' height='90'> <img   src='G_1.jpg' height='90'> <img id='selected'  src='G_7.jpg' height='90'> <img id='selected' src='G_5.jpg' height='90'> <img src='G_3.jpg' height='90'>","0","Learning example 0","",""
"","","","","","html-button-response","77","237712","0.0-38.3-0.3-0.3","5","1","2025-01-31 18:40:13","838ec4b49f044157bad9e156c8cbc4a3","174.79.1.214","Mozilla/5.0 (Windows NT 10.0; Win64; x64) AppleWebKit/537.36 (KHTML, like Gecko) Chrome/132.0.0.0 Safari/537.36","WebKit","Chrome","132.0.0.0","Windows","10.0","https://app.prolific.com/","en-US,en;q=0.7","63e5257dc5aceb22cee2ddf1","679cf675428f47411a224827","679d18f6b10a7f4fce889c13","","1330","<img  src='G_9.jpg' height='90'> <img   src='G_1.jpg' height='90'> <img id='selected'  src='G_7.jpg' height='90'> <img id='selected' src='G_5.jpg' height='90'> <img src='G_3.jpg' height='90'>","2","Learning example 0","",""
"","","","","","html-button-response","78","238670","0.0-38.4-0.4-0.4","5","1","2025-01-31 18:40:13","838ec4b49f044157bad9e156c8cbc4a3","174.79.1.214","Mozilla/5.0 (Windows NT 10.0; Win64; x64) AppleWebKit/537.36 (KHTML, like Gecko) Chrome/132.0.0.0 Safari/537.36","WebKit","Chrome","132.0.0.0","Windows","10.0","https://app.prolific.com/","en-US,en;q=0.7","63e5257dc5aceb22cee2ddf1","679cf675428f47411a224827","679d18f6b10a7f4fce889c13","","954","<img  src='G_9.jpg' height='90'> <img   src='G_1.jpg' height='90'> <img id='selected'  src='G_7.jpg' height='90'> <img id='selected' src='G_5.jpg' height='90'> <img src='G_3.jpg' height='90'>","1","Learning example 0","",""
"","","","","","html-button-response","79","239302","0.0-38.5-0.5-0.5","5","1","2025-01-31 18:40:13","838ec4b49f044157bad9e156c8cbc4a3","174.79.1.214","Mozilla/5.0 (Windows NT 10.0; Win64; x64) AppleWebKit/537.36 (KHTML, like Gecko) Chrome/132.0.0.0 Safari/537.36","WebKit","Chrome","132.0.0.0","Windows","10.0","https://app.prolific.com/","en-US,en;q=0.7","63e5257dc5aceb22cee2ddf1","679cf675428f47411a224827","679d18f6b10a7f4fce889c13","","628","<img  src='G_9.jpg' height='90'> <img   src='G_1.jpg' height='90'> <img id='selected'  src='G_7.jpg' height='90'> <img id='selected' src='G_5.jpg' height='90'> <img src='G_3.jpg' height='90'>","2","Learning example 0","",""
"","","","","","html-button-response","80","241425","0.0-38.6-0.6-0.6","5","1","2025-01-31 18:40:13","838ec4b49f044157bad9e156c8cbc4a3","174.79.1.214","Mozilla/5.0 (Windows NT 10.0; Win64; x64) AppleWebKit/537.36 (KHTML, like Gecko) Chrome/132.0.0.0 Safari/537.36","WebKit","Chrome","132.0.0.0","Windows","10.0","https://app.prolific.com/","en-US,en;q=0.7","63e5257dc5aceb22cee2ddf1","679cf675428f47411a224827","679d18f6b10a7f4fce889c13","","2119","<img  src='G_9.jpg' height='90'> <img   src='G_1.jpg' height='90'> <img id='selected'  src='G_7.jpg' height='90'> <img id='selected' src='G_5.jpg' height='90'> <img src='G_3.jpg' height='90'>","2","Learning example 0","",""
"","","","","","html-button-response","81","241971","0.0-38.7-0.7-0.7","5","1","2025-01-31 18:40:13","838ec4b49f044157bad9e156c8cbc4a3","174.79.1.214","Mozilla/5.0 (Windows NT 10.0; Win64; x64) AppleWebKit/537.36 (KHTML, like Gecko) Chrome/132.0.0.0 Safari/537.36","WebKit","Chrome","132.0.0.0","Windows","10.0","https://app.prolific.com/","en-US,en;q=0.7","63e5257dc5aceb22cee2ddf1","679cf675428f47411a224827","679d18f6b10a7f4fce889c13","","541","<img  src='G_9.jpg' height='90'> <img   src='G_1.jpg' height='90'> <img id='selected'  src='G_7.jpg' height='90'> <img id='selected' src='G_5.jpg' height='90'> <img src='G_3.jpg' height='90'>","3","Learning example 0","",""
"","","","","","html-button-response","82","242187","0.0-39.0","5","1","2025-01-31 18:40:13","838ec4b49f044157bad9e156c8cbc4a3","174.79.1.214","Mozilla/5.0 (Windows NT 10.0; Win64; x64) AppleWebKit/537.36 (KHTML, like Gecko) Chrome/132.0.0.0 Safari/537.36","WebKit","Chrome","132.0.0.0","Windows","10.0","https://app.prolific.com/","en-US,en;q=0.7","63e5257dc5aceb22cee2ddf1","679cf675428f47411a224827","679d18f6b10a7f4fce889c13","","null","<img  src='G_9.jpg' height='90'> <img   src='G_1.jpg' height='90'> <img   src='G_7.jpg' height='90'> <img  src='G_5.jpg' height='90'> <img src='G_3.jpg' height='90'>","null","Learning example 0","",""
"","","","","","html-button-response","83","242603","0.0-40.0","5","1","2025-01-31 18:40:13","838ec4b49f044157bad9e156c8cbc4a3","174.79.1.214","Mozilla/5.0 (Windows NT 10.0; Win64; x64) AppleWebKit/537.36 (KHTML, like Gecko) Chrome/132.0.0.0 Safari/537.36","WebKit","Chrome","132.0.0.0","Windows","10.0","https://app.prolific.com/","en-US,en;q=0.7","63e5257dc5aceb22cee2ddf1","679cf675428f47411a224827","679d18f6b10a7f4fce889c13","","null","<img  src='G_9.jpg' height='90'> <img   src='G_1.jpg' height='90'> <img   src='G_7.jpg' height='90'> <img id='selected'  src='G_5.jpg' height='90'> <img src='G_3.jpg' height='90'>","null","Learning example 0","",""
"","","","","","html-button-response","84","242920","0.0-41.0","5","1","2025-01-31 18:40:13","838ec4b49f044157bad9e156c8cbc4a3","174.79.1.214","Mozilla/5.0 (Windows NT 10.0; Win64; x64) AppleWebKit/537.36 (KHTML, like Gecko) Chrome/132.0.0.0 Safari/537.36","WebKit","Chrome","132.0.0.0","Windows","10.0","https://app.prolific.com/","en-US,en;q=0.7","63e5257dc5aceb22cee2ddf1","679cf675428f47411a224827","679d18f6b10a7f4fce889c13","","null","<img  src='G_9.jpg' height='90'> <img   src='G_1.jpg' height='90'> <img   src='G_7.jpg' height='90'> <img id='selected'  src='G_5.jpg' height='90'> <img id='selected' src='G_3.jpg' height='90'>","null","Learning example 0","",""
"","","","","","html-button-response","85","243237","0.0-42.0","5","1","2025-01-31 18:40:13","838ec4b49f044157bad9e156c8cbc4a3","174.79.1.214","Mozilla/5.0 (Windows NT 10.0; Win64; x64) AppleWebKit/537.36 (KHTML, like Gecko) Chrome/132.0.0.0 Safari/537.36","WebKit","Chrome","132.0.0.0","Windows","10.0","https://app.prolific.com/","en-US,en;q=0.7","63e5257dc5aceb22cee2ddf1","679cf675428f47411a224827","679d18f6b10a7f4fce889c13","","null","<img  src='G_9.jpg' height='90'> <img   src='G_1.jpg' height='90'> <img   src='G_7.jpg' height='90'> <img id='selected'  src='G_5.jpg' height='90'> <img id='selected' src='G_3.jpg' height='90'>","null","Learning example 0","",""
"","","","","","html-button-response","86","244349","0.0-43.0-0.0-0.0","5","1","2025-01-31 18:40:13","838ec4b49f044157bad9e156c8cbc4a3","174.79.1.214","Mozilla/5.0 (Windows NT 10.0; Win64; x64) AppleWebKit/537.36 (KHTML, like Gecko) Chrome/132.0.0.0 Safari/537.36","WebKit","Chrome","132.0.0.0","Windows","10.0","https://app.prolific.com/","en-US,en;q=0.7","63e5257dc5aceb22cee2ddf1","679cf675428f47411a224827","679d18f6b10a7f4fce889c13","","1105","<img  src='G_9.jpg' height='90'> <img   src='G_1.jpg' height='90'> <img   src='G_7.jpg' height='90'> <img id='selected'  src='G_5.jpg' height='90'> <img id='selected' src='G_3.jpg' height='90'>","3","Learning example 0","",""
"","","","","","html-button-response","87","245004","0.0-43.1-0.1-0.1","5","1","2025-01-31 18:40:13","838ec4b49f044157bad9e156c8cbc4a3","174.79.1.214","Mozilla/5.0 (Windows NT 10.0; Win64; x64) AppleWebKit/537.36 (KHTML, like Gecko) Chrome/132.0.0.0 Safari/537.36","WebKit","Chrome","132.0.0.0","Windows","10.0","https://app.prolific.com/","en-US,en;q=0.7","63e5257dc5aceb22cee2ddf1","679cf675428f47411a224827","679d18f6b10a7f4fce889c13","","651","<img  src='G_9.jpg' height='90'> <img   src='G_1.jpg' height='90'> <img   src='G_7.jpg' height='90'> <img id='selected'  src='G_5.jpg' height='90'> <img id='selected' src='G_3.jpg' height='90'>","4","Learning example 0","",""
"","","","","","html-button-response","88","245213","0.0-44.0","5","1","2025-01-31 18:40:13","838ec4b49f044157bad9e156c8cbc4a3","174.79.1.214","Mozilla/5.0 (Windows NT 10.0; Win64; x64) AppleWebKit/537.36 (KHTML, like Gecko) Chrome/132.0.0.0 Safari/537.36","WebKit","Chrome","132.0.0.0","Windows","10.0","https://app.prolific.com/","en-US,en;q=0.7","63e5257dc5aceb22cee2ddf1","679cf675428f47411a224827","679d18f6b10a7f4fce889c13","","null","<img  src='G_9.jpg' height='90'> <img   src='G_1.jpg' height='90'> <img   src='G_7.jpg' height='90'> <img   src='G_5.jpg' height='90'> <img  src='G_3.jpg' height='90'>","null","Learning example 0","",""
"","","","","","html-keyboard-response","89","264987","0.0-45.0","5","1","2025-01-31 18:40:13","838ec4b49f044157bad9e156c8cbc4a3","174.79.1.214","Mozilla/5.0 (Windows NT 10.0; Win64; x64) AppleWebKit/537.36 (KHTML, like Gecko) Chrome/132.0.0.0 Safari/537.36","WebKit","Chrome","132.0.0.0","Windows","10.0","https://app.prolific.com/","en-US,en;q=0.7","63e5257dc5aceb22cee2ddf1","679cf675428f47411a224827","679d18f6b10a7f4fce889c13","","19768","[""Final order was 1,2,3,4,5. The initial order was 2,1,3,4,5.<br>It took 1 swaps to sort it correctly with Omgne Sort. <br><br>Press Enter to continue.""]","enter","","",""
"","","","","","html-keyboard-response","90","275507","0.0-46.0","5","1","2025-01-31 18:40:13","838ec4b49f044157bad9e156c8cbc4a3","174.79.1.214","Mozilla/5.0 (Windows NT 10.0; Win64; x64) AppleWebKit/537.36 (KHTML, like Gecko) Chrome/132.0.0.0 Safari/537.36","WebKit","Chrome","132.0.0.0","Windows","10.0","https://app.prolific.com/","en-US,en;q=0.7","63e5257dc5aceb22cee2ddf1","679cf675428f47411a224827","679d18f6b10a7f4fce889c13","","10517","[""Example 2<br><br>You will watch Omnge Sort in action. Try to identify any patterns in the comparisons made by this method. <br><br>Press Enter to continue.""]","enter","","",""
"","","","","","html-keyboard-response","91","276018","0.0-47.0","5","1","2025-01-31 18:40:13","838ec4b49f044157bad9e156c8cbc4a3","174.79.1.214","Mozilla/5.0 (Windows NT 10.0; Win64; x64) AppleWebKit/537.36 (KHTML, like Gecko) Chrome/132.0.0.0 Safari/537.36","WebKit","Chrome","132.0.0.0","Windows","10.0","https://app.prolific.com/","en-US,en;q=0.7","63e5257dc5aceb22cee2ddf1","679cf675428f47411a224827","679d18f6b10a7f4fce889c13","","null","<img id='selected' src='G_5.jpg' height='90'> <img src='G_7.jpg' height='90'> <img src='G_3.jpg' height='90'> <img src='G_8.jpg' height='90'> <img src='G_2.jpg' height='90'> <img src='G_4.jpg' height='90'> <img src='G_6.jpg' height='90'> <img src='G_1.jpg' height='90'>","null","Animation1","",""
"","","","","","html-keyboard-response","92","276541","0.0-48.0","5","1","2025-01-31 18:40:13","838ec4b49f044157bad9e156c8cbc4a3","174.79.1.214","Mozilla/5.0 (Windows NT 10.0; Win64; x64) AppleWebKit/537.36 (KHTML, like Gecko) Chrome/132.0.0.0 Safari/537.36","WebKit","Chrome","132.0.0.0","Windows","10.0","https://app.prolific.com/","en-US,en;q=0.7","63e5257dc5aceb22cee2ddf1","679cf675428f47411a224827","679d18f6b10a7f4fce889c13","","null","<img id='selected' src='G_5.jpg' height='90'> <img id='selected' src='G_7.jpg' height='90'> <img src='G_3.jpg' height='90'> <img src='G_8.jpg' height='90'> <img src='G_2.jpg' height='90'> <img src='G_4.jpg' height='90'> <img src='G_6.jpg' height='90'> <img src='G_1.jpg' height='90'>","null","Animation1","",""
"","","","","","html-keyboard-response","93","277058","0.0-49.0","5","1","2025-01-31 18:40:13","838ec4b49f044157bad9e156c8cbc4a3","174.79.1.214","Mozilla/5.0 (Windows NT 10.0; Win64; x64) AppleWebKit/537.36 (KHTML, like Gecko) Chrome/132.0.0.0 Safari/537.36","WebKit","Chrome","132.0.0.0","Windows","10.0","https://app.prolific.com/","en-US,en;q=0.7","63e5257dc5aceb22cee2ddf1","679cf675428f47411a224827","679d18f6b10a7f4fce889c13","","null","<img id='selected' src='G_5.jpg' height='90'> <img id='selected' src='G_7.jpg' height='90'> <img src='G_3.jpg' height='90'> <img src='G_8.jpg' height='90'> <img src='G_2.jpg' height='90'> <img src='G_4.jpg' height='90'> <img src='G_6.jpg' height='90'> <img src='G_1.jpg' height='90'>","null","Animation1","",""
"","","","","","html-keyboard-response","94","277375","0.0-50.0","5","1","2025-01-31 18:40:13","838ec4b49f044157bad9e156c8cbc4a3","174.79.1.214","Mozilla/5.0 (Windows NT 10.0; Win64; x64) AppleWebKit/537.36 (KHTML, like Gecko) Chrome/132.0.0.0 Safari/537.36","WebKit","Chrome","132.0.0.0","Windows","10.0","https://app.prolific.com/","en-US,en;q=0.7","63e5257dc5aceb22cee2ddf1","679cf675428f47411a224827","679d18f6b10a7f4fce889c13","","null","<img  src='G_5.jpg' height='90'> <img  src='G_7.jpg' height='90'> <img src='G_3.jpg' height='90'> <img src='G_8.jpg' height='90'> <img src='G_2.jpg' height='90'> <img src='G_4.jpg' height='90'> <img src='G_6.jpg' height='90'> <img src='G_1.jpg' height='90'>","null","Animation1","",""
"","","","","","html-keyboard-response","95","277892","0.0-51.0","5","1","2025-01-31 18:40:13","838ec4b49f044157bad9e156c8cbc4a3","174.79.1.214","Mozilla/5.0 (Windows NT 10.0; Win64; x64) AppleWebKit/537.36 (KHTML, like Gecko) Chrome/132.0.0.0 Safari/537.36","WebKit","Chrome","132.0.0.0","Windows","10.0","https://app.prolific.com/","en-US,en;q=0.7","63e5257dc5aceb22cee2ddf1","679cf675428f47411a224827","679d18f6b10a7f4fce889c13","","null","<img  src='G_5.jpg' height='90'> <img id='selected'  src='G_7.jpg' height='90'> <img src='G_3.jpg' height='90'> <img src='G_8.jpg' height='90'> <img src='G_2.jpg' height='90'> <img src='G_4.jpg' height='90'> <img src='G_6.jpg' height='90'> <img src='G_1.jpg' height='90'>","null","Animation1","",""
"","","","","","html-keyboard-response","96","278408","0.0-52.0","5","1","2025-01-31 18:40:13","838ec4b49f044157bad9e156c8cbc4a3","174.79.1.214","Mozilla/5.0 (Windows NT 10.0; Win64; x64) AppleWebKit/537.36 (KHTML, like Gecko) Chrome/132.0.0.0 Safari/537.36","WebKit","Chrome","132.0.0.0","Windows","10.0","https://app.prolific.com/","en-US,en;q=0.7","63e5257dc5aceb22cee2ddf1","679cf675428f47411a224827","679d18f6b10a7f4fce889c13","","null","<img  src='G_5.jpg' height='90'> <img id='selected'  src='G_7.jpg' height='90'> <img id='selected' src='G_3.jpg' height='90'> <img src='G_8.jpg' height='90'> <img src='G_2.jpg' height='90'> <img src='G_4.jpg' height='90'> <img src='G_6.jpg' height='90'> <img src='G_1.jpg' height='90'>","null","Animation1","",""
"","","","","","html-keyboard-response","97","278925","0.0-53.0","5","1","2025-01-31 18:40:13","838ec4b49f044157bad9e156c8cbc4a3","174.79.1.214","Mozilla/5.0 (Windows NT 10.0; Win64; x64) AppleWebKit/537.36 (KHTML, like Gecko) Chrome/132.0.0.0 Safari/537.36","WebKit","Chrome","132.0.0.0","Windows","10.0","https://app.prolific.com/","en-US,en;q=0.7","63e5257dc5aceb22cee2ddf1","679cf675428f47411a224827","679d18f6b10a7f4fce889c13","","null","<img  src='G_5.jpg' height='90'> <img id='swapped' src='G_3.jpg' height='90'> <img id='swapped'  src='G_7.jpg' height='90'> <img src='G_8.jpg' height='90'> <img src='G_2.jpg' height='90'> <img src='G_4.jpg' height='90'> <img src='G_6.jpg' height='90'> <img src='G_1.jpg' height='90'>","null","Animation1","",""
"","","","","","html-keyboard-response","98","279249","0.0-54.0","5","1","2025-01-31 18:40:13","838ec4b49f044157bad9e156c8cbc4a3","174.79.1.214","Mozilla/5.0 (Windows NT 10.0; Win64; x64) AppleWebKit/537.36 (KHTML, like Gecko) Chrome/132.0.0.0 Safari/537.36","WebKit","Chrome","132.0.0.0","Windows","10.0","https://app.prolific.com/","en-US,en;q=0.7","63e5257dc5aceb22cee2ddf1","679cf675428f47411a224827","679d18f6b10a7f4fce889c13","","null","<img  src='G_5.jpg' height='90'> <img  src='G_3.jpg' height='90'> <img   src='G_7.jpg' height='90'> <img src='G_8.jpg' height='90'> <img src='G_2.jpg' height='90'> <img src='G_4.jpg' height='90'> <img src='G_6.jpg' height='90'> <img src='G_1.jpg' height='90'>","null","Animation1","",""
"","","","","","html-keyboard-response","99","279765","0.0-55.0","5","1","2025-01-31 18:40:13","838ec4b49f044157bad9e156c8cbc4a3","174.79.1.214","Mozilla/5.0 (Windows NT 10.0; Win64; x64) AppleWebKit/537.36 (KHTML, like Gecko) Chrome/132.0.0.0 Safari/537.36","WebKit","Chrome","132.0.0.0","Windows","10.0","https://app.prolific.com/","en-US,en;q=0.7","63e5257dc5aceb22cee2ddf1","679cf675428f47411a224827","679d18f6b10a7f4fce889c13","","null","<img id='selected'  src='G_5.jpg' height='90'> <img  src='G_3.jpg' height='90'> <img   src='G_7.jpg' height='90'> <img src='G_8.jpg' height='90'> <img src='G_2.jpg' height='90'> <img src='G_4.jpg' height='90'> <img src='G_6.jpg' height='90'> <img src='G_1.jpg' height='90'>","null","Animation1","",""
"","","","","","html-keyboard-response","100","280283","0.0-56.0","5","1","2025-01-31 18:40:13","838ec4b49f044157bad9e156c8cbc4a3","174.79.1.214","Mozilla/5.0 (Windows NT 10.0; Win64; x64) AppleWebKit/537.36 (KHTML, like Gecko) Chrome/132.0.0.0 Safari/537.36","WebKit","Chrome","132.0.0.0","Windows","10.0","https://app.prolific.com/","en-US,en;q=0.7","63e5257dc5aceb22cee2ddf1","679cf675428f47411a224827","679d18f6b10a7f4fce889c13","","null","<img id='selected'  src='G_5.jpg' height='90'> <img id='selected'  src='G_3.jpg' height='90'> <img   src='G_7.jpg' height='90'> <img src='G_8.jpg' height='90'> <img src='G_2.jpg' height='90'> <img src='G_4.jpg' height='90'> <img src='G_6.jpg' height='90'> <img src='G_1.jpg' height='90'>","null","Animation1","",""
"","","","","","html-keyboard-response","101","280799","0.0-57.0","5","1","2025-01-31 18:40:13","838ec4b49f044157bad9e156c8cbc4a3","174.79.1.214","Mozilla/5.0 (Windows NT 10.0; Win64; x64) AppleWebKit/537.36 (KHTML, like Gecko) Chrome/132.0.0.0 Safari/537.36","WebKit","Chrome","132.0.0.0","Windows","10.0","https://app.prolific.com/","en-US,en;q=0.7","63e5257dc5aceb22cee2ddf1","679cf675428f47411a224827","679d18f6b10a7f4fce889c13","","null","<img id='swapped'  src='G_3.jpg' height='90'> <img id='swapped'  src='G_5.jpg' height='90'> <img   src='G_7.jpg' height='90'> <img src='G_8.jpg' height='90'> <img src='G_2.jpg' height='90'> <img src='G_4.jpg' height='90'> <img src='G_6.jpg' height='90'> <img src='G_1.jpg' height='90'>","null","Animation1","",""
"","","","","","html-keyboard-response","102","281115","0.0-58.0","5","1","2025-01-31 18:40:13","838ec4b49f044157bad9e156c8cbc4a3","174.79.1.214","Mozilla/5.0 (Windows NT 10.0; Win64; x64) AppleWebKit/537.36 (KHTML, like Gecko) Chrome/132.0.0.0 Safari/537.36","WebKit","Chrome","132.0.0.0","Windows","10.0","https://app.prolific.com/","en-US,en;q=0.7","63e5257dc5aceb22cee2ddf1","679cf675428f47411a224827","679d18f6b10a7f4fce889c13","","null","<img   src='G_3.jpg' height='90'> <img   src='G_5.jpg' height='90'> <img   src='G_7.jpg' height='90'> <img src='G_8.jpg' height='90'> <img src='G_2.jpg' height='90'> <img src='G_4.jpg' height='90'> <img src='G_6.jpg' height='90'> <img src='G_1.jpg' height='90'>","null","Animation1","",""
"","","","","","html-keyboard-response","103","281632","0.0-59.0","5","1","2025-01-31 18:40:13","838ec4b49f044157bad9e156c8cbc4a3","174.79.1.214","Mozilla/5.0 (Windows NT 10.0; Win64; x64) AppleWebKit/537.36 (KHTML, like Gecko) Chrome/132.0.0.0 Safari/537.36","WebKit","Chrome","132.0.0.0","Windows","10.0","https://app.prolific.com/","en-US,en;q=0.7","63e5257dc5aceb22cee2ddf1","679cf675428f47411a224827","679d18f6b10a7f4fce889c13","","null","<img   src='G_3.jpg' height='90'> <img   src='G_5.jpg' height='90'> <img id='selected'   src='G_7.jpg' height='90'> <img src='G_8.jpg' height='90'> <img src='G_2.jpg' height='90'> <img src='G_4.jpg' height='90'> <img src='G_6.jpg' height='90'> <img src='G_1.jpg' height='90'>","null","Animation1","",""
"","","","","","html-keyboard-response","104","282156","0.0-60.0","5","1","2025-01-31 18:40:13","838ec4b49f044157bad9e156c8cbc4a3","174.79.1.214","Mozilla/5.0 (Windows NT 10.0; Win64; x64) AppleWebKit/537.36 (KHTML, like Gecko) Chrome/132.0.0.0 Safari/537.36","WebKit","Chrome","132.0.0.0","Windows","10.0","https://app.prolific.com/","en-US,en;q=0.7","63e5257dc5aceb22cee2ddf1","679cf675428f47411a224827","679d18f6b10a7f4fce889c13","","null","<img   src='G_3.jpg' height='90'> <img   src='G_5.jpg' height='90'> <img id='selected'   src='G_7.jpg' height='90'> <img id='selected' src='G_8.jpg' height='90'> <img src='G_2.jpg' height='90'> <img src='G_4.jpg' height='90'> <img src='G_6.jpg' height='90'> <img src='G_1.jpg' height='90'>","null","Animation1","",""
"","","","","","html-keyboard-response","105","282673","0.0-61.0","5","1","2025-01-31 18:40:13","838ec4b49f044157bad9e156c8cbc4a3","174.79.1.214","Mozilla/5.0 (Windows NT 10.0; Win64; x64) AppleWebKit/537.36 (KHTML, like Gecko) Chrome/132.0.0.0 Safari/537.36","WebKit","Chrome","132.0.0.0","Windows","10.0","https://app.prolific.com/","en-US,en;q=0.7","63e5257dc5aceb22cee2ddf1","679cf675428f47411a224827","679d18f6b10a7f4fce889c13","","null","<img   src='G_3.jpg' height='90'> <img   src='G_5.jpg' height='90'> <img id='swapped' src='G_8.jpg' height='90'> <img id='swapped'   src='G_7.jpg' height='90'> <img src='G_2.jpg' height='90'> <img src='G_4.jpg' height='90'> <img src='G_6.jpg' height='90'> <img src='G_1.jpg' height='90'>","null","Animation1","",""
"","","","","","html-keyboard-response","106","282989","0.0-62.0","5","1","2025-01-31 18:40:13","838ec4b49f044157bad9e156c8cbc4a3","174.79.1.214","Mozilla/5.0 (Windows NT 10.0; Win64; x64) AppleWebKit/537.36 (KHTML, like Gecko) Chrome/132.0.0.0 Safari/537.36","WebKit","Chrome","132.0.0.0","Windows","10.0","https://app.prolific.com/","en-US,en;q=0.7","63e5257dc5aceb22cee2ddf1","679cf675428f47411a224827","679d18f6b10a7f4fce889c13","","null","<img   src='G_3.jpg' height='90'> <img   src='G_5.jpg' height='90'> <img  src='G_8.jpg' height='90'> <img    src='G_7.jpg' height='90'> <img src='G_2.jpg' height='90'> <img src='G_4.jpg' height='90'> <img src='G_6.jpg' height='90'> <img src='G_1.jpg' height='90'>","null","Animation1","",""
"","","","","","html-keyboard-response","107","283506","0.0-63.0","5","1","2025-01-31 18:40:13","838ec4b49f044157bad9e156c8cbc4a3","174.79.1.214","Mozilla/5.0 (Windows NT 10.0; Win64; x64) AppleWebKit/537.36 (KHTML, like Gecko) Chrome/132.0.0.0 Safari/537.36","WebKit","Chrome","132.0.0.0","Windows","10.0","https://app.prolific.com/","en-US,en;q=0.7","63e5257dc5aceb22cee2ddf1","679cf675428f47411a224827","679d18f6b10a7f4fce889c13","","null","<img   src='G_3.jpg' height='90'> <img id='selected'   src='G_5.jpg' height='90'> <img  src='G_8.jpg' height='90'> <img    src='G_7.jpg' height='90'> <img src='G_2.jpg' height='90'> <img src='G_4.jpg' height='90'> <img src='G_6.jpg' height='90'> <img src='G_1.jpg' height='90'>","null","Animation1","",""
"","","","","","html-keyboard-response","108","284023","0.0-64.0","5","1","2025-01-31 18:40:13","838ec4b49f044157bad9e156c8cbc4a3","174.79.1.214","Mozilla/5.0 (Windows NT 10.0; Win64; x64) AppleWebKit/537.36 (KHTML, like Gecko) Chrome/132.0.0.0 Safari/537.36","WebKit","Chrome","132.0.0.0","Windows","10.0","https://app.prolific.com/","en-US,en;q=0.7","63e5257dc5aceb22cee2ddf1","679cf675428f47411a224827","679d18f6b10a7f4fce889c13","","null","<img   src='G_3.jpg' height='90'> <img id='selected'   src='G_5.jpg' height='90'> <img id='selected'  src='G_8.jpg' height='90'> <img    src='G_7.jpg' height='90'> <img src='G_2.jpg' height='90'> <img src='G_4.jpg' height='90'> <img src='G_6.jpg' height='90'> <img src='G_1.jpg' height='90'>","null","Animation1","",""
"","","","","","html-keyboard-response","109","284539","0.0-65.0","5","1","2025-01-31 18:40:13","838ec4b49f044157bad9e156c8cbc4a3","174.79.1.214","Mozilla/5.0 (Windows NT 10.0; Win64; x64) AppleWebKit/537.36 (KHTML, like Gecko) Chrome/132.0.0.0 Safari/537.36","WebKit","Chrome","132.0.0.0","Windows","10.0","https://app.prolific.com/","en-US,en;q=0.7","63e5257dc5aceb22cee2ddf1","679cf675428f47411a224827","679d18f6b10a7f4fce889c13","","null","<img   src='G_3.jpg' height='90'> <img id='swapped'  src='G_8.jpg' height='90'> <img id='swapped'   src='G_5.jpg' height='90'> <img    src='G_7.jpg' height='90'> <img src='G_2.jpg' height='90'> <img src='G_4.jpg' height='90'> <img src='G_6.jpg' height='90'> <img src='G_1.jpg' height='90'>","null","Animation1","",""
"","","","","","html-keyboard-response","110","284862","0.0-66.0","5","1","2025-01-31 18:40:13","838ec4b49f044157bad9e156c8cbc4a3","174.79.1.214","Mozilla/5.0 (Windows NT 10.0; Win64; x64) AppleWebKit/537.36 (KHTML, like Gecko) Chrome/132.0.0.0 Safari/537.36","WebKit","Chrome","132.0.0.0","Windows","10.0","https://app.prolific.com/","en-US,en;q=0.7","63e5257dc5aceb22cee2ddf1","679cf675428f47411a224827","679d18f6b10a7f4fce889c13","","null","<img   src='G_3.jpg' height='90'> <img   src='G_8.jpg' height='90'> <img    src='G_5.jpg' height='90'> <img    src='G_7.jpg' height='90'> <img src='G_2.jpg' height='90'> <img src='G_4.jpg' height='90'> <img src='G_6.jpg' height='90'> <img src='G_1.jpg' height='90'>","null","Animation1","",""
"","","","","","html-keyboard-response","111","285379","0.0-67.0","5","1","2025-01-31 18:40:13","838ec4b49f044157bad9e156c8cbc4a3","174.79.1.214","Mozilla/5.0 (Windows NT 10.0; Win64; x64) AppleWebKit/537.36 (KHTML, like Gecko) Chrome/132.0.0.0 Safari/537.36","WebKit","Chrome","132.0.0.0","Windows","10.0","https://app.prolific.com/","en-US,en;q=0.7","63e5257dc5aceb22cee2ddf1","679cf675428f47411a224827","679d18f6b10a7f4fce889c13","","null","<img id='selected'   src='G_3.jpg' height='90'> <img   src='G_8.jpg' height='90'> <img    src='G_5.jpg' height='90'> <img    src='G_7.jpg' height='90'> <img src='G_2.jpg' height='90'> <img src='G_4.jpg' height='90'> <img src='G_6.jpg' height='90'> <img src='G_1.jpg' height='90'>","null","Animation1","",""
"","","","","","html-keyboard-response","112","285895","0.0-68.0","5","1","2025-01-31 18:40:13","838ec4b49f044157bad9e156c8cbc4a3","174.79.1.214","Mozilla/5.0 (Windows NT 10.0; Win64; x64) AppleWebKit/537.36 (KHTML, like Gecko) Chrome/132.0.0.0 Safari/537.36","WebKit","Chrome","132.0.0.0","Windows","10.0","https://app.prolific.com/","en-US,en;q=0.7","63e5257dc5aceb22cee2ddf1","679cf675428f47411a224827","679d18f6b10a7f4fce889c13","","null","<img id='selected'   src='G_3.jpg' height='90'> <img id='selected'   src='G_8.jpg' height='90'> <img    src='G_5.jpg' height='90'> <img    src='G_7.jpg' height='90'> <img src='G_2.jpg' height='90'> <img src='G_4.jpg' height='90'> <img src='G_6.jpg' height='90'> <img src='G_1.jpg' height='90'>","null","Animation1","",""
"","","","","","html-keyboard-response","113","286412","0.0-69.0","5","1","2025-01-31 18:40:13","838ec4b49f044157bad9e156c8cbc4a3","174.79.1.214","Mozilla/5.0 (Windows NT 10.0; Win64; x64) AppleWebKit/537.36 (KHTML, like Gecko) Chrome/132.0.0.0 Safari/537.36","WebKit","Chrome","132.0.0.0","Windows","10.0","https://app.prolific.com/","en-US,en;q=0.7","63e5257dc5aceb22cee2ddf1","679cf675428f47411a224827","679d18f6b10a7f4fce889c13","","null","<img id='swapped'   src='G_8.jpg' height='90'> <img id='swapped'   src='G_3.jpg' height='90'> <img    src='G_5.jpg' height='90'> <img    src='G_7.jpg' height='90'> <img src='G_2.jpg' height='90'> <img src='G_4.jpg' height='90'> <img src='G_6.jpg' height='90'> <img src='G_1.jpg' height='90'>","null","Animation1","",""
"","","","","","html-keyboard-response","114","286730","0.0-70.0","5","1","2025-01-31 18:40:13","838ec4b49f044157bad9e156c8cbc4a3","174.79.1.214","Mozilla/5.0 (Windows NT 10.0; Win64; x64) AppleWebKit/537.36 (KHTML, like Gecko) Chrome/132.0.0.0 Safari/537.36","WebKit","Chrome","132.0.0.0","Windows","10.0","https://app.prolific.com/","en-US,en;q=0.7","63e5257dc5aceb22cee2ddf1","679cf675428f47411a224827","679d18f6b10a7f4fce889c13","","null","<img    src='G_8.jpg' height='90'> <img    src='G_3.jpg' height='90'> <img    src='G_5.jpg' height='90'> <img    src='G_7.jpg' height='90'> <img src='G_2.jpg' height='90'> <img src='G_4.jpg' height='90'> <img src='G_6.jpg' height='90'> <img src='G_1.jpg' height='90'>","null","Animation1","",""
"","","","","","html-keyboard-response","115","287246","0.0-71.0","5","1","2025-01-31 18:40:13","838ec4b49f044157bad9e156c8cbc4a3","174.79.1.214","Mozilla/5.0 (Windows NT 10.0; Win64; x64) AppleWebKit/537.36 (KHTML, like Gecko) Chrome/132.0.0.0 Safari/537.36","WebKit","Chrome","132.0.0.0","Windows","10.0","https://app.prolific.com/","en-US,en;q=0.7","63e5257dc5aceb22cee2ddf1","679cf675428f47411a224827","679d18f6b10a7f4fce889c13","","null","<img    src='G_8.jpg' height='90'> <img    src='G_3.jpg' height='90'> <img    src='G_5.jpg' height='90'> <img id='selected'    src='G_7.jpg' height='90'> <img src='G_2.jpg' height='90'> <img src='G_4.jpg' height='90'> <img src='G_6.jpg' height='90'> <img src='G_1.jpg' height='90'>","null","Animation1","",""
"","","","","","html-keyboard-response","116","287771","0.0-72.0","5","1","2025-01-31 18:40:13","838ec4b49f044157bad9e156c8cbc4a3","174.79.1.214","Mozilla/5.0 (Windows NT 10.0; Win64; x64) AppleWebKit/537.36 (KHTML, like Gecko) Chrome/132.0.0.0 Safari/537.36","WebKit","Chrome","132.0.0.0","Windows","10.0","https://app.prolific.com/","en-US,en;q=0.7","63e5257dc5aceb22cee2ddf1","679cf675428f47411a224827","679d18f6b10a7f4fce889c13","","null","<img    src='G_8.jpg' height='90'> <img    src='G_3.jpg' height='90'> <img    src='G_5.jpg' height='90'> <img id='selected'    src='G_7.jpg' height='90'> <img id='selected' src='G_2.jpg' height='90'> <img src='G_4.jpg' height='90'> <img src='G_6.jpg' height='90'> <img src='G_1.jpg' height='90'>","null","Animation1","",""
"","","","","","html-keyboard-response","117","288287","0.0-73.0","5","1","2025-01-31 18:40:13","838ec4b49f044157bad9e156c8cbc4a3","174.79.1.214","Mozilla/5.0 (Windows NT 10.0; Win64; x64) AppleWebKit/537.36 (KHTML, like Gecko) Chrome/132.0.0.0 Safari/537.36","WebKit","Chrome","132.0.0.0","Windows","10.0","https://app.prolific.com/","en-US,en;q=0.7","63e5257dc5aceb22cee2ddf1","679cf675428f47411a224827","679d18f6b10a7f4fce889c13","","null","<img    src='G_8.jpg' height='90'> <img    src='G_3.jpg' height='90'> <img    src='G_5.jpg' height='90'> <img id='swapped' src='G_2.jpg' height='90'> <img id='swapped'    src='G_7.jpg' height='90'> <img src='G_4.jpg' height='90'> <img src='G_6.jpg' height='90'> <img src='G_1.jpg' height='90'>","null","Animation1","",""
"","","","","","html-keyboard-response","118","288604","0.0-74.0","5","1","2025-01-31 18:40:13","838ec4b49f044157bad9e156c8cbc4a3","174.79.1.214","Mozilla/5.0 (Windows NT 10.0; Win64; x64) AppleWebKit/537.36 (KHTML, like Gecko) Chrome/132.0.0.0 Safari/537.36","WebKit","Chrome","132.0.0.0","Windows","10.0","https://app.prolific.com/","en-US,en;q=0.7","63e5257dc5aceb22cee2ddf1","679cf675428f47411a224827","679d18f6b10a7f4fce889c13","","null","<img    src='G_8.jpg' height='90'> <img    src='G_3.jpg' height='90'> <img    src='G_5.jpg' height='90'> <img  src='G_2.jpg' height='90'> <img     src='G_7.jpg' height='90'> <img src='G_4.jpg' height='90'> <img src='G_6.jpg' height='90'> <img src='G_1.jpg' height='90'>","null","Animation1","",""
"","","","","","html-keyboard-response","119","289120","0.0-75.0","5","1","2025-01-31 18:40:13","838ec4b49f044157bad9e156c8cbc4a3","174.79.1.214","Mozilla/5.0 (Windows NT 10.0; Win64; x64) AppleWebKit/537.36 (KHTML, like Gecko) Chrome/132.0.0.0 Safari/537.36","WebKit","Chrome","132.0.0.0","Windows","10.0","https://app.prolific.com/","en-US,en;q=0.7","63e5257dc5aceb22cee2ddf1","679cf675428f47411a224827","679d18f6b10a7f4fce889c13","","null","<img    src='G_8.jpg' height='90'> <img    src='G_3.jpg' height='90'> <img id='selected'    src='G_5.jpg' height='90'> <img  src='G_2.jpg' height='90'> <img     src='G_7.jpg' height='90'> <img src='G_4.jpg' height='90'> <img src='G_6.jpg' height='90'> <img src='G_1.jpg' height='90'>","null","Animation1","",""
"","","","","","html-keyboard-response","120","289637","0.0-76.0","5","1","2025-01-31 18:40:13","838ec4b49f044157bad9e156c8cbc4a3","174.79.1.214","Mozilla/5.0 (Windows NT 10.0; Win64; x64) AppleWebKit/537.36 (KHTML, like Gecko) Chrome/132.0.0.0 Safari/537.36","WebKit","Chrome","132.0.0.0","Windows","10.0","https://app.prolific.com/","en-US,en;q=0.7","63e5257dc5aceb22cee2ddf1","679cf675428f47411a224827","679d18f6b10a7f4fce889c13","","null","<img    src='G_8.jpg' height='90'> <img    src='G_3.jpg' height='90'> <img id='selected'    src='G_5.jpg' height='90'> <img id='selected'  src='G_2.jpg' height='90'> <img     src='G_7.jpg' height='90'> <img src='G_4.jpg' height='90'> <img src='G_6.jpg' height='90'> <img src='G_1.jpg' height='90'>","null","Animation1","",""
"","","","","","html-keyboard-response","121","290153","0.0-77.0","5","1","2025-01-31 18:40:13","838ec4b49f044157bad9e156c8cbc4a3","174.79.1.214","Mozilla/5.0 (Windows NT 10.0; Win64; x64) AppleWebKit/537.36 (KHTML, like Gecko) Chrome/132.0.0.0 Safari/537.36","WebKit","Chrome","132.0.0.0","Windows","10.0","https://app.prolific.com/","en-US,en;q=0.7","63e5257dc5aceb22cee2ddf1","679cf675428f47411a224827","679d18f6b10a7f4fce889c13","","null","<img    src='G_8.jpg' height='90'> <img    src='G_3.jpg' height='90'> <img id='swapped'  src='G_2.jpg' height='90'> <img id='swapped'    src='G_5.jpg' height='90'> <img     src='G_7.jpg' height='90'> <img src='G_4.jpg' height='90'> <img src='G_6.jpg' height='90'> <img src='G_1.jpg' height='90'>","null","Animation1","",""
"","","","","","html-keyboard-response","122","290477","0.0-78.0","5","1","2025-01-31 18:40:13","838ec4b49f044157bad9e156c8cbc4a3","174.79.1.214","Mozilla/5.0 (Windows NT 10.0; Win64; x64) AppleWebKit/537.36 (KHTML, like Gecko) Chrome/132.0.0.0 Safari/537.36","WebKit","Chrome","132.0.0.0","Windows","10.0","https://app.prolific.com/","en-US,en;q=0.7","63e5257dc5aceb22cee2ddf1","679cf675428f47411a224827","679d18f6b10a7f4fce889c13","","null","<img    src='G_8.jpg' height='90'> <img    src='G_3.jpg' height='90'> <img   src='G_2.jpg' height='90'> <img     src='G_5.jpg' height='90'> <img     src='G_7.jpg' height='90'> <img src='G_4.jpg' height='90'> <img src='G_6.jpg' height='90'> <img src='G_1.jpg' height='90'>","null","Animation1","",""
"","","","","","html-keyboard-response","123","290994","0.0-79.0","5","1","2025-01-31 18:40:13","838ec4b49f044157bad9e156c8cbc4a3","174.79.1.214","Mozilla/5.0 (Windows NT 10.0; Win64; x64) AppleWebKit/537.36 (KHTML, like Gecko) Chrome/132.0.0.0 Safari/537.36","WebKit","Chrome","132.0.0.0","Windows","10.0","https://app.prolific.com/","en-US,en;q=0.7","63e5257dc5aceb22cee2ddf1","679cf675428f47411a224827","679d18f6b10a7f4fce889c13","","null","<img    src='G_8.jpg' height='90'> <img id='selected'    src='G_3.jpg' height='90'> <img   src='G_2.jpg' height='90'> <img     src='G_5.jpg' height='90'> <img     src='G_7.jpg' height='90'> <img src='G_4.jpg' height='90'> <img src='G_6.jpg' height='90'> <img src='G_1.jpg' height='90'>","null","Animation1","",""
"","","","","","html-keyboard-response","124","291511","0.0-80.0","5","1","2025-01-31 18:40:13","838ec4b49f044157bad9e156c8cbc4a3","174.79.1.214","Mozilla/5.0 (Windows NT 10.0; Win64; x64) AppleWebKit/537.36 (KHTML, like Gecko) Chrome/132.0.0.0 Safari/537.36","WebKit","Chrome","132.0.0.0","Windows","10.0","https://app.prolific.com/","en-US,en;q=0.7","63e5257dc5aceb22cee2ddf1","679cf675428f47411a224827","679d18f6b10a7f4fce889c13","","null","<img    src='G_8.jpg' height='90'> <img id='selected'    src='G_3.jpg' height='90'> <img id='selected'   src='G_2.jpg' height='90'> <img     src='G_5.jpg' height='90'> <img     src='G_7.jpg' height='90'> <img src='G_4.jpg' height='90'> <img src='G_6.jpg' height='90'> <img src='G_1.jpg' height='90'>","null","Animation1","",""
"","","","","","html-keyboard-response","125","292027","0.0-81.0","5","1","2025-01-31 18:40:13","838ec4b49f044157bad9e156c8cbc4a3","174.79.1.214","Mozilla/5.0 (Windows NT 10.0; Win64; x64) AppleWebKit/537.36 (KHTML, like Gecko) Chrome/132.0.0.0 Safari/537.36","WebKit","Chrome","132.0.0.0","Windows","10.0","https://app.prolific.com/","en-US,en;q=0.7","63e5257dc5aceb22cee2ddf1","679cf675428f47411a224827","679d18f6b10a7f4fce889c13","","null","<img    src='G_8.jpg' height='90'> <img id='swapped'   src='G_2.jpg' height='90'> <img id='swapped'    src='G_3.jpg' height='90'> <img     src='G_5.jpg' height='90'> <img     src='G_7.jpg' height='90'> <img src='G_4.jpg' height='90'> <img src='G_6.jpg' height='90'> <img src='G_1.jpg' height='90'>","null","Animation1","",""
"","","","","","html-keyboard-response","126","292344","0.0-82.0","5","1","2025-01-31 18:40:13","838ec4b49f044157bad9e156c8cbc4a3","174.79.1.214","Mozilla/5.0 (Windows NT 10.0; Win64; x64) AppleWebKit/537.36 (KHTML, like Gecko) Chrome/132.0.0.0 Safari/537.36","WebKit","Chrome","132.0.0.0","Windows","10.0","https://app.prolific.com/","en-US,en;q=0.7","63e5257dc5aceb22cee2ddf1","679cf675428f47411a224827","679d18f6b10a7f4fce889c13","","null","<img    src='G_8.jpg' height='90'> <img    src='G_2.jpg' height='90'> <img     src='G_3.jpg' height='90'> <img     src='G_5.jpg' height='90'> <img     src='G_7.jpg' height='90'> <img src='G_4.jpg' height='90'> <img src='G_6.jpg' height='90'> <img src='G_1.jpg' height='90'>","null","Animation1","",""
"","","","","","html-keyboard-response","127","292860","0.0-83.0","5","1","2025-01-31 18:40:13","838ec4b49f044157bad9e156c8cbc4a3","174.79.1.214","Mozilla/5.0 (Windows NT 10.0; Win64; x64) AppleWebKit/537.36 (KHTML, like Gecko) Chrome/132.0.0.0 Safari/537.36","WebKit","Chrome","132.0.0.0","Windows","10.0","https://app.prolific.com/","en-US,en;q=0.7","63e5257dc5aceb22cee2ddf1","679cf675428f47411a224827","679d18f6b10a7f4fce889c13","","null","<img id='selected'    src='G_8.jpg' height='90'> <img    src='G_2.jpg' height='90'> <img     src='G_3.jpg' height='90'> <img     src='G_5.jpg' height='90'> <img     src='G_7.jpg' height='90'> <img src='G_4.jpg' height='90'> <img src='G_6.jpg' height='90'> <img src='G_1.jpg' height='90'>","null","Animation1","",""
"","","","","","html-keyboard-response","128","293385","0.0-84.0","5","1","2025-01-31 18:40:13","838ec4b49f044157bad9e156c8cbc4a3","174.79.1.214","Mozilla/5.0 (Windows NT 10.0; Win64; x64) AppleWebKit/537.36 (KHTML, like Gecko) Chrome/132.0.0.0 Safari/537.36","WebKit","Chrome","132.0.0.0","Windows","10.0","https://app.prolific.com/","en-US,en;q=0.7","63e5257dc5aceb22cee2ddf1","679cf675428f47411a224827","679d18f6b10a7f4fce889c13","","null","<img id='selected'    src='G_8.jpg' height='90'> <img id='selected'    src='G_2.jpg' height='90'> <img     src='G_3.jpg' height='90'> <img     src='G_5.jpg' height='90'> <img     src='G_7.jpg' height='90'> <img src='G_4.jpg' height='90'> <img src='G_6.jpg' height='90'> <img src='G_1.jpg' height='90'>","null","Animation1","",""
"","","","","","html-keyboard-response","129","293902","0.0-85.0","5","1","2025-01-31 18:40:13","838ec4b49f044157bad9e156c8cbc4a3","174.79.1.214","Mozilla/5.0 (Windows NT 10.0; Win64; x64) AppleWebKit/537.36 (KHTML, like Gecko) Chrome/132.0.0.0 Safari/537.36","WebKit","Chrome","132.0.0.0","Windows","10.0","https://app.prolific.com/","en-US,en;q=0.7","63e5257dc5aceb22cee2ddf1","679cf675428f47411a224827","679d18f6b10a7f4fce889c13","","null","<img id='selected'    src='G_8.jpg' height='90'> <img id='selected'    src='G_2.jpg' height='90'> <img     src='G_3.jpg' height='90'> <img     src='G_5.jpg' height='90'> <img     src='G_7.jpg' height='90'> <img src='G_4.jpg' height='90'> <img src='G_6.jpg' height='90'> <img src='G_1.jpg' height='90'>","null","Animation1","",""
"","","","","","html-keyboard-response","130","294218","0.0-86.0","5","1","2025-01-31 18:40:13","838ec4b49f044157bad9e156c8cbc4a3","174.79.1.214","Mozilla/5.0 (Windows NT 10.0; Win64; x64) AppleWebKit/537.36 (KHTML, like Gecko) Chrome/132.0.0.0 Safari/537.36","WebKit","Chrome","132.0.0.0","Windows","10.0","https://app.prolific.com/","en-US,en;q=0.7","63e5257dc5aceb22cee2ddf1","679cf675428f47411a224827","679d18f6b10a7f4fce889c13","","null","<img     src='G_8.jpg' height='90'> <img     src='G_2.jpg' height='90'> <img     src='G_3.jpg' height='90'> <img     src='G_5.jpg' height='90'> <img     src='G_7.jpg' height='90'> <img src='G_4.jpg' height='90'> <img src='G_6.jpg' height='90'> <img src='G_1.jpg' height='90'>","null","Animation1","",""
"","","","","","html-keyboard-response","131","294734","0.0-87.0","5","1","2025-01-31 18:40:13","838ec4b49f044157bad9e156c8cbc4a3","174.79.1.214","Mozilla/5.0 (Windows NT 10.0; Win64; x64) AppleWebKit/537.36 (KHTML, like Gecko) Chrome/132.0.0.0 Safari/537.36","WebKit","Chrome","132.0.0.0","Windows","10.0","https://app.prolific.com/","en-US,en;q=0.7","63e5257dc5aceb22cee2ddf1","679cf675428f47411a224827","679d18f6b10a7f4fce889c13","","null","<img     src='G_8.jpg' height='90'> <img     src='G_2.jpg' height='90'> <img     src='G_3.jpg' height='90'> <img     src='G_5.jpg' height='90'> <img id='selected'     src='G_7.jpg' height='90'> <img src='G_4.jpg' height='90'> <img src='G_6.jpg' height='90'> <img src='G_1.jpg' height='90'>","null","Animation1","",""
"","","","","","html-keyboard-response","132","295252","0.0-88.0","5","1","2025-01-31 18:40:13","838ec4b49f044157bad9e156c8cbc4a3","174.79.1.214","Mozilla/5.0 (Windows NT 10.0; Win64; x64) AppleWebKit/537.36 (KHTML, like Gecko) Chrome/132.0.0.0 Safari/537.36","WebKit","Chrome","132.0.0.0","Windows","10.0","https://app.prolific.com/","en-US,en;q=0.7","63e5257dc5aceb22cee2ddf1","679cf675428f47411a224827","679d18f6b10a7f4fce889c13","","null","<img     src='G_8.jpg' height='90'> <img     src='G_2.jpg' height='90'> <img     src='G_3.jpg' height='90'> <img     src='G_5.jpg' height='90'> <img id='selected'     src='G_7.jpg' height='90'> <img id='selected' src='G_4.jpg' height='90'> <img src='G_6.jpg' height='90'> <img src='G_1.jpg' height='90'>","null","Animation1","",""
"","","","","","html-keyboard-response","133","295768","0.0-89.0","5","1","2025-01-31 18:40:13","838ec4b49f044157bad9e156c8cbc4a3","174.79.1.214","Mozilla/5.0 (Windows NT 10.0; Win64; x64) AppleWebKit/537.36 (KHTML, like Gecko) Chrome/132.0.0.0 Safari/537.36","WebKit","Chrome","132.0.0.0","Windows","10.0","https://app.prolific.com/","en-US,en;q=0.7","63e5257dc5aceb22cee2ddf1","679cf675428f47411a224827","679d18f6b10a7f4fce889c13","","null","<img     src='G_8.jpg' height='90'> <img     src='G_2.jpg' height='90'> <img     src='G_3.jpg' height='90'> <img     src='G_5.jpg' height='90'> <img id='swapped' src='G_4.jpg' height='90'> <img id='swapped'     src='G_7.jpg' height='90'> <img src='G_6.jpg' height='90'> <img src='G_1.jpg' height='90'>","null","Animation1","",""
"","","","","","html-keyboard-response","134","296092","0.0-90.0","5","1","2025-01-31 18:40:13","838ec4b49f044157bad9e156c8cbc4a3","174.79.1.214","Mozilla/5.0 (Windows NT 10.0; Win64; x64) AppleWebKit/537.36 (KHTML, like Gecko) Chrome/132.0.0.0 Safari/537.36","WebKit","Chrome","132.0.0.0","Windows","10.0","https://app.prolific.com/","en-US,en;q=0.7","63e5257dc5aceb22cee2ddf1","679cf675428f47411a224827","679d18f6b10a7f4fce889c13","","null","<img     src='G_8.jpg' height='90'> <img     src='G_2.jpg' height='90'> <img     src='G_3.jpg' height='90'> <img     src='G_5.jpg' height='90'> <img  src='G_4.jpg' height='90'> <img      src='G_7.jpg' height='90'> <img src='G_6.jpg' height='90'> <img src='G_1.jpg' height='90'>","null","Animation1","",""
"","","","","","html-keyboard-response","135","296608","0.0-91.0","5","1","2025-01-31 18:40:13","838ec4b49f044157bad9e156c8cbc4a3","174.79.1.214","Mozilla/5.0 (Windows NT 10.0; Win64; x64) AppleWebKit/537.36 (KHTML, like Gecko) Chrome/132.0.0.0 Safari/537.36","WebKit","Chrome","132.0.0.0","Windows","10.0","https://app.prolific.com/","en-US,en;q=0.7","63e5257dc5aceb22cee2ddf1","679cf675428f47411a224827","679d18f6b10a7f4fce889c13","","null","<img     src='G_8.jpg' height='90'> <img     src='G_2.jpg' height='90'> <img     src='G_3.jpg' height='90'> <img id='selected'     src='G_5.jpg' height='90'> <img  src='G_4.jpg' height='90'> <img      src='G_7.jpg' height='90'> <img src='G_6.jpg' height='90'> <img src='G_1.jpg' height='90'>","null","Animation1","",""
"","","","","","html-keyboard-response","136","297125","0.0-92.0","5","1","2025-01-31 18:40:13","838ec4b49f044157bad9e156c8cbc4a3","174.79.1.214","Mozilla/5.0 (Windows NT 10.0; Win64; x64) AppleWebKit/537.36 (KHTML, like Gecko) Chrome/132.0.0.0 Safari/537.36","WebKit","Chrome","132.0.0.0","Windows","10.0","https://app.prolific.com/","en-US,en;q=0.7","63e5257dc5aceb22cee2ddf1","679cf675428f47411a224827","679d18f6b10a7f4fce889c13","","null","<img     src='G_8.jpg' height='90'> <img     src='G_2.jpg' height='90'> <img     src='G_3.jpg' height='90'> <img id='selected'     src='G_5.jpg' height='90'> <img id='selected'  src='G_4.jpg' height='90'> <img      src='G_7.jpg' height='90'> <img src='G_6.jpg' height='90'> <img src='G_1.jpg' height='90'>","null","Animation1","",""
"","","","","","html-keyboard-response","137","297642","0.0-93.0","5","1","2025-01-31 18:40:13","838ec4b49f044157bad9e156c8cbc4a3","174.79.1.214","Mozilla/5.0 (Windows NT 10.0; Win64; x64) AppleWebKit/537.36 (KHTML, like Gecko) Chrome/132.0.0.0 Safari/537.36","WebKit","Chrome","132.0.0.0","Windows","10.0","https://app.prolific.com/","en-US,en;q=0.7","63e5257dc5aceb22cee2ddf1","679cf675428f47411a224827","679d18f6b10a7f4fce889c13","","null","<img     src='G_8.jpg' height='90'> <img     src='G_2.jpg' height='90'> <img     src='G_3.jpg' height='90'> <img id='selected'     src='G_5.jpg' height='90'> <img id='selected'  src='G_4.jpg' height='90'> <img      src='G_7.jpg' height='90'> <img src='G_6.jpg' height='90'> <img src='G_1.jpg' height='90'>","null","Animation1","",""
"","","","","","html-keyboard-response","138","297958","0.0-94.0","5","1","2025-01-31 18:40:13","838ec4b49f044157bad9e156c8cbc4a3","174.79.1.214","Mozilla/5.0 (Windows NT 10.0; Win64; x64) AppleWebKit/537.36 (KHTML, like Gecko) Chrome/132.0.0.0 Safari/537.36","WebKit","Chrome","132.0.0.0","Windows","10.0","https://app.prolific.com/","en-US,en;q=0.7","63e5257dc5aceb22cee2ddf1","679cf675428f47411a224827","679d18f6b10a7f4fce889c13","","null","<img     src='G_8.jpg' height='90'> <img     src='G_2.jpg' height='90'> <img     src='G_3.jpg' height='90'> <img      src='G_5.jpg' height='90'> <img   src='G_4.jpg' height='90'> <img      src='G_7.jpg' height='90'> <img src='G_6.jpg' height='90'> <img src='G_1.jpg' height='90'>","null","Animation1","",""
"","","","","","html-keyboard-response","139","298475","0.0-95.0","5","1","2025-01-31 18:40:13","838ec4b49f044157bad9e156c8cbc4a3","174.79.1.214","Mozilla/5.0 (Windows NT 10.0; Win64; x64) AppleWebKit/537.36 (KHTML, like Gecko) Chrome/132.0.0.0 Safari/537.36","WebKit","Chrome","132.0.0.0","Windows","10.0","https://app.prolific.com/","en-US,en;q=0.7","63e5257dc5aceb22cee2ddf1","679cf675428f47411a224827","679d18f6b10a7f4fce889c13","","null","<img     src='G_8.jpg' height='90'> <img     src='G_2.jpg' height='90'> <img     src='G_3.jpg' height='90'> <img      src='G_5.jpg' height='90'> <img   src='G_4.jpg' height='90'> <img id='selected'      src='G_7.jpg' height='90'> <img src='G_6.jpg' height='90'> <img src='G_1.jpg' height='90'>","null","Animation1","",""
"","","","","","html-keyboard-response","140","298999","0.0-96.0","5","1","2025-01-31 18:40:13","838ec4b49f044157bad9e156c8cbc4a3","174.79.1.214","Mozilla/5.0 (Windows NT 10.0; Win64; x64) AppleWebKit/537.36 (KHTML, like Gecko) Chrome/132.0.0.0 Safari/537.36","WebKit","Chrome","132.0.0.0","Windows","10.0","https://app.prolific.com/","en-US,en;q=0.7","63e5257dc5aceb22cee2ddf1","679cf675428f47411a224827","679d18f6b10a7f4fce889c13","","null","<img     src='G_8.jpg' height='90'> <img     src='G_2.jpg' height='90'> <img     src='G_3.jpg' height='90'> <img      src='G_5.jpg' height='90'> <img   src='G_4.jpg' height='90'> <img id='selected'      src='G_7.jpg' height='90'> <img id='selected' src='G_6.jpg' height='90'> <img src='G_1.jpg' height='90'>","null","Animation1","",""
"","","","","","html-keyboard-response","141","299516","0.0-97.0","5","1","2025-01-31 18:40:13","838ec4b49f044157bad9e156c8cbc4a3","174.79.1.214","Mozilla/5.0 (Windows NT 10.0; Win64; x64) AppleWebKit/537.36 (KHTML, like Gecko) Chrome/132.0.0.0 Safari/537.36","WebKit","Chrome","132.0.0.0","Windows","10.0","https://app.prolific.com/","en-US,en;q=0.7","63e5257dc5aceb22cee2ddf1","679cf675428f47411a224827","679d18f6b10a7f4fce889c13","","null","<img     src='G_8.jpg' height='90'> <img     src='G_2.jpg' height='90'> <img     src='G_3.jpg' height='90'> <img      src='G_5.jpg' height='90'> <img   src='G_4.jpg' height='90'> <img id='selected'      src='G_7.jpg' height='90'> <img id='selected' src='G_6.jpg' height='90'> <img src='G_1.jpg' height='90'>","null","Animation1","",""
"","","","","","html-keyboard-response","142","299832","0.0-98.0","5","1","2025-01-31 18:40:13","838ec4b49f044157bad9e156c8cbc4a3","174.79.1.214","Mozilla/5.0 (Windows NT 10.0; Win64; x64) AppleWebKit/537.36 (KHTML, like Gecko) Chrome/132.0.0.0 Safari/537.36","WebKit","Chrome","132.0.0.0","Windows","10.0","https://app.prolific.com/","en-US,en;q=0.7","63e5257dc5aceb22cee2ddf1","679cf675428f47411a224827","679d18f6b10a7f4fce889c13","","null","<img     src='G_8.jpg' height='90'> <img     src='G_2.jpg' height='90'> <img     src='G_3.jpg' height='90'> <img      src='G_5.jpg' height='90'> <img   src='G_4.jpg' height='90'> <img       src='G_7.jpg' height='90'> <img  src='G_6.jpg' height='90'> <img src='G_1.jpg' height='90'>","null","Animation1","",""
"","","","","","html-keyboard-response","143","300348","0.0-99.0","5","1","2025-01-31 18:40:13","838ec4b49f044157bad9e156c8cbc4a3","174.79.1.214","Mozilla/5.0 (Windows NT 10.0; Win64; x64) AppleWebKit/537.36 (KHTML, like Gecko) Chrome/132.0.0.0 Safari/537.36","WebKit","Chrome","132.0.0.0","Windows","10.0","https://app.prolific.com/","en-US,en;q=0.7","63e5257dc5aceb22cee2ddf1","679cf675428f47411a224827","679d18f6b10a7f4fce889c13","","null","<img     src='G_8.jpg' height='90'> <img     src='G_2.jpg' height='90'> <img     src='G_3.jpg' height='90'> <img      src='G_5.jpg' height='90'> <img   src='G_4.jpg' height='90'> <img       src='G_7.jpg' height='90'> <img id='selected'  src='G_6.jpg' height='90'> <img src='G_1.jpg' height='90'>","null","Animation1","",""
"","","","","","html-keyboard-response","144","300871","0.0-100.0","5","1","2025-01-31 18:40:13","838ec4b49f044157bad9e156c8cbc4a3","174.79.1.214","Mozilla/5.0 (Windows NT 10.0; Win64; x64) AppleWebKit/537.36 (KHTML, like Gecko) Chrome/132.0.0.0 Safari/537.36","WebKit","Chrome","132.0.0.0","Windows","10.0","https://app.prolific.com/","en-US,en;q=0.7","63e5257dc5aceb22cee2ddf1","679cf675428f47411a224827","679d18f6b10a7f4fce889c13","","null","<img     src='G_8.jpg' height='90'> <img     src='G_2.jpg' height='90'> <img     src='G_3.jpg' height='90'> <img      src='G_5.jpg' height='90'> <img   src='G_4.jpg' height='90'> <img       src='G_7.jpg' height='90'> <img id='selected'  src='G_6.jpg' height='90'> <img id='selected' src='G_1.jpg' height='90'>","null","Animation1","",""
"","","","","","html-keyboard-response","145","301405","0.0-101.0","5","1","2025-01-31 18:40:13","838ec4b49f044157bad9e156c8cbc4a3","174.79.1.214","Mozilla/5.0 (Windows NT 10.0; Win64; x64) AppleWebKit/537.36 (KHTML, like Gecko) Chrome/132.0.0.0 Safari/537.36","WebKit","Chrome","132.0.0.0","Windows","10.0","https://app.prolific.com/","en-US,en;q=0.7","63e5257dc5aceb22cee2ddf1","679cf675428f47411a224827","679d18f6b10a7f4fce889c13","","null","<img     src='G_8.jpg' height='90'> <img     src='G_2.jpg' height='90'> <img     src='G_3.jpg' height='90'> <img      src='G_5.jpg' height='90'> <img   src='G_4.jpg' height='90'> <img       src='G_7.jpg' height='90'> <img id='swapped' src='G_1.jpg' height='90'> <img id='swapped'  src='G_6.jpg' height='90'>","null","Animation1","",""
"","","","","","html-keyboard-response","146","301721","0.0-102.0","5","1","2025-01-31 18:40:13","838ec4b49f044157bad9e156c8cbc4a3","174.79.1.214","Mozilla/5.0 (Windows NT 10.0; Win64; x64) AppleWebKit/537.36 (KHTML, like Gecko) Chrome/132.0.0.0 Safari/537.36","WebKit","Chrome","132.0.0.0","Windows","10.0","https://app.prolific.com/","en-US,en;q=0.7","63e5257dc5aceb22cee2ddf1","679cf675428f47411a224827","679d18f6b10a7f4fce889c13","","null","<img     src='G_8.jpg' height='90'> <img     src='G_2.jpg' height='90'> <img     src='G_3.jpg' height='90'> <img      src='G_5.jpg' height='90'> <img   src='G_4.jpg' height='90'> <img       src='G_7.jpg' height='90'> <img  src='G_1.jpg' height='90'> <img   src='G_6.jpg' height='90'>","null","Animation1","",""
"","","","","","html-keyboard-response","147","302238","0.0-103.0","5","1","2025-01-31 18:40:13","838ec4b49f044157bad9e156c8cbc4a3","174.79.1.214","Mozilla/5.0 (Windows NT 10.0; Win64; x64) AppleWebKit/537.36 (KHTML, like Gecko) Chrome/132.0.0.0 Safari/537.36","WebKit","Chrome","132.0.0.0","Windows","10.0","https://app.prolific.com/","en-US,en;q=0.7","63e5257dc5aceb22cee2ddf1","679cf675428f47411a224827","679d18f6b10a7f4fce889c13","","null","<img     src='G_8.jpg' height='90'> <img     src='G_2.jpg' height='90'> <img     src='G_3.jpg' height='90'> <img      src='G_5.jpg' height='90'> <img   src='G_4.jpg' height='90'> <img id='selected'       src='G_7.jpg' height='90'> <img  src='G_1.jpg' height='90'> <img   src='G_6.jpg' height='90'>","null","Animation1","",""
"","","","","","html-keyboard-response","148","302754","0.0-104.0","5","1","2025-01-31 18:40:13","838ec4b49f044157bad9e156c8cbc4a3","174.79.1.214","Mozilla/5.0 (Windows NT 10.0; Win64; x64) AppleWebKit/537.36 (KHTML, like Gecko) Chrome/132.0.0.0 Safari/537.36","WebKit","Chrome","132.0.0.0","Windows","10.0","https://app.prolific.com/","en-US,en;q=0.7","63e5257dc5aceb22cee2ddf1","679cf675428f47411a224827","679d18f6b10a7f4fce889c13","","null","<img     src='G_8.jpg' height='90'> <img     src='G_2.jpg' height='90'> <img     src='G_3.jpg' height='90'> <img      src='G_5.jpg' height='90'> <img   src='G_4.jpg' height='90'> <img id='selected'       src='G_7.jpg' height='90'> <img id='selected'  src='G_1.jpg' height='90'> <img   src='G_6.jpg' height='90'>","null","Animation1","",""
"","","","","","html-keyboard-response","149","303272","0.0-105.0","5","1","2025-01-31 18:40:13","838ec4b49f044157bad9e156c8cbc4a3","174.79.1.214","Mozilla/5.0 (Windows NT 10.0; Win64; x64) AppleWebKit/537.36 (KHTML, like Gecko) Chrome/132.0.0.0 Safari/537.36","WebKit","Chrome","132.0.0.0","Windows","10.0","https://app.prolific.com/","en-US,en;q=0.7","63e5257dc5aceb22cee2ddf1","679cf675428f47411a224827","679d18f6b10a7f4fce889c13","","null","<img     src='G_8.jpg' height='90'> <img     src='G_2.jpg' height='90'> <img     src='G_3.jpg' height='90'> <img      src='G_5.jpg' height='90'> <img   src='G_4.jpg' height='90'> <img id='selected'       src='G_7.jpg' height='90'> <img id='selected'  src='G_1.jpg' height='90'> <img   src='G_6.jpg' height='90'>","null","Animation1","",""
"","","","","","html-keyboard-response","150","303588","0.0-106.0","5","1","2025-01-31 18:40:13","838ec4b49f044157bad9e156c8cbc4a3","174.79.1.214","Mozilla/5.0 (Windows NT 10.0; Win64; x64) AppleWebKit/537.36 (KHTML, like Gecko) Chrome/132.0.0.0 Safari/537.36","WebKit","Chrome","132.0.0.0","Windows","10.0","https://app.prolific.com/","en-US,en;q=0.7","63e5257dc5aceb22cee2ddf1","679cf675428f47411a224827","679d18f6b10a7f4fce889c13","","null","<img     src='G_8.jpg' height='90'> <img     src='G_2.jpg' height='90'> <img     src='G_3.jpg' height='90'> <img      src='G_5.jpg' height='90'> <img   src='G_4.jpg' height='90'> <img        src='G_7.jpg' height='90'> <img   src='G_1.jpg' height='90'> <img   src='G_6.jpg' height='90'>","null","Animation1","",""
"","","","","","html-keyboard-response","151","308795","0.0-107.0","5","1","2025-01-31 18:40:13","838ec4b49f044157bad9e156c8cbc4a3","174.79.1.214","Mozilla/5.0 (Windows NT 10.0; Win64; x64) AppleWebKit/537.36 (KHTML, like Gecko) Chrome/132.0.0.0 Safari/537.36","WebKit","Chrome","132.0.0.0","Windows","10.0","https://app.prolific.com/","en-US,en;q=0.7","63e5257dc5aceb22cee2ddf1","679cf675428f47411a224827","679d18f6b10a7f4fce889c13","","5200","[""Did you notice any patterns? <br><br>Press Enter to watch that example again and follow the steps of Omgne Sort.""]","enter","","",""
