"success","timeout","failed_images","failed_audio","failed_video","trial_type","trial_index","time_elapsed","internal_node_id","run_id","condition","recorded_at","source_code_version","ip","user_agent","device","browser","browser_version","platform","platform_version","referer","accept_language","PROLIFIC_PID","STUDY_ID","SESSION_ID","view_history","rt","stimulus","response","phase"
"true","false","[]","[]","[]","preload","0","362","0.0-0.0","10","1","2025-02-02 02:56:16","bc01a2b6f61d06f6604adb8657495020","71.77.28.8","Mozilla/5.0 (Macintosh; Intel Mac OS X 10_15_7) AppleWebKit/605.1.15 (KHTML, like Gecko) Version/18.2 Safari/605.1.15","Macintosh","Safari","18.2","OS X","10_15_7","https://app.prolific.com/","en-US,en;q=0.9","67984b666b7cabdc214cd5f2","679edb085803f58d6bbd31ca","679edec7b9157d482c776885","","","","",""
"","","","","","instructions","1","28302","0.0-1.0","10","1","2025-02-02 02:56:16","bc01a2b6f61d06f6604adb8657495020","71.77.28.8","Mozilla/5.0 (Macintosh; Intel Mac OS X 10_15_7) AppleWebKit/605.1.15 (KHTML, like Gecko) Version/18.2 Safari/605.1.15","Macintosh","Safari","18.2","OS X","10_15_7","https://app.prolific.com/","en-US,en;q=0.9","67984b666b7cabdc214cd5f2","679edb085803f58d6bbd31ca","679edec7b9157d482c776885","[{""page_index"":0,""viewing_time"":27938}]","27939","","",""
"","","","","","html-keyboard-response","2","28804","0.0-2.0","10","1","2025-02-02 02:56:16","bc01a2b6f61d06f6604adb8657495020","71.77.28.8","Mozilla/5.0 (Macintosh; Intel Mac OS X 10_15_7) AppleWebKit/605.1.15 (KHTML, like Gecko) Version/18.2 Safari/605.1.15","Macintosh","Safari","18.2","OS X","10_15_7","https://app.prolific.com/","en-US,en;q=0.9","67984b666b7cabdc214cd5f2","679edb085803f58d6bbd31ca","679edec7b9157d482c776885","","null","<p> + <p/>","null",""
"","","","","","instructions","3","58404","0.0-3.0","10","1","2025-02-02 02:56:16","bc01a2b6f61d06f6604adb8657495020","71.77.28.8","Mozilla/5.0 (Macintosh; Intel Mac OS X 10_15_7) AppleWebKit/605.1.15 (KHTML, like Gecko) Version/18.2 Safari/605.1.15","Macintosh","Safari","18.2","OS X","10_15_7","https://app.prolific.com/","en-US,en;q=0.9","67984b666b7cabdc214cd5f2","679edb085803f58d6bbd31ca","679edec7b9157d482c776885","[{""page_index"":0,""viewing_time"":2813},{""page_index"":1,""viewing_time"":14632},{""page_index"":2,""viewing_time"":6103},{""page_index"":3,""viewing_time"":3065},{""page_index"":4,""viewing_time"":2986}]","29600","","",""
"","","","","","html-button-response","4","75829","0.0-4.0-0.0-0.0","10","1","2025-02-02 02:56:16","bc01a2b6f61d06f6604adb8657495020","71.77.28.8","Mozilla/5.0 (Macintosh; Intel Mac OS X 10_15_7) AppleWebKit/605.1.15 (KHTML, like Gecko) Version/18.2 Safari/605.1.15","Macintosh","Safari","18.2","OS X","10_15_7","https://app.prolific.com/","en-US,en;q=0.9","67984b666b7cabdc214cd5f2","679edb085803f58d6bbd31ca","679edec7b9157d482c776885","","17422","","2","Intro Trial"
"","","","","","html-button-response","5","78030","0.0-4.1-0.1-0.1","10","1","2025-02-02 02:56:16","bc01a2b6f61d06f6604adb8657495020","71.77.28.8","Mozilla/5.0 (Macintosh; Intel Mac OS X 10_15_7) AppleWebKit/605.1.15 (KHTML, like Gecko) Version/18.2 Safari/605.1.15","Macintosh","Safari","18.2","OS X","10_15_7","https://app.prolific.com/","en-US,en;q=0.9","67984b666b7cabdc214cd5f2","679edb085803f58d6bbd31ca","679edec7b9157d482c776885","","2199","","0","Intro Trial"
"","","","","","html-button-response","6","101480","0.0-4.2-0.2-0.2","10","1","2025-02-02 02:56:16","bc01a2b6f61d06f6604adb8657495020","71.77.28.8","Mozilla/5.0 (Macintosh; Intel Mac OS X 10_15_7) AppleWebKit/605.1.15 (KHTML, like Gecko) Version/18.2 Safari/605.1.15","Macintosh","Safari","18.2","OS X","10_15_7","https://app.prolific.com/","en-US,en;q=0.9","67984b666b7cabdc214cd5f2","679edb085803f58d6bbd31ca","679edec7b9157d482c776885","","23448","","0","Intro Trial"
"","","","","","html-button-response","7","102263","0.0-4.3-0.3-0.3","10","1","2025-02-02 02:56:16","bc01a2b6f61d06f6604adb8657495020","71.77.28.8","Mozilla/5.0 (Macintosh; Intel Mac OS X 10_15_7) AppleWebKit/605.1.15 (KHTML, like Gecko) Version/18.2 Safari/605.1.15","Macintosh","Safari","18.2","OS X","10_15_7","https://app.prolific.com/","en-US,en;q=0.9","67984b666b7cabdc214cd5f2","679edb085803f58d6bbd31ca","679edec7b9157d482c776885","","781","","3","Intro Trial"
"","","","","","html-button-response","8","105963","0.0-4.4-0.4-0.4","10","1","2025-02-02 02:56:16","bc01a2b6f61d06f6604adb8657495020","71.77.28.8","Mozilla/5.0 (Macintosh; Intel Mac OS X 10_15_7) AppleWebKit/605.1.15 (KHTML, like Gecko) Version/18.2 Safari/605.1.15","Macintosh","Safari","18.2","OS X","10_15_7","https://app.prolific.com/","en-US,en;q=0.9","67984b666b7cabdc214cd5f2","679edb085803f58d6bbd31ca","679edec7b9157d482c776885","","3698","","0","Intro Trial"
"","","","","","html-button-response","9","106563","0.0-4.5-0.5-0.5","10","1","2025-02-02 02:56:16","bc01a2b6f61d06f6604adb8657495020","71.77.28.8","Mozilla/5.0 (Macintosh; Intel Mac OS X 10_15_7) AppleWebKit/605.1.15 (KHTML, like Gecko) Version/18.2 Safari/605.1.15","Macintosh","Safari","18.2","OS X","10_15_7","https://app.prolific.com/","en-US,en;q=0.9","67984b666b7cabdc214cd5f2","679edb085803f58d6bbd31ca","679edec7b9157d482c776885","","598","","3","Intro Trial"
"","","","","","html-button-response","10","107597","0.0-4.6-0.6-0.6","10","1","2025-02-02 02:56:16","bc01a2b6f61d06f6604adb8657495020","71.77.28.8","Mozilla/5.0 (Macintosh; Intel Mac OS X 10_15_7) AppleWebKit/605.1.15 (KHTML, like Gecko) Version/18.2 Safari/605.1.15","Macintosh","Safari","18.2","OS X","10_15_7","https://app.prolific.com/","en-US,en;q=0.9","67984b666b7cabdc214cd5f2","679edb085803f58d6bbd31ca","679edec7b9157d482c776885","","1031","","0","Intro Trial"
"","","","","","html-button-response","11","108196","0.0-4.7-0.7-0.7","10","1","2025-02-02 02:56:16","bc01a2b6f61d06f6604adb8657495020","71.77.28.8","Mozilla/5.0 (Macintosh; Intel Mac OS X 10_15_7) AppleWebKit/605.1.15 (KHTML, like Gecko) Version/18.2 Safari/605.1.15","Macintosh","Safari","18.2","OS X","10_15_7","https://app.prolific.com/","en-US,en;q=0.9","67984b666b7cabdc214cd5f2","679edb085803f58d6bbd31ca","679edec7b9157d482c776885","","596","","3","Intro Trial"
"","","","","","html-button-response","12","111196","0.0-4.8-0.8-0.8","10","1","2025-02-02 02:56:16","bc01a2b6f61d06f6604adb8657495020","71.77.28.8","Mozilla/5.0 (Macintosh; Intel Mac OS X 10_15_7) AppleWebKit/605.1.15 (KHTML, like Gecko) Version/18.2 Safari/605.1.15","Macintosh","Safari","18.2","OS X","10_15_7","https://app.prolific.com/","en-US,en;q=0.9","67984b666b7cabdc214cd5f2","679edb085803f58d6bbd31ca","679edec7b9157d482c776885","","2997","","5","Intro Trial"
"","","","","","html-keyboard-response","13","122804","0.0-5.0","10","1","2025-02-02 02:56:16","bc01a2b6f61d06f6604adb8657495020","71.77.28.8","Mozilla/5.0 (Macintosh; Intel Mac OS X 10_15_7) AppleWebKit/605.1.15 (KHTML, like Gecko) Version/18.2 Safari/605.1.15","Macintosh","Safari","18.2","OS X","10_15_7","https://app.prolific.com/","en-US,en;q=0.9","67984b666b7cabdc214cd5f2","679edb085803f58d6bbd31ca","679edec7b9157d482c776885","","11606","[""You sorted incorrectly by using the balance 4 times. <br><br> <img src='G_3.jpg' height='90'><img src='G_2.jpg' height='90'><img src='G_1.jpg' height='90'><img src='G_4.jpg' height='90'><img src='G_5.jpg' height='90'><br><br> Your final order is 3,2,4,5,1<br><br><br>Omgne Sort in this game will allow you to sort correctly by using the balance 8 times. Press Enter to learn it!""]","enter",""
"","","","","","html-keyboard-response","14","124315","0.0-6.0","10","1","2025-02-02 02:56:16","bc01a2b6f61d06f6604adb8657495020","71.77.28.8","Mozilla/5.0 (Macintosh; Intel Mac OS X 10_15_7) AppleWebKit/605.1.15 (KHTML, like Gecko) Version/18.2 Safari/605.1.15","Macintosh","Safari","18.2","OS X","10_15_7","https://app.prolific.com/","en-US,en;q=0.9","67984b666b7cabdc214cd5f2","679edb085803f58d6bbd31ca","679edec7b9157d482c776885","","1508","<p>Welcome to the learning phase! <br><br> You will learn by six examples. The following learning trials will not be used to calculate your performance. <br><br> Press Enter to continue.<p/>","enter",""
"","","","","","html-keyboard-response","15","126869","0.0-7.0","10","1","2025-02-02 02:56:16","bc01a2b6f61d06f6604adb8657495020","71.77.28.8","Mozilla/5.0 (Macintosh; Intel Mac OS X 10_15_7) AppleWebKit/605.1.15 (KHTML, like Gecko) Version/18.2 Safari/605.1.15","Macintosh","Safari","18.2","OS X","10_15_7","https://app.prolific.com/","en-US,en;q=0.9","67984b666b7cabdc214cd5f2","679edb085803f58d6bbd31ca","679edec7b9157d482c776885","","2552","[""Example 1<br><br>You will watch Omnge Sort in action. Try to identify any patterns in the comparisons made by this method. <br><br>Press Enter to continue.""]","enter",""
"","","","","","html-keyboard-response","16","127373","0.0-8.0","10","1","2025-02-02 02:56:16","bc01a2b6f61d06f6604adb8657495020","71.77.28.8","Mozilla/5.0 (Macintosh; Intel Mac OS X 10_15_7) AppleWebKit/605.1.15 (KHTML, like Gecko) Version/18.2 Safari/605.1.15","Macintosh","Safari","18.2","OS X","10_15_7","https://app.prolific.com/","en-US,en;q=0.9","67984b666b7cabdc214cd5f2","679edb085803f58d6bbd31ca","679edec7b9157d482c776885","","null","<img id='selected' src='G_3.jpg' height='90'> <img src='G_9.jpg' height='90'> <img src='G_5.jpg' height='90'> <img src='G_7.jpg' height='90'> <img src='G_1.jpg' height='90'>","null","Animation0"
"","","","","","html-keyboard-response","17","127878","0.0-9.0","10","1","2025-02-02 02:56:16","bc01a2b6f61d06f6604adb8657495020","71.77.28.8","Mozilla/5.0 (Macintosh; Intel Mac OS X 10_15_7) AppleWebKit/605.1.15 (KHTML, like Gecko) Version/18.2 Safari/605.1.15","Macintosh","Safari","18.2","OS X","10_15_7","https://app.prolific.com/","en-US,en;q=0.9","67984b666b7cabdc214cd5f2","679edb085803f58d6bbd31ca","679edec7b9157d482c776885","","null","<img id='selected' src='G_3.jpg' height='90'> <img id='selected' src='G_9.jpg' height='90'> <img src='G_5.jpg' height='90'> <img src='G_7.jpg' height='90'> <img src='G_1.jpg' height='90'>","null","Animation0"
"","","","","","html-keyboard-response","18","128383","0.0-10.0","10","1","2025-02-02 02:56:16","bc01a2b6f61d06f6604adb8657495020","71.77.28.8","Mozilla/5.0 (Macintosh; Intel Mac OS X 10_15_7) AppleWebKit/605.1.15 (KHTML, like Gecko) Version/18.2 Safari/605.1.15","Macintosh","Safari","18.2","OS X","10_15_7","https://app.prolific.com/","en-US,en;q=0.9","67984b666b7cabdc214cd5f2","679edb085803f58d6bbd31ca","679edec7b9157d482c776885","","null","<img id='swapped' src='G_9.jpg' height='90'> <img id='swapped' src='G_3.jpg' height='90'> <img src='G_5.jpg' height='90'> <img src='G_7.jpg' height='90'> <img src='G_1.jpg' height='90'>","null","Animation0"
"","","","","","html-keyboard-response","19","128687","0.0-11.0","10","1","2025-02-02 02:56:16","bc01a2b6f61d06f6604adb8657495020","71.77.28.8","Mozilla/5.0 (Macintosh; Intel Mac OS X 10_15_7) AppleWebKit/605.1.15 (KHTML, like Gecko) Version/18.2 Safari/605.1.15","Macintosh","Safari","18.2","OS X","10_15_7","https://app.prolific.com/","en-US,en;q=0.9","67984b666b7cabdc214cd5f2","679edb085803f58d6bbd31ca","679edec7b9157d482c776885","","null","<img  src='G_9.jpg' height='90'> <img  src='G_3.jpg' height='90'> <img src='G_5.jpg' height='90'> <img src='G_7.jpg' height='90'> <img src='G_1.jpg' height='90'>","null","Animation0"
"","","","","","html-keyboard-response","20","129192","0.0-12.0","10","1","2025-02-02 02:56:16","bc01a2b6f61d06f6604adb8657495020","71.77.28.8","Mozilla/5.0 (Macintosh; Intel Mac OS X 10_15_7) AppleWebKit/605.1.15 (KHTML, like Gecko) Version/18.2 Safari/605.1.15","Macintosh","Safari","18.2","OS X","10_15_7","https://app.prolific.com/","en-US,en;q=0.9","67984b666b7cabdc214cd5f2","679edb085803f58d6bbd31ca","679edec7b9157d482c776885","","null","<img  src='G_9.jpg' height='90'> <img id='selected'  src='G_3.jpg' height='90'> <img src='G_5.jpg' height='90'> <img src='G_7.jpg' height='90'> <img src='G_1.jpg' height='90'>","null","Animation0"
"","","","","","html-keyboard-response","21","129696","0.0-13.0","10","1","2025-02-02 02:56:16","bc01a2b6f61d06f6604adb8657495020","71.77.28.8","Mozilla/5.0 (Macintosh; Intel Mac OS X 10_15_7) AppleWebKit/605.1.15 (KHTML, like Gecko) Version/18.2 Safari/605.1.15","Macintosh","Safari","18.2","OS X","10_15_7","https://app.prolific.com/","en-US,en;q=0.9","67984b666b7cabdc214cd5f2","679edb085803f58d6bbd31ca","679edec7b9157d482c776885","","null","<img  src='G_9.jpg' height='90'> <img id='selected'  src='G_3.jpg' height='90'> <img id='selected' src='G_5.jpg' height='90'> <img src='G_7.jpg' height='90'> <img src='G_1.jpg' height='90'>","null","Animation0"
"","","","","","html-keyboard-response","22","130200","0.0-14.0","10","1","2025-02-02 02:56:16","bc01a2b6f61d06f6604adb8657495020","71.77.28.8","Mozilla/5.0 (Macintosh; Intel Mac OS X 10_15_7) AppleWebKit/605.1.15 (KHTML, like Gecko) Version/18.2 Safari/605.1.15","Macintosh","Safari","18.2","OS X","10_15_7","https://app.prolific.com/","en-US,en;q=0.9","67984b666b7cabdc214cd5f2","679edb085803f58d6bbd31ca","679edec7b9157d482c776885","","null","<img  src='G_9.jpg' height='90'> <img id='selected'  src='G_3.jpg' height='90'> <img id='selected' src='G_5.jpg' height='90'> <img src='G_7.jpg' height='90'> <img src='G_1.jpg' height='90'>","null","Animation0"
"","","","","","html-keyboard-response","23","130505","0.0-15.0","10","1","2025-02-02 02:56:16","bc01a2b6f61d06f6604adb8657495020","71.77.28.8","Mozilla/5.0 (Macintosh; Intel Mac OS X 10_15_7) AppleWebKit/605.1.15 (KHTML, like Gecko) Version/18.2 Safari/605.1.15","Macintosh","Safari","18.2","OS X","10_15_7","https://app.prolific.com/","en-US,en;q=0.9","67984b666b7cabdc214cd5f2","679edb085803f58d6bbd31ca","679edec7b9157d482c776885","","null","<img  src='G_9.jpg' height='90'> <img   src='G_3.jpg' height='90'> <img  src='G_5.jpg' height='90'> <img src='G_7.jpg' height='90'> <img src='G_1.jpg' height='90'>","null","Animation0"
"","","","","","html-keyboard-response","24","131009","0.0-16.0","10","1","2025-02-02 02:56:16","bc01a2b6f61d06f6604adb8657495020","71.77.28.8","Mozilla/5.0 (Macintosh; Intel Mac OS X 10_15_7) AppleWebKit/605.1.15 (KHTML, like Gecko) Version/18.2 Safari/605.1.15","Macintosh","Safari","18.2","OS X","10_15_7","https://app.prolific.com/","en-US,en;q=0.9","67984b666b7cabdc214cd5f2","679edb085803f58d6bbd31ca","679edec7b9157d482c776885","","null","<img  src='G_9.jpg' height='90'> <img   src='G_3.jpg' height='90'> <img id='selected'  src='G_5.jpg' height='90'> <img src='G_7.jpg' height='90'> <img src='G_1.jpg' height='90'>","null","Animation0"
"","","","","","html-keyboard-response","25","131514","0.0-17.0","10","1","2025-02-02 02:56:16","bc01a2b6f61d06f6604adb8657495020","71.77.28.8","Mozilla/5.0 (Macintosh; Intel Mac OS X 10_15_7) AppleWebKit/605.1.15 (KHTML, like Gecko) Version/18.2 Safari/605.1.15","Macintosh","Safari","18.2","OS X","10_15_7","https://app.prolific.com/","en-US,en;q=0.9","67984b666b7cabdc214cd5f2","679edb085803f58d6bbd31ca","679edec7b9157d482c776885","","null","<img  src='G_9.jpg' height='90'> <img   src='G_3.jpg' height='90'> <img id='selected'  src='G_5.jpg' height='90'> <img id='selected' src='G_7.jpg' height='90'> <img src='G_1.jpg' height='90'>","null","Animation0"
"","","","","","html-keyboard-response","26","132019","0.0-18.0","10","1","2025-02-02 02:56:16","bc01a2b6f61d06f6604adb8657495020","71.77.28.8","Mozilla/5.0 (Macintosh; Intel Mac OS X 10_15_7) AppleWebKit/605.1.15 (KHTML, like Gecko) Version/18.2 Safari/605.1.15","Macintosh","Safari","18.2","OS X","10_15_7","https://app.prolific.com/","en-US,en;q=0.9","67984b666b7cabdc214cd5f2","679edb085803f58d6bbd31ca","679edec7b9157d482c776885","","null","<img  src='G_9.jpg' height='90'> <img   src='G_3.jpg' height='90'> <img id='selected'  src='G_5.jpg' height='90'> <img id='selected' src='G_7.jpg' height='90'> <img src='G_1.jpg' height='90'>","null","Animation0"
"","","","","","html-keyboard-response","27","132323","0.0-19.0","10","1","2025-02-02 02:56:16","bc01a2b6f61d06f6604adb8657495020","71.77.28.8","Mozilla/5.0 (Macintosh; Intel Mac OS X 10_15_7) AppleWebKit/605.1.15 (KHTML, like Gecko) Version/18.2 Safari/605.1.15","Macintosh","Safari","18.2","OS X","10_15_7","https://app.prolific.com/","en-US,en;q=0.9","67984b666b7cabdc214cd5f2","679edb085803f58d6bbd31ca","679edec7b9157d482c776885","","null","<img  src='G_9.jpg' height='90'> <img   src='G_3.jpg' height='90'> <img   src='G_5.jpg' height='90'> <img  src='G_7.jpg' height='90'> <img src='G_1.jpg' height='90'>","null","Animation0"
"","","","","","html-keyboard-response","28","132828","0.0-20.0","10","1","2025-02-02 02:56:16","bc01a2b6f61d06f6604adb8657495020","71.77.28.8","Mozilla/5.0 (Macintosh; Intel Mac OS X 10_15_7) AppleWebKit/605.1.15 (KHTML, like Gecko) Version/18.2 Safari/605.1.15","Macintosh","Safari","18.2","OS X","10_15_7","https://app.prolific.com/","en-US,en;q=0.9","67984b666b7cabdc214cd5f2","679edb085803f58d6bbd31ca","679edec7b9157d482c776885","","null","<img  src='G_9.jpg' height='90'> <img   src='G_3.jpg' height='90'> <img   src='G_5.jpg' height='90'> <img id='selected'  src='G_7.jpg' height='90'> <img src='G_1.jpg' height='90'>","null","Animation0"
"","","","","","html-keyboard-response","29","133332","0.0-21.0","10","1","2025-02-02 02:56:16","bc01a2b6f61d06f6604adb8657495020","71.77.28.8","Mozilla/5.0 (Macintosh; Intel Mac OS X 10_15_7) AppleWebKit/605.1.15 (KHTML, like Gecko) Version/18.2 Safari/605.1.15","Macintosh","Safari","18.2","OS X","10_15_7","https://app.prolific.com/","en-US,en;q=0.9","67984b666b7cabdc214cd5f2","679edb085803f58d6bbd31ca","679edec7b9157d482c776885","","null","<img  src='G_9.jpg' height='90'> <img   src='G_3.jpg' height='90'> <img   src='G_5.jpg' height='90'> <img id='selected'  src='G_7.jpg' height='90'> <img id='selected' src='G_1.jpg' height='90'>","null","Animation0"
"","","","","","html-keyboard-response","30","133837","0.0-22.0","10","1","2025-02-02 02:56:16","bc01a2b6f61d06f6604adb8657495020","71.77.28.8","Mozilla/5.0 (Macintosh; Intel Mac OS X 10_15_7) AppleWebKit/605.1.15 (KHTML, like Gecko) Version/18.2 Safari/605.1.15","Macintosh","Safari","18.2","OS X","10_15_7","https://app.prolific.com/","en-US,en;q=0.9","67984b666b7cabdc214cd5f2","679edb085803f58d6bbd31ca","679edec7b9157d482c776885","","null","<img  src='G_9.jpg' height='90'> <img   src='G_3.jpg' height='90'> <img   src='G_5.jpg' height='90'> <img id='selected'  src='G_7.jpg' height='90'> <img id='selected' src='G_1.jpg' height='90'>","null","Animation0"
"","","","","","html-keyboard-response","31","134142","0.0-23.0","10","1","2025-02-02 02:56:16","bc01a2b6f61d06f6604adb8657495020","71.77.28.8","Mozilla/5.0 (Macintosh; Intel Mac OS X 10_15_7) AppleWebKit/605.1.15 (KHTML, like Gecko) Version/18.2 Safari/605.1.15","Macintosh","Safari","18.2","OS X","10_15_7","https://app.prolific.com/","en-US,en;q=0.9","67984b666b7cabdc214cd5f2","679edb085803f58d6bbd31ca","679edec7b9157d482c776885","","null","<img  src='G_9.jpg' height='90'> <img   src='G_3.jpg' height='90'> <img   src='G_5.jpg' height='90'> <img   src='G_7.jpg' height='90'> <img  src='G_1.jpg' height='90'>","null","Animation0"
"","","","","","html-keyboard-response","32","135735","0.0-24.0","10","1","2025-02-02 02:56:16","bc01a2b6f61d06f6604adb8657495020","71.77.28.8","Mozilla/5.0 (Macintosh; Intel Mac OS X 10_15_7) AppleWebKit/605.1.15 (KHTML, like Gecko) Version/18.2 Safari/605.1.15","Macintosh","Safari","18.2","OS X","10_15_7","https://app.prolific.com/","en-US,en;q=0.9","67984b666b7cabdc214cd5f2","679edb085803f58d6bbd31ca","679edec7b9157d482c776885","","1591","[""Did you notice any patterns? <br><br>Press Enter to watch that example again and follow the steps of Omgne Sort.""]","enter",""
"","","","","","html-button-response","33","136141","0.0-25.0","10","1","2025-02-02 02:56:16","bc01a2b6f61d06f6604adb8657495020","71.77.28.8","Mozilla/5.0 (Macintosh; Intel Mac OS X 10_15_7) AppleWebKit/605.1.15 (KHTML, like Gecko) Version/18.2 Safari/605.1.15","Macintosh","Safari","18.2","OS X","10_15_7","https://app.prolific.com/","en-US,en;q=0.9","67984b666b7cabdc214cd5f2","679edb085803f58d6bbd31ca","679edec7b9157d482c776885","","null","<img id='selected' src='G_3.jpg' height='90'> <img src='G_9.jpg' height='90'> <img src='G_5.jpg' height='90'> <img src='G_7.jpg' height='90'> <img src='G_1.jpg' height='90'>","null","Learning example 0"
"","","","","","html-button-response","34","136446","0.0-26.0","10","1","2025-02-02 02:56:16","bc01a2b6f61d06f6604adb8657495020","71.77.28.8","Mozilla/5.0 (Macintosh; Intel Mac OS X 10_15_7) AppleWebKit/605.1.15 (KHTML, like Gecko) Version/18.2 Safari/605.1.15","Macintosh","Safari","18.2","OS X","10_15_7","https://app.prolific.com/","en-US,en;q=0.9","67984b666b7cabdc214cd5f2","679edb085803f58d6bbd31ca","679edec7b9157d482c776885","","null","<img id='selected' src='G_3.jpg' height='90'> <img id='selected' src='G_9.jpg' height='90'> <img src='G_5.jpg' height='90'> <img src='G_7.jpg' height='90'> <img src='G_1.jpg' height='90'>","null","Learning example 0"
"","","","","","html-button-response","35","136751","0.0-27.0","10","1","2025-02-02 02:56:16","bc01a2b6f61d06f6604adb8657495020","71.77.28.8","Mozilla/5.0 (Macintosh; Intel Mac OS X 10_15_7) AppleWebKit/605.1.15 (KHTML, like Gecko) Version/18.2 Safari/605.1.15","Macintosh","Safari","18.2","OS X","10_15_7","https://app.prolific.com/","en-US,en;q=0.9","67984b666b7cabdc214cd5f2","679edb085803f58d6bbd31ca","679edec7b9157d482c776885","","null","<img id='swapped' src='G_9.jpg' height='90'> <img id='swapped' src='G_3.jpg' height='90'> <img src='G_5.jpg' height='90'> <img src='G_7.jpg' height='90'> <img src='G_1.jpg' height='90'>","null","Learning example 0"
"","","","","","html-button-response","36","153346","0.0-28.0-0.0-0.0","10","1","2025-02-02 02:56:16","bc01a2b6f61d06f6604adb8657495020","71.77.28.8","Mozilla/5.0 (Macintosh; Intel Mac OS X 10_15_7) AppleWebKit/605.1.15 (KHTML, like Gecko) Version/18.2 Safari/605.1.15","Macintosh","Safari","18.2","OS X","10_15_7","https://app.prolific.com/","en-US,en;q=0.9","67984b666b7cabdc214cd5f2","679edb085803f58d6bbd31ca","679edec7b9157d482c776885","","16591","<img id='swapped' src='G_9.jpg' height='90'> <img id='swapped' src='G_3.jpg' height='90'> <img src='G_5.jpg' height='90'> <img src='G_7.jpg' height='90'> <img src='G_1.jpg' height='90'>","1","Learning example 0"
"","","","","","html-button-response","37","153713","0.0-28.1-0.1-0.1","10","1","2025-02-02 02:56:16","bc01a2b6f61d06f6604adb8657495020","71.77.28.8","Mozilla/5.0 (Macintosh; Intel Mac OS X 10_15_7) AppleWebKit/605.1.15 (KHTML, like Gecko) Version/18.2 Safari/605.1.15","Macintosh","Safari","18.2","OS X","10_15_7","https://app.prolific.com/","en-US,en;q=0.9","67984b666b7cabdc214cd5f2","679edb085803f58d6bbd31ca","679edec7b9157d482c776885","","364","<img id='swapped' src='G_9.jpg' height='90'> <img id='swapped' src='G_3.jpg' height='90'> <img src='G_5.jpg' height='90'> <img src='G_7.jpg' height='90'> <img src='G_1.jpg' height='90'>","0","Learning example 0"
"","","","","","html-button-response","38","153917","0.0-29.0","10","1","2025-02-02 02:56:16","bc01a2b6f61d06f6604adb8657495020","71.77.28.8","Mozilla/5.0 (Macintosh; Intel Mac OS X 10_15_7) AppleWebKit/605.1.15 (KHTML, like Gecko) Version/18.2 Safari/605.1.15","Macintosh","Safari","18.2","OS X","10_15_7","https://app.prolific.com/","en-US,en;q=0.9","67984b666b7cabdc214cd5f2","679edb085803f58d6bbd31ca","679edec7b9157d482c776885","","null","<img  src='G_9.jpg' height='90'> <img  src='G_3.jpg' height='90'> <img src='G_5.jpg' height='90'> <img src='G_7.jpg' height='90'> <img src='G_1.jpg' height='90'>","null","Learning example 0"
"","","","","","html-button-response","39","154322","0.0-30.0","10","1","2025-02-02 02:56:16","bc01a2b6f61d06f6604adb8657495020","71.77.28.8","Mozilla/5.0 (Macintosh; Intel Mac OS X 10_15_7) AppleWebKit/605.1.15 (KHTML, like Gecko) Version/18.2 Safari/605.1.15","Macintosh","Safari","18.2","OS X","10_15_7","https://app.prolific.com/","en-US,en;q=0.9","67984b666b7cabdc214cd5f2","679edb085803f58d6bbd31ca","679edec7b9157d482c776885","","null","<img  src='G_9.jpg' height='90'> <img id='selected'  src='G_3.jpg' height='90'> <img src='G_5.jpg' height='90'> <img src='G_7.jpg' height='90'> <img src='G_1.jpg' height='90'>","null","Learning example 0"
"","","","","","html-button-response","40","154626","0.0-31.0","10","1","2025-02-02 02:56:16","bc01a2b6f61d06f6604adb8657495020","71.77.28.8","Mozilla/5.0 (Macintosh; Intel Mac OS X 10_15_7) AppleWebKit/605.1.15 (KHTML, like Gecko) Version/18.2 Safari/605.1.15","Macintosh","Safari","18.2","OS X","10_15_7","https://app.prolific.com/","en-US,en;q=0.9","67984b666b7cabdc214cd5f2","679edb085803f58d6bbd31ca","679edec7b9157d482c776885","","null","<img  src='G_9.jpg' height='90'> <img id='selected'  src='G_3.jpg' height='90'> <img id='selected' src='G_5.jpg' height='90'> <img src='G_7.jpg' height='90'> <img src='G_1.jpg' height='90'>","null","Learning example 0"
"","","","","","html-button-response","41","154931","0.0-32.0","10","1","2025-02-02 02:56:16","bc01a2b6f61d06f6604adb8657495020","71.77.28.8","Mozilla/5.0 (Macintosh; Intel Mac OS X 10_15_7) AppleWebKit/605.1.15 (KHTML, like Gecko) Version/18.2 Safari/605.1.15","Macintosh","Safari","18.2","OS X","10_15_7","https://app.prolific.com/","en-US,en;q=0.9","67984b666b7cabdc214cd5f2","679edb085803f58d6bbd31ca","679edec7b9157d482c776885","","null","<img  src='G_9.jpg' height='90'> <img id='selected'  src='G_3.jpg' height='90'> <img id='selected' src='G_5.jpg' height='90'> <img src='G_7.jpg' height='90'> <img src='G_1.jpg' height='90'>","null","Learning example 0"
"","","","","","html-button-response","42","158663","0.0-33.0-0.0-0.0","10","1","2025-02-02 02:56:16","bc01a2b6f61d06f6604adb8657495020","71.77.28.8","Mozilla/5.0 (Macintosh; Intel Mac OS X 10_15_7) AppleWebKit/605.1.15 (KHTML, like Gecko) Version/18.2 Safari/605.1.15","Macintosh","Safari","18.2","OS X","10_15_7","https://app.prolific.com/","en-US,en;q=0.9","67984b666b7cabdc214cd5f2","679edb085803f58d6bbd31ca","679edec7b9157d482c776885","","3728","<img  src='G_9.jpg' height='90'> <img id='selected'  src='G_3.jpg' height='90'> <img id='selected' src='G_5.jpg' height='90'> <img src='G_7.jpg' height='90'> <img src='G_1.jpg' height='90'>","1","Learning example 0"
"","","","","","html-button-response","43","159063","0.0-33.1-0.1-0.1","10","1","2025-02-02 02:56:16","bc01a2b6f61d06f6604adb8657495020","71.77.28.8","Mozilla/5.0 (Macintosh; Intel Mac OS X 10_15_7) AppleWebKit/605.1.15 (KHTML, like Gecko) Version/18.2 Safari/605.1.15","Macintosh","Safari","18.2","OS X","10_15_7","https://app.prolific.com/","en-US,en;q=0.9","67984b666b7cabdc214cd5f2","679edb085803f58d6bbd31ca","679edec7b9157d482c776885","","396","<img  src='G_9.jpg' height='90'> <img id='selected'  src='G_3.jpg' height='90'> <img id='selected' src='G_5.jpg' height='90'> <img src='G_7.jpg' height='90'> <img src='G_1.jpg' height='90'>","2","Learning example 0"
"","","","","","html-button-response","44","159267","0.0-34.0","10","1","2025-02-02 02:56:16","bc01a2b6f61d06f6604adb8657495020","71.77.28.8","Mozilla/5.0 (Macintosh; Intel Mac OS X 10_15_7) AppleWebKit/605.1.15 (KHTML, like Gecko) Version/18.2 Safari/605.1.15","Macintosh","Safari","18.2","OS X","10_15_7","https://app.prolific.com/","en-US,en;q=0.9","67984b666b7cabdc214cd5f2","679edb085803f58d6bbd31ca","679edec7b9157d482c776885","","null","<img  src='G_9.jpg' height='90'> <img   src='G_3.jpg' height='90'> <img  src='G_5.jpg' height='90'> <img src='G_7.jpg' height='90'> <img src='G_1.jpg' height='90'>","null","Learning example 0"
"","","","","","html-button-response","45","159670","0.0-35.0","10","1","2025-02-02 02:56:16","bc01a2b6f61d06f6604adb8657495020","71.77.28.8","Mozilla/5.0 (Macintosh; Intel Mac OS X 10_15_7) AppleWebKit/605.1.15 (KHTML, like Gecko) Version/18.2 Safari/605.1.15","Macintosh","Safari","18.2","OS X","10_15_7","https://app.prolific.com/","en-US,en;q=0.9","67984b666b7cabdc214cd5f2","679edb085803f58d6bbd31ca","679edec7b9157d482c776885","","null","<img  src='G_9.jpg' height='90'> <img   src='G_3.jpg' height='90'> <img id='selected'  src='G_5.jpg' height='90'> <img src='G_7.jpg' height='90'> <img src='G_1.jpg' height='90'>","null","Learning example 0"
"","","","","","html-button-response","46","159973","0.0-36.0","10","1","2025-02-02 02:56:16","bc01a2b6f61d06f6604adb8657495020","71.77.28.8","Mozilla/5.0 (Macintosh; Intel Mac OS X 10_15_7) AppleWebKit/605.1.15 (KHTML, like Gecko) Version/18.2 Safari/605.1.15","Macintosh","Safari","18.2","OS X","10_15_7","https://app.prolific.com/","en-US,en;q=0.9","67984b666b7cabdc214cd5f2","679edb085803f58d6bbd31ca","679edec7b9157d482c776885","","null","<img  src='G_9.jpg' height='90'> <img   src='G_3.jpg' height='90'> <img id='selected'  src='G_5.jpg' height='90'> <img id='selected' src='G_7.jpg' height='90'> <img src='G_1.jpg' height='90'>","null","Learning example 0"
"","","","","","html-button-response","47","160277","0.0-37.0","10","1","2025-02-02 02:56:16","bc01a2b6f61d06f6604adb8657495020","71.77.28.8","Mozilla/5.0 (Macintosh; Intel Mac OS X 10_15_7) AppleWebKit/605.1.15 (KHTML, like Gecko) Version/18.2 Safari/605.1.15","Macintosh","Safari","18.2","OS X","10_15_7","https://app.prolific.com/","en-US,en;q=0.9","67984b666b7cabdc214cd5f2","679edb085803f58d6bbd31ca","679edec7b9157d482c776885","","null","<img  src='G_9.jpg' height='90'> <img   src='G_3.jpg' height='90'> <img id='selected'  src='G_5.jpg' height='90'> <img id='selected' src='G_7.jpg' height='90'> <img src='G_1.jpg' height='90'>","null","Learning example 0"
"","","","","","html-button-response","48","160651","0.0-38.0-0.0-0.0","10","1","2025-02-02 02:56:16","bc01a2b6f61d06f6604adb8657495020","71.77.28.8","Mozilla/5.0 (Macintosh; Intel Mac OS X 10_15_7) AppleWebKit/605.1.15 (KHTML, like Gecko) Version/18.2 Safari/605.1.15","Macintosh","Safari","18.2","OS X","10_15_7","https://app.prolific.com/","en-US,en;q=0.9","67984b666b7cabdc214cd5f2","679edb085803f58d6bbd31ca","679edec7b9157d482c776885","","372","<img  src='G_9.jpg' height='90'> <img   src='G_3.jpg' height='90'> <img id='selected'  src='G_5.jpg' height='90'> <img id='selected' src='G_7.jpg' height='90'> <img src='G_1.jpg' height='90'>","2","Learning example 0"
"","","","","","html-button-response","49","161063","0.0-38.1-0.1-0.1","10","1","2025-02-02 02:56:16","bc01a2b6f61d06f6604adb8657495020","71.77.28.8","Mozilla/5.0 (Macintosh; Intel Mac OS X 10_15_7) AppleWebKit/605.1.15 (KHTML, like Gecko) Version/18.2 Safari/605.1.15","Macintosh","Safari","18.2","OS X","10_15_7","https://app.prolific.com/","en-US,en;q=0.9","67984b666b7cabdc214cd5f2","679edb085803f58d6bbd31ca","679edec7b9157d482c776885","","409","<img  src='G_9.jpg' height='90'> <img   src='G_3.jpg' height='90'> <img id='selected'  src='G_5.jpg' height='90'> <img id='selected' src='G_7.jpg' height='90'> <img src='G_1.jpg' height='90'>","3","Learning example 0"
"","","","","","html-button-response","50","161266","0.0-39.0","10","1","2025-02-02 02:56:16","bc01a2b6f61d06f6604adb8657495020","71.77.28.8","Mozilla/5.0 (Macintosh; Intel Mac OS X 10_15_7) AppleWebKit/605.1.15 (KHTML, like Gecko) Version/18.2 Safari/605.1.15","Macintosh","Safari","18.2","OS X","10_15_7","https://app.prolific.com/","en-US,en;q=0.9","67984b666b7cabdc214cd5f2","679edb085803f58d6bbd31ca","679edec7b9157d482c776885","","null","<img  src='G_9.jpg' height='90'> <img   src='G_3.jpg' height='90'> <img   src='G_5.jpg' height='90'> <img  src='G_7.jpg' height='90'> <img src='G_1.jpg' height='90'>","null","Learning example 0"
"","","","","","html-button-response","51","161675","0.0-40.0","10","1","2025-02-02 02:56:16","bc01a2b6f61d06f6604adb8657495020","71.77.28.8","Mozilla/5.0 (Macintosh; Intel Mac OS X 10_15_7) AppleWebKit/605.1.15 (KHTML, like Gecko) Version/18.2 Safari/605.1.15","Macintosh","Safari","18.2","OS X","10_15_7","https://app.prolific.com/","en-US,en;q=0.9","67984b666b7cabdc214cd5f2","679edb085803f58d6bbd31ca","679edec7b9157d482c776885","","null","<img  src='G_9.jpg' height='90'> <img   src='G_3.jpg' height='90'> <img   src='G_5.jpg' height='90'> <img id='selected'  src='G_7.jpg' height='90'> <img src='G_1.jpg' height='90'>","null","Learning example 0"
"","","","","","html-button-response","52","161980","0.0-41.0","10","1","2025-02-02 02:56:16","bc01a2b6f61d06f6604adb8657495020","71.77.28.8","Mozilla/5.0 (Macintosh; Intel Mac OS X 10_15_7) AppleWebKit/605.1.15 (KHTML, like Gecko) Version/18.2 Safari/605.1.15","Macintosh","Safari","18.2","OS X","10_15_7","https://app.prolific.com/","en-US,en;q=0.9","67984b666b7cabdc214cd5f2","679edb085803f58d6bbd31ca","679edec7b9157d482c776885","","null","<img  src='G_9.jpg' height='90'> <img   src='G_3.jpg' height='90'> <img   src='G_5.jpg' height='90'> <img id='selected'  src='G_7.jpg' height='90'> <img id='selected' src='G_1.jpg' height='90'>","null","Learning example 0"
"","","","","","html-button-response","53","162285","0.0-42.0","10","1","2025-02-02 02:56:16","bc01a2b6f61d06f6604adb8657495020","71.77.28.8","Mozilla/5.0 (Macintosh; Intel Mac OS X 10_15_7) AppleWebKit/605.1.15 (KHTML, like Gecko) Version/18.2 Safari/605.1.15","Macintosh","Safari","18.2","OS X","10_15_7","https://app.prolific.com/","en-US,en;q=0.9","67984b666b7cabdc214cd5f2","679edb085803f58d6bbd31ca","679edec7b9157d482c776885","","null","<img  src='G_9.jpg' height='90'> <img   src='G_3.jpg' height='90'> <img   src='G_5.jpg' height='90'> <img id='selected'  src='G_7.jpg' height='90'> <img id='selected' src='G_1.jpg' height='90'>","null","Learning example 0"
"","","","","","html-button-response","54","162562","0.0-43.0-0.0-0.0","10","1","2025-02-02 02:56:16","bc01a2b6f61d06f6604adb8657495020","71.77.28.8","Mozilla/5.0 (Macintosh; Intel Mac OS X 10_15_7) AppleWebKit/605.1.15 (KHTML, like Gecko) Version/18.2 Safari/605.1.15","Macintosh","Safari","18.2","OS X","10_15_7","https://app.prolific.com/","en-US,en;q=0.9","67984b666b7cabdc214cd5f2","679edb085803f58d6bbd31ca","679edec7b9157d482c776885","","273","<img  src='G_9.jpg' height='90'> <img   src='G_3.jpg' height='90'> <img   src='G_5.jpg' height='90'> <img id='selected'  src='G_7.jpg' height='90'> <img id='selected' src='G_1.jpg' height='90'>","3","Learning example 0"
"","","","","","html-button-response","55","162946","0.0-43.1-0.1-0.1","10","1","2025-02-02 02:56:16","bc01a2b6f61d06f6604adb8657495020","71.77.28.8","Mozilla/5.0 (Macintosh; Intel Mac OS X 10_15_7) AppleWebKit/605.1.15 (KHTML, like Gecko) Version/18.2 Safari/605.1.15","Macintosh","Safari","18.2","OS X","10_15_7","https://app.prolific.com/","en-US,en;q=0.9","67984b666b7cabdc214cd5f2","679edb085803f58d6bbd31ca","679edec7b9157d482c776885","","382","<img  src='G_9.jpg' height='90'> <img   src='G_3.jpg' height='90'> <img   src='G_5.jpg' height='90'> <img id='selected'  src='G_7.jpg' height='90'> <img id='selected' src='G_1.jpg' height='90'>","4","Learning example 0"
"","","","","","html-button-response","56","163151","0.0-44.0","10","1","2025-02-02 02:56:16","bc01a2b6f61d06f6604adb8657495020","71.77.28.8","Mozilla/5.0 (Macintosh; Intel Mac OS X 10_15_7) AppleWebKit/605.1.15 (KHTML, like Gecko) Version/18.2 Safari/605.1.15","Macintosh","Safari","18.2","OS X","10_15_7","https://app.prolific.com/","en-US,en;q=0.9","67984b666b7cabdc214cd5f2","679edb085803f58d6bbd31ca","679edec7b9157d482c776885","","null","<img  src='G_9.jpg' height='90'> <img   src='G_3.jpg' height='90'> <img   src='G_5.jpg' height='90'> <img   src='G_7.jpg' height='90'> <img  src='G_1.jpg' height='90'>","null","Learning example 0"
"","","","","","html-keyboard-response","57","168134","0.0-45.0","10","1","2025-02-02 02:56:16","bc01a2b6f61d06f6604adb8657495020","71.77.28.8","Mozilla/5.0 (Macintosh; Intel Mac OS X 10_15_7) AppleWebKit/605.1.15 (KHTML, like Gecko) Version/18.2 Safari/605.1.15","Macintosh","Safari","18.2","OS X","10_15_7","https://app.prolific.com/","en-US,en;q=0.9","67984b666b7cabdc214cd5f2","679edb085803f58d6bbd31ca","679edec7b9157d482c776885","","4980","[""Final order was 1,2,3,4,5. The initial order was 2,1,3,4,5.<br>It took 1 swaps to sort it correctly with Omgne Sort. <br><br>Press Enter to continue.""]","enter",""
"","","","","","html-keyboard-response","58","169658","0.0-46.0","10","1","2025-02-02 02:56:16","bc01a2b6f61d06f6604adb8657495020","71.77.28.8","Mozilla/5.0 (Macintosh; Intel Mac OS X 10_15_7) AppleWebKit/605.1.15 (KHTML, like Gecko) Version/18.2 Safari/605.1.15","Macintosh","Safari","18.2","OS X","10_15_7","https://app.prolific.com/","en-US,en;q=0.9","67984b666b7cabdc214cd5f2","679edb085803f58d6bbd31ca","679edec7b9157d482c776885","","1521","[""Example 2<br><br>You will watch Omnge Sort in action. Try to identify any patterns in the comparisons made by this method. <br><br>Press Enter to continue.""]","enter",""
"","","","","","html-keyboard-response","59","170163","0.0-47.0","10","1","2025-02-02 02:56:16","bc01a2b6f61d06f6604adb8657495020","71.77.28.8","Mozilla/5.0 (Macintosh; Intel Mac OS X 10_15_7) AppleWebKit/605.1.15 (KHTML, like Gecko) Version/18.2 Safari/605.1.15","Macintosh","Safari","18.2","OS X","10_15_7","https://app.prolific.com/","en-US,en;q=0.9","67984b666b7cabdc214cd5f2","679edb085803f58d6bbd31ca","679edec7b9157d482c776885","","null","<img id='selected' src='G_5.jpg' height='90'> <img src='G_2.jpg' height='90'> <img src='G_6.jpg' height='90'> <img src='G_7.jpg' height='90'> <img src='G_1.jpg' height='90'> <img src='G_3.jpg' height='90'> <img src='G_4.jpg' height='90'> <img src='G_8.jpg' height='90'>","null","Animation1"
"","","","","","html-keyboard-response","60","170668","0.0-48.0","10","1","2025-02-02 02:56:16","bc01a2b6f61d06f6604adb8657495020","71.77.28.8","Mozilla/5.0 (Macintosh; Intel Mac OS X 10_15_7) AppleWebKit/605.1.15 (KHTML, like Gecko) Version/18.2 Safari/605.1.15","Macintosh","Safari","18.2","OS X","10_15_7","https://app.prolific.com/","en-US,en;q=0.9","67984b666b7cabdc214cd5f2","679edb085803f58d6bbd31ca","679edec7b9157d482c776885","","null","<img id='selected' src='G_5.jpg' height='90'> <img id='selected' src='G_2.jpg' height='90'> <img src='G_6.jpg' height='90'> <img src='G_7.jpg' height='90'> <img src='G_1.jpg' height='90'> <img src='G_3.jpg' height='90'> <img src='G_4.jpg' height='90'> <img src='G_8.jpg' height='90'>","null","Animation1"
"","","","","","html-keyboard-response","61","171174","0.0-49.0","10","1","2025-02-02 02:56:16","bc01a2b6f61d06f6604adb8657495020","71.77.28.8","Mozilla/5.0 (Macintosh; Intel Mac OS X 10_15_7) AppleWebKit/605.1.15 (KHTML, like Gecko) Version/18.2 Safari/605.1.15","Macintosh","Safari","18.2","OS X","10_15_7","https://app.prolific.com/","en-US,en;q=0.9","67984b666b7cabdc214cd5f2","679edb085803f58d6bbd31ca","679edec7b9157d482c776885","","null","<img id='selected' src='G_5.jpg' height='90'> <img id='selected' src='G_2.jpg' height='90'> <img src='G_6.jpg' height='90'> <img src='G_7.jpg' height='90'> <img src='G_1.jpg' height='90'> <img src='G_3.jpg' height='90'> <img src='G_4.jpg' height='90'> <img src='G_8.jpg' height='90'>","null","Animation1"
"","","","","","html-keyboard-response","62","171480","0.0-50.0","10","1","2025-02-02 02:56:16","bc01a2b6f61d06f6604adb8657495020","71.77.28.8","Mozilla/5.0 (Macintosh; Intel Mac OS X 10_15_7) AppleWebKit/605.1.15 (KHTML, like Gecko) Version/18.2 Safari/605.1.15","Macintosh","Safari","18.2","OS X","10_15_7","https://app.prolific.com/","en-US,en;q=0.9","67984b666b7cabdc214cd5f2","679edb085803f58d6bbd31ca","679edec7b9157d482c776885","","null","<img  src='G_5.jpg' height='90'> <img  src='G_2.jpg' height='90'> <img src='G_6.jpg' height='90'> <img src='G_7.jpg' height='90'> <img src='G_1.jpg' height='90'> <img src='G_3.jpg' height='90'> <img src='G_4.jpg' height='90'> <img src='G_8.jpg' height='90'>","null","Animation1"
"","","","","","html-keyboard-response","63","171985","0.0-51.0","10","1","2025-02-02 02:56:16","bc01a2b6f61d06f6604adb8657495020","71.77.28.8","Mozilla/5.0 (Macintosh; Intel Mac OS X 10_15_7) AppleWebKit/605.1.15 (KHTML, like Gecko) Version/18.2 Safari/605.1.15","Macintosh","Safari","18.2","OS X","10_15_7","https://app.prolific.com/","en-US,en;q=0.9","67984b666b7cabdc214cd5f2","679edb085803f58d6bbd31ca","679edec7b9157d482c776885","","null","<img  src='G_5.jpg' height='90'> <img id='selected'  src='G_2.jpg' height='90'> <img src='G_6.jpg' height='90'> <img src='G_7.jpg' height='90'> <img src='G_1.jpg' height='90'> <img src='G_3.jpg' height='90'> <img src='G_4.jpg' height='90'> <img src='G_8.jpg' height='90'>","null","Animation1"
"","","","","","html-keyboard-response","64","172492","0.0-52.0","10","1","2025-02-02 02:56:16","bc01a2b6f61d06f6604adb8657495020","71.77.28.8","Mozilla/5.0 (Macintosh; Intel Mac OS X 10_15_7) AppleWebKit/605.1.15 (KHTML, like Gecko) Version/18.2 Safari/605.1.15","Macintosh","Safari","18.2","OS X","10_15_7","https://app.prolific.com/","en-US,en;q=0.9","67984b666b7cabdc214cd5f2","679edb085803f58d6bbd31ca","679edec7b9157d482c776885","","null","<img  src='G_5.jpg' height='90'> <img id='selected'  src='G_2.jpg' height='90'> <img id='selected' src='G_6.jpg' height='90'> <img src='G_7.jpg' height='90'> <img src='G_1.jpg' height='90'> <img src='G_3.jpg' height='90'> <img src='G_4.jpg' height='90'> <img src='G_8.jpg' height='90'>","null","Animation1"
"","","","","","html-keyboard-response","65","172998","0.0-53.0","10","1","2025-02-02 02:56:16","bc01a2b6f61d06f6604adb8657495020","71.77.28.8","Mozilla/5.0 (Macintosh; Intel Mac OS X 10_15_7) AppleWebKit/605.1.15 (KHTML, like Gecko) Version/18.2 Safari/605.1.15","Macintosh","Safari","18.2","OS X","10_15_7","https://app.prolific.com/","en-US,en;q=0.9","67984b666b7cabdc214cd5f2","679edb085803f58d6bbd31ca","679edec7b9157d482c776885","","null","<img  src='G_5.jpg' height='90'> <img id='swapped' src='G_6.jpg' height='90'> <img id='swapped'  src='G_2.jpg' height='90'> <img src='G_7.jpg' height='90'> <img src='G_1.jpg' height='90'> <img src='G_3.jpg' height='90'> <img src='G_4.jpg' height='90'> <img src='G_8.jpg' height='90'>","null","Animation1"
"","","","","","html-keyboard-response","66","173304","0.0-54.0","10","1","2025-02-02 02:56:16","bc01a2b6f61d06f6604adb8657495020","71.77.28.8","Mozilla/5.0 (Macintosh; Intel Mac OS X 10_15_7) AppleWebKit/605.1.15 (KHTML, like Gecko) Version/18.2 Safari/605.1.15","Macintosh","Safari","18.2","OS X","10_15_7","https://app.prolific.com/","en-US,en;q=0.9","67984b666b7cabdc214cd5f2","679edb085803f58d6bbd31ca","679edec7b9157d482c776885","","null","<img  src='G_5.jpg' height='90'> <img  src='G_6.jpg' height='90'> <img   src='G_2.jpg' height='90'> <img src='G_7.jpg' height='90'> <img src='G_1.jpg' height='90'> <img src='G_3.jpg' height='90'> <img src='G_4.jpg' height='90'> <img src='G_8.jpg' height='90'>","null","Animation1"
"","","","","","html-keyboard-response","67","173810","0.0-55.0","10","1","2025-02-02 02:56:16","bc01a2b6f61d06f6604adb8657495020","71.77.28.8","Mozilla/5.0 (Macintosh; Intel Mac OS X 10_15_7) AppleWebKit/605.1.15 (KHTML, like Gecko) Version/18.2 Safari/605.1.15","Macintosh","Safari","18.2","OS X","10_15_7","https://app.prolific.com/","en-US,en;q=0.9","67984b666b7cabdc214cd5f2","679edb085803f58d6bbd31ca","679edec7b9157d482c776885","","null","<img id='selected'  src='G_5.jpg' height='90'> <img  src='G_6.jpg' height='90'> <img   src='G_2.jpg' height='90'> <img src='G_7.jpg' height='90'> <img src='G_1.jpg' height='90'> <img src='G_3.jpg' height='90'> <img src='G_4.jpg' height='90'> <img src='G_8.jpg' height='90'>","null","Animation1"
"","","","","","html-keyboard-response","68","174315","0.0-56.0","10","1","2025-02-02 02:56:16","bc01a2b6f61d06f6604adb8657495020","71.77.28.8","Mozilla/5.0 (Macintosh; Intel Mac OS X 10_15_7) AppleWebKit/605.1.15 (KHTML, like Gecko) Version/18.2 Safari/605.1.15","Macintosh","Safari","18.2","OS X","10_15_7","https://app.prolific.com/","en-US,en;q=0.9","67984b666b7cabdc214cd5f2","679edb085803f58d6bbd31ca","679edec7b9157d482c776885","","null","<img id='selected'  src='G_5.jpg' height='90'> <img id='selected'  src='G_6.jpg' height='90'> <img   src='G_2.jpg' height='90'> <img src='G_7.jpg' height='90'> <img src='G_1.jpg' height='90'> <img src='G_3.jpg' height='90'> <img src='G_4.jpg' height='90'> <img src='G_8.jpg' height='90'>","null","Animation1"
"","","","","","html-keyboard-response","69","174821","0.0-57.0","10","1","2025-02-02 02:56:16","bc01a2b6f61d06f6604adb8657495020","71.77.28.8","Mozilla/5.0 (Macintosh; Intel Mac OS X 10_15_7) AppleWebKit/605.1.15 (KHTML, like Gecko) Version/18.2 Safari/605.1.15","Macintosh","Safari","18.2","OS X","10_15_7","https://app.prolific.com/","en-US,en;q=0.9","67984b666b7cabdc214cd5f2","679edb085803f58d6bbd31ca","679edec7b9157d482c776885","","null","<img id='swapped'  src='G_6.jpg' height='90'> <img id='swapped'  src='G_5.jpg' height='90'> <img   src='G_2.jpg' height='90'> <img src='G_7.jpg' height='90'> <img src='G_1.jpg' height='90'> <img src='G_3.jpg' height='90'> <img src='G_4.jpg' height='90'> <img src='G_8.jpg' height='90'>","null","Animation1"
"","","","","","html-keyboard-response","70","175126","0.0-58.0","10","1","2025-02-02 02:56:16","bc01a2b6f61d06f6604adb8657495020","71.77.28.8","Mozilla/5.0 (Macintosh; Intel Mac OS X 10_15_7) AppleWebKit/605.1.15 (KHTML, like Gecko) Version/18.2 Safari/605.1.15","Macintosh","Safari","18.2","OS X","10_15_7","https://app.prolific.com/","en-US,en;q=0.9","67984b666b7cabdc214cd5f2","679edb085803f58d6bbd31ca","679edec7b9157d482c776885","","null","<img   src='G_6.jpg' height='90'> <img   src='G_5.jpg' height='90'> <img   src='G_2.jpg' height='90'> <img src='G_7.jpg' height='90'> <img src='G_1.jpg' height='90'> <img src='G_3.jpg' height='90'> <img src='G_4.jpg' height='90'> <img src='G_8.jpg' height='90'>","null","Animation1"
"","","","","","html-keyboard-response","71","175631","0.0-59.0","10","1","2025-02-02 02:56:16","bc01a2b6f61d06f6604adb8657495020","71.77.28.8","Mozilla/5.0 (Macintosh; Intel Mac OS X 10_15_7) AppleWebKit/605.1.15 (KHTML, like Gecko) Version/18.2 Safari/605.1.15","Macintosh","Safari","18.2","OS X","10_15_7","https://app.prolific.com/","en-US,en;q=0.9","67984b666b7cabdc214cd5f2","679edb085803f58d6bbd31ca","679edec7b9157d482c776885","","null","<img   src='G_6.jpg' height='90'> <img   src='G_5.jpg' height='90'> <img id='selected'   src='G_2.jpg' height='90'> <img src='G_7.jpg' height='90'> <img src='G_1.jpg' height='90'> <img src='G_3.jpg' height='90'> <img src='G_4.jpg' height='90'> <img src='G_8.jpg' height='90'>","null","Animation1"
"","","","","","html-keyboard-response","72","176136","0.0-60.0","10","1","2025-02-02 02:56:16","bc01a2b6f61d06f6604adb8657495020","71.77.28.8","Mozilla/5.0 (Macintosh; Intel Mac OS X 10_15_7) AppleWebKit/605.1.15 (KHTML, like Gecko) Version/18.2 Safari/605.1.15","Macintosh","Safari","18.2","OS X","10_15_7","https://app.prolific.com/","en-US,en;q=0.9","67984b666b7cabdc214cd5f2","679edb085803f58d6bbd31ca","679edec7b9157d482c776885","","null","<img   src='G_6.jpg' height='90'> <img   src='G_5.jpg' height='90'> <img id='selected'   src='G_2.jpg' height='90'> <img id='selected' src='G_7.jpg' height='90'> <img src='G_1.jpg' height='90'> <img src='G_3.jpg' height='90'> <img src='G_4.jpg' height='90'> <img src='G_8.jpg' height='90'>","null","Animation1"
"","","","","","html-keyboard-response","73","176642","0.0-61.0","10","1","2025-02-02 02:56:16","bc01a2b6f61d06f6604adb8657495020","71.77.28.8","Mozilla/5.0 (Macintosh; Intel Mac OS X 10_15_7) AppleWebKit/605.1.15 (KHTML, like Gecko) Version/18.2 Safari/605.1.15","Macintosh","Safari","18.2","OS X","10_15_7","https://app.prolific.com/","en-US,en;q=0.9","67984b666b7cabdc214cd5f2","679edb085803f58d6bbd31ca","679edec7b9157d482c776885","","null","<img   src='G_6.jpg' height='90'> <img   src='G_5.jpg' height='90'> <img id='swapped' src='G_7.jpg' height='90'> <img id='swapped'   src='G_2.jpg' height='90'> <img src='G_1.jpg' height='90'> <img src='G_3.jpg' height='90'> <img src='G_4.jpg' height='90'> <img src='G_8.jpg' height='90'>","null","Animation1"
"","","","","","html-keyboard-response","74","176948","0.0-62.0","10","1","2025-02-02 02:56:16","bc01a2b6f61d06f6604adb8657495020","71.77.28.8","Mozilla/5.0 (Macintosh; Intel Mac OS X 10_15_7) AppleWebKit/605.1.15 (KHTML, like Gecko) Version/18.2 Safari/605.1.15","Macintosh","Safari","18.2","OS X","10_15_7","https://app.prolific.com/","en-US,en;q=0.9","67984b666b7cabdc214cd5f2","679edb085803f58d6bbd31ca","679edec7b9157d482c776885","","null","<img   src='G_6.jpg' height='90'> <img   src='G_5.jpg' height='90'> <img  src='G_7.jpg' height='90'> <img    src='G_2.jpg' height='90'> <img src='G_1.jpg' height='90'> <img src='G_3.jpg' height='90'> <img src='G_4.jpg' height='90'> <img src='G_8.jpg' height='90'>","null","Animation1"
"","","","","","html-keyboard-response","75","177454","0.0-63.0","10","1","2025-02-02 02:56:16","bc01a2b6f61d06f6604adb8657495020","71.77.28.8","Mozilla/5.0 (Macintosh; Intel Mac OS X 10_15_7) AppleWebKit/605.1.15 (KHTML, like Gecko) Version/18.2 Safari/605.1.15","Macintosh","Safari","18.2","OS X","10_15_7","https://app.prolific.com/","en-US,en;q=0.9","67984b666b7cabdc214cd5f2","679edb085803f58d6bbd31ca","679edec7b9157d482c776885","","null","<img   src='G_6.jpg' height='90'> <img id='selected'   src='G_5.jpg' height='90'> <img  src='G_7.jpg' height='90'> <img    src='G_2.jpg' height='90'> <img src='G_1.jpg' height='90'> <img src='G_3.jpg' height='90'> <img src='G_4.jpg' height='90'> <img src='G_8.jpg' height='90'>","null","Animation1"
"","","","","","html-keyboard-response","76","177959","0.0-64.0","10","1","2025-02-02 02:56:16","bc01a2b6f61d06f6604adb8657495020","71.77.28.8","Mozilla/5.0 (Macintosh; Intel Mac OS X 10_15_7) AppleWebKit/605.1.15 (KHTML, like Gecko) Version/18.2 Safari/605.1.15","Macintosh","Safari","18.2","OS X","10_15_7","https://app.prolific.com/","en-US,en;q=0.9","67984b666b7cabdc214cd5f2","679edb085803f58d6bbd31ca","679edec7b9157d482c776885","","null","<img   src='G_6.jpg' height='90'> <img id='selected'   src='G_5.jpg' height='90'> <img id='selected'  src='G_7.jpg' height='90'> <img    src='G_2.jpg' height='90'> <img src='G_1.jpg' height='90'> <img src='G_3.jpg' height='90'> <img src='G_4.jpg' height='90'> <img src='G_8.jpg' height='90'>","null","Animation1"
"","","","","","html-keyboard-response","77","178462","0.0-65.0","10","1","2025-02-02 02:56:16","bc01a2b6f61d06f6604adb8657495020","71.77.28.8","Mozilla/5.0 (Macintosh; Intel Mac OS X 10_15_7) AppleWebKit/605.1.15 (KHTML, like Gecko) Version/18.2 Safari/605.1.15","Macintosh","Safari","18.2","OS X","10_15_7","https://app.prolific.com/","en-US,en;q=0.9","67984b666b7cabdc214cd5f2","679edb085803f58d6bbd31ca","679edec7b9157d482c776885","","null","<img   src='G_6.jpg' height='90'> <img id='swapped'  src='G_7.jpg' height='90'> <img id='swapped'   src='G_5.jpg' height='90'> <img    src='G_2.jpg' height='90'> <img src='G_1.jpg' height='90'> <img src='G_3.jpg' height='90'> <img src='G_4.jpg' height='90'> <img src='G_8.jpg' height='90'>","null","Animation1"
"","","","","","html-keyboard-response","78","178767","0.0-66.0","10","1","2025-02-02 02:56:16","bc01a2b6f61d06f6604adb8657495020","71.77.28.8","Mozilla/5.0 (Macintosh; Intel Mac OS X 10_15_7) AppleWebKit/605.1.15 (KHTML, like Gecko) Version/18.2 Safari/605.1.15","Macintosh","Safari","18.2","OS X","10_15_7","https://app.prolific.com/","en-US,en;q=0.9","67984b666b7cabdc214cd5f2","679edb085803f58d6bbd31ca","679edec7b9157d482c776885","","null","<img   src='G_6.jpg' height='90'> <img   src='G_7.jpg' height='90'> <img    src='G_5.jpg' height='90'> <img    src='G_2.jpg' height='90'> <img src='G_1.jpg' height='90'> <img src='G_3.jpg' height='90'> <img src='G_4.jpg' height='90'> <img src='G_8.jpg' height='90'>","null","Animation1"
"","","","","","html-keyboard-response","79","179273","0.0-67.0","10","1","2025-02-02 02:56:16","bc01a2b6f61d06f6604adb8657495020","71.77.28.8","Mozilla/5.0 (Macintosh; Intel Mac OS X 10_15_7) AppleWebKit/605.1.15 (KHTML, like Gecko) Version/18.2 Safari/605.1.15","Macintosh","Safari","18.2","OS X","10_15_7","https://app.prolific.com/","en-US,en;q=0.9","67984b666b7cabdc214cd5f2","679edb085803f58d6bbd31ca","679edec7b9157d482c776885","","null","<img id='selected'   src='G_6.jpg' height='90'> <img   src='G_7.jpg' height='90'> <img    src='G_5.jpg' height='90'> <img    src='G_2.jpg' height='90'> <img src='G_1.jpg' height='90'> <img src='G_3.jpg' height='90'> <img src='G_4.jpg' height='90'> <img src='G_8.jpg' height='90'>","null","Animation1"
"","","","","","html-keyboard-response","80","179779","0.0-68.0","10","1","2025-02-02 02:56:16","bc01a2b6f61d06f6604adb8657495020","71.77.28.8","Mozilla/5.0 (Macintosh; Intel Mac OS X 10_15_7) AppleWebKit/605.1.15 (KHTML, like Gecko) Version/18.2 Safari/605.1.15","Macintosh","Safari","18.2","OS X","10_15_7","https://app.prolific.com/","en-US,en;q=0.9","67984b666b7cabdc214cd5f2","679edb085803f58d6bbd31ca","679edec7b9157d482c776885","","null","<img id='selected'   src='G_6.jpg' height='90'> <img id='selected'   src='G_7.jpg' height='90'> <img    src='G_5.jpg' height='90'> <img    src='G_2.jpg' height='90'> <img src='G_1.jpg' height='90'> <img src='G_3.jpg' height='90'> <img src='G_4.jpg' height='90'> <img src='G_8.jpg' height='90'>","null","Animation1"
"","","","","","html-keyboard-response","81","180285","0.0-69.0","10","1","2025-02-02 02:56:16","bc01a2b6f61d06f6604adb8657495020","71.77.28.8","Mozilla/5.0 (Macintosh; Intel Mac OS X 10_15_7) AppleWebKit/605.1.15 (KHTML, like Gecko) Version/18.2 Safari/605.1.15","Macintosh","Safari","18.2","OS X","10_15_7","https://app.prolific.com/","en-US,en;q=0.9","67984b666b7cabdc214cd5f2","679edb085803f58d6bbd31ca","679edec7b9157d482c776885","","null","<img id='swapped'   src='G_7.jpg' height='90'> <img id='swapped'   src='G_6.jpg' height='90'> <img    src='G_5.jpg' height='90'> <img    src='G_2.jpg' height='90'> <img src='G_1.jpg' height='90'> <img src='G_3.jpg' height='90'> <img src='G_4.jpg' height='90'> <img src='G_8.jpg' height='90'>","null","Animation1"
"","","","","","html-keyboard-response","82","180591","0.0-70.0","10","1","2025-02-02 02:56:16","bc01a2b6f61d06f6604adb8657495020","71.77.28.8","Mozilla/5.0 (Macintosh; Intel Mac OS X 10_15_7) AppleWebKit/605.1.15 (KHTML, like Gecko) Version/18.2 Safari/605.1.15","Macintosh","Safari","18.2","OS X","10_15_7","https://app.prolific.com/","en-US,en;q=0.9","67984b666b7cabdc214cd5f2","679edb085803f58d6bbd31ca","679edec7b9157d482c776885","","null","<img    src='G_7.jpg' height='90'> <img    src='G_6.jpg' height='90'> <img    src='G_5.jpg' height='90'> <img    src='G_2.jpg' height='90'> <img src='G_1.jpg' height='90'> <img src='G_3.jpg' height='90'> <img src='G_4.jpg' height='90'> <img src='G_8.jpg' height='90'>","null","Animation1"
"","","","","","html-keyboard-response","83","181098","0.0-71.0","10","1","2025-02-02 02:56:16","bc01a2b6f61d06f6604adb8657495020","71.77.28.8","Mozilla/5.0 (Macintosh; Intel Mac OS X 10_15_7) AppleWebKit/605.1.15 (KHTML, like Gecko) Version/18.2 Safari/605.1.15","Macintosh","Safari","18.2","OS X","10_15_7","https://app.prolific.com/","en-US,en;q=0.9","67984b666b7cabdc214cd5f2","679edb085803f58d6bbd31ca","679edec7b9157d482c776885","","null","<img    src='G_7.jpg' height='90'> <img    src='G_6.jpg' height='90'> <img    src='G_5.jpg' height='90'> <img id='selected'    src='G_2.jpg' height='90'> <img src='G_1.jpg' height='90'> <img src='G_3.jpg' height='90'> <img src='G_4.jpg' height='90'> <img src='G_8.jpg' height='90'>","null","Animation1"
"","","","","","html-keyboard-response","84","181604","0.0-72.0","10","1","2025-02-02 02:56:16","bc01a2b6f61d06f6604adb8657495020","71.77.28.8","Mozilla/5.0 (Macintosh; Intel Mac OS X 10_15_7) AppleWebKit/605.1.15 (KHTML, like Gecko) Version/18.2 Safari/605.1.15","Macintosh","Safari","18.2","OS X","10_15_7","https://app.prolific.com/","en-US,en;q=0.9","67984b666b7cabdc214cd5f2","679edb085803f58d6bbd31ca","679edec7b9157d482c776885","","null","<img    src='G_7.jpg' height='90'> <img    src='G_6.jpg' height='90'> <img    src='G_5.jpg' height='90'> <img id='selected'    src='G_2.jpg' height='90'> <img id='selected' src='G_1.jpg' height='90'> <img src='G_3.jpg' height='90'> <img src='G_4.jpg' height='90'> <img src='G_8.jpg' height='90'>","null","Animation1"
"","","","","","html-keyboard-response","85","182111","0.0-73.0","10","1","2025-02-02 02:56:16","bc01a2b6f61d06f6604adb8657495020","71.77.28.8","Mozilla/5.0 (Macintosh; Intel Mac OS X 10_15_7) AppleWebKit/605.1.15 (KHTML, like Gecko) Version/18.2 Safari/605.1.15","Macintosh","Safari","18.2","OS X","10_15_7","https://app.prolific.com/","en-US,en;q=0.9","67984b666b7cabdc214cd5f2","679edb085803f58d6bbd31ca","679edec7b9157d482c776885","","null","<img    src='G_7.jpg' height='90'> <img    src='G_6.jpg' height='90'> <img    src='G_5.jpg' height='90'> <img id='swapped' src='G_1.jpg' height='90'> <img id='swapped'    src='G_2.jpg' height='90'> <img src='G_3.jpg' height='90'> <img src='G_4.jpg' height='90'> <img src='G_8.jpg' height='90'>","null","Animation1"
"","","","","","html-keyboard-response","86","182418","0.0-74.0","10","1","2025-02-02 02:56:16","bc01a2b6f61d06f6604adb8657495020","71.77.28.8","Mozilla/5.0 (Macintosh; Intel Mac OS X 10_15_7) AppleWebKit/605.1.15 (KHTML, like Gecko) Version/18.2 Safari/605.1.15","Macintosh","Safari","18.2","OS X","10_15_7","https://app.prolific.com/","en-US,en;q=0.9","67984b666b7cabdc214cd5f2","679edb085803f58d6bbd31ca","679edec7b9157d482c776885","","null","<img    src='G_7.jpg' height='90'> <img    src='G_6.jpg' height='90'> <img    src='G_5.jpg' height='90'> <img  src='G_1.jpg' height='90'> <img     src='G_2.jpg' height='90'> <img src='G_3.jpg' height='90'> <img src='G_4.jpg' height='90'> <img src='G_8.jpg' height='90'>","null","Animation1"
"","","","","","html-keyboard-response","87","182924","0.0-75.0","10","1","2025-02-02 02:56:16","bc01a2b6f61d06f6604adb8657495020","71.77.28.8","Mozilla/5.0 (Macintosh; Intel Mac OS X 10_15_7) AppleWebKit/605.1.15 (KHTML, like Gecko) Version/18.2 Safari/605.1.15","Macintosh","Safari","18.2","OS X","10_15_7","https://app.prolific.com/","en-US,en;q=0.9","67984b666b7cabdc214cd5f2","679edb085803f58d6bbd31ca","679edec7b9157d482c776885","","null","<img    src='G_7.jpg' height='90'> <img    src='G_6.jpg' height='90'> <img id='selected'    src='G_5.jpg' height='90'> <img  src='G_1.jpg' height='90'> <img     src='G_2.jpg' height='90'> <img src='G_3.jpg' height='90'> <img src='G_4.jpg' height='90'> <img src='G_8.jpg' height='90'>","null","Animation1"
"","","","","","html-keyboard-response","88","183431","0.0-76.0","10","1","2025-02-02 02:56:16","bc01a2b6f61d06f6604adb8657495020","71.77.28.8","Mozilla/5.0 (Macintosh; Intel Mac OS X 10_15_7) AppleWebKit/605.1.15 (KHTML, like Gecko) Version/18.2 Safari/605.1.15","Macintosh","Safari","18.2","OS X","10_15_7","https://app.prolific.com/","en-US,en;q=0.9","67984b666b7cabdc214cd5f2","679edb085803f58d6bbd31ca","679edec7b9157d482c776885","","null","<img    src='G_7.jpg' height='90'> <img    src='G_6.jpg' height='90'> <img id='selected'    src='G_5.jpg' height='90'> <img id='selected'  src='G_1.jpg' height='90'> <img     src='G_2.jpg' height='90'> <img src='G_3.jpg' height='90'> <img src='G_4.jpg' height='90'> <img src='G_8.jpg' height='90'>","null","Animation1"
"","","","","","html-keyboard-response","89","183938","0.0-77.0","10","1","2025-02-02 02:56:16","bc01a2b6f61d06f6604adb8657495020","71.77.28.8","Mozilla/5.0 (Macintosh; Intel Mac OS X 10_15_7) AppleWebKit/605.1.15 (KHTML, like Gecko) Version/18.2 Safari/605.1.15","Macintosh","Safari","18.2","OS X","10_15_7","https://app.prolific.com/","en-US,en;q=0.9","67984b666b7cabdc214cd5f2","679edb085803f58d6bbd31ca","679edec7b9157d482c776885","","null","<img    src='G_7.jpg' height='90'> <img    src='G_6.jpg' height='90'> <img id='swapped'  src='G_1.jpg' height='90'> <img id='swapped'    src='G_5.jpg' height='90'> <img     src='G_2.jpg' height='90'> <img src='G_3.jpg' height='90'> <img src='G_4.jpg' height='90'> <img src='G_8.jpg' height='90'>","null","Animation1"
"","","","","","html-keyboard-response","90","184243","0.0-78.0","10","1","2025-02-02 02:56:16","bc01a2b6f61d06f6604adb8657495020","71.77.28.8","Mozilla/5.0 (Macintosh; Intel Mac OS X 10_15_7) AppleWebKit/605.1.15 (KHTML, like Gecko) Version/18.2 Safari/605.1.15","Macintosh","Safari","18.2","OS X","10_15_7","https://app.prolific.com/","en-US,en;q=0.9","67984b666b7cabdc214cd5f2","679edb085803f58d6bbd31ca","679edec7b9157d482c776885","","null","<img    src='G_7.jpg' height='90'> <img    src='G_6.jpg' height='90'> <img   src='G_1.jpg' height='90'> <img     src='G_5.jpg' height='90'> <img     src='G_2.jpg' height='90'> <img src='G_3.jpg' height='90'> <img src='G_4.jpg' height='90'> <img src='G_8.jpg' height='90'>","null","Animation1"
"","","","","","html-keyboard-response","91","184747","0.0-79.0","10","1","2025-02-02 02:56:16","bc01a2b6f61d06f6604adb8657495020","71.77.28.8","Mozilla/5.0 (Macintosh; Intel Mac OS X 10_15_7) AppleWebKit/605.1.15 (KHTML, like Gecko) Version/18.2 Safari/605.1.15","Macintosh","Safari","18.2","OS X","10_15_7","https://app.prolific.com/","en-US,en;q=0.9","67984b666b7cabdc214cd5f2","679edb085803f58d6bbd31ca","679edec7b9157d482c776885","","null","<img    src='G_7.jpg' height='90'> <img id='selected'    src='G_6.jpg' height='90'> <img   src='G_1.jpg' height='90'> <img     src='G_5.jpg' height='90'> <img     src='G_2.jpg' height='90'> <img src='G_3.jpg' height='90'> <img src='G_4.jpg' height='90'> <img src='G_8.jpg' height='90'>","null","Animation1"
"","","","","","html-keyboard-response","92","185253","0.0-80.0","10","1","2025-02-02 02:56:16","bc01a2b6f61d06f6604adb8657495020","71.77.28.8","Mozilla/5.0 (Macintosh; Intel Mac OS X 10_15_7) AppleWebKit/605.1.15 (KHTML, like Gecko) Version/18.2 Safari/605.1.15","Macintosh","Safari","18.2","OS X","10_15_7","https://app.prolific.com/","en-US,en;q=0.9","67984b666b7cabdc214cd5f2","679edb085803f58d6bbd31ca","679edec7b9157d482c776885","","null","<img    src='G_7.jpg' height='90'> <img id='selected'    src='G_6.jpg' height='90'> <img id='selected'   src='G_1.jpg' height='90'> <img     src='G_5.jpg' height='90'> <img     src='G_2.jpg' height='90'> <img src='G_3.jpg' height='90'> <img src='G_4.jpg' height='90'> <img src='G_8.jpg' height='90'>","null","Animation1"
"","","","","","html-keyboard-response","93","185759","0.0-81.0","10","1","2025-02-02 02:56:16","bc01a2b6f61d06f6604adb8657495020","71.77.28.8","Mozilla/5.0 (Macintosh; Intel Mac OS X 10_15_7) AppleWebKit/605.1.15 (KHTML, like Gecko) Version/18.2 Safari/605.1.15","Macintosh","Safari","18.2","OS X","10_15_7","https://app.prolific.com/","en-US,en;q=0.9","67984b666b7cabdc214cd5f2","679edb085803f58d6bbd31ca","679edec7b9157d482c776885","","null","<img    src='G_7.jpg' height='90'> <img id='swapped'   src='G_1.jpg' height='90'> <img id='swapped'    src='G_6.jpg' height='90'> <img     src='G_5.jpg' height='90'> <img     src='G_2.jpg' height='90'> <img src='G_3.jpg' height='90'> <img src='G_4.jpg' height='90'> <img src='G_8.jpg' height='90'>","null","Animation1"
"","","","","","html-keyboard-response","94","186065","0.0-82.0","10","1","2025-02-02 02:56:16","bc01a2b6f61d06f6604adb8657495020","71.77.28.8","Mozilla/5.0 (Macintosh; Intel Mac OS X 10_15_7) AppleWebKit/605.1.15 (KHTML, like Gecko) Version/18.2 Safari/605.1.15","Macintosh","Safari","18.2","OS X","10_15_7","https://app.prolific.com/","en-US,en;q=0.9","67984b666b7cabdc214cd5f2","679edb085803f58d6bbd31ca","679edec7b9157d482c776885","","null","<img    src='G_7.jpg' height='90'> <img    src='G_1.jpg' height='90'> <img     src='G_6.jpg' height='90'> <img     src='G_5.jpg' height='90'> <img     src='G_2.jpg' height='90'> <img src='G_3.jpg' height='90'> <img src='G_4.jpg' height='90'> <img src='G_8.jpg' height='90'>","null","Animation1"
"","","","","","html-keyboard-response","95","186571","0.0-83.0","10","1","2025-02-02 02:56:16","bc01a2b6f61d06f6604adb8657495020","71.77.28.8","Mozilla/5.0 (Macintosh; Intel Mac OS X 10_15_7) AppleWebKit/605.1.15 (KHTML, like Gecko) Version/18.2 Safari/605.1.15","Macintosh","Safari","18.2","OS X","10_15_7","https://app.prolific.com/","en-US,en;q=0.9","67984b666b7cabdc214cd5f2","679edb085803f58d6bbd31ca","679edec7b9157d482c776885","","null","<img id='selected'    src='G_7.jpg' height='90'> <img    src='G_1.jpg' height='90'> <img     src='G_6.jpg' height='90'> <img     src='G_5.jpg' height='90'> <img     src='G_2.jpg' height='90'> <img src='G_3.jpg' height='90'> <img src='G_4.jpg' height='90'> <img src='G_8.jpg' height='90'>","null","Animation1"
"","","","","","html-keyboard-response","96","187078","0.0-84.0","10","1","2025-02-02 02:56:16","bc01a2b6f61d06f6604adb8657495020","71.77.28.8","Mozilla/5.0 (Macintosh; Intel Mac OS X 10_15_7) AppleWebKit/605.1.15 (KHTML, like Gecko) Version/18.2 Safari/605.1.15","Macintosh","Safari","18.2","OS X","10_15_7","https://app.prolific.com/","en-US,en;q=0.9","67984b666b7cabdc214cd5f2","679edb085803f58d6bbd31ca","679edec7b9157d482c776885","","null","<img id='selected'    src='G_7.jpg' height='90'> <img id='selected'    src='G_1.jpg' height='90'> <img     src='G_6.jpg' height='90'> <img     src='G_5.jpg' height='90'> <img     src='G_2.jpg' height='90'> <img src='G_3.jpg' height='90'> <img src='G_4.jpg' height='90'> <img src='G_8.jpg' height='90'>","null","Animation1"
"","","","","","html-keyboard-response","97","187584","0.0-85.0","10","1","2025-02-02 02:56:16","bc01a2b6f61d06f6604adb8657495020","71.77.28.8","Mozilla/5.0 (Macintosh; Intel Mac OS X 10_15_7) AppleWebKit/605.1.15 (KHTML, like Gecko) Version/18.2 Safari/605.1.15","Macintosh","Safari","18.2","OS X","10_15_7","https://app.prolific.com/","en-US,en;q=0.9","67984b666b7cabdc214cd5f2","679edb085803f58d6bbd31ca","679edec7b9157d482c776885","","null","<img id='selected'    src='G_7.jpg' height='90'> <img id='selected'    src='G_1.jpg' height='90'> <img     src='G_6.jpg' height='90'> <img     src='G_5.jpg' height='90'> <img     src='G_2.jpg' height='90'> <img src='G_3.jpg' height='90'> <img src='G_4.jpg' height='90'> <img src='G_8.jpg' height='90'>","null","Animation1"
"","","","","","html-keyboard-response","98","187890","0.0-86.0","10","1","2025-02-02 02:56:16","bc01a2b6f61d06f6604adb8657495020","71.77.28.8","Mozilla/5.0 (Macintosh; Intel Mac OS X 10_15_7) AppleWebKit/605.1.15 (KHTML, like Gecko) Version/18.2 Safari/605.1.15","Macintosh","Safari","18.2","OS X","10_15_7","https://app.prolific.com/","en-US,en;q=0.9","67984b666b7cabdc214cd5f2","679edb085803f58d6bbd31ca","679edec7b9157d482c776885","","null","<img     src='G_7.jpg' height='90'> <img     src='G_1.jpg' height='90'> <img     src='G_6.jpg' height='90'> <img     src='G_5.jpg' height='90'> <img     src='G_2.jpg' height='90'> <img src='G_3.jpg' height='90'> <img src='G_4.jpg' height='90'> <img src='G_8.jpg' height='90'>","null","Animation1"
"","","","","","html-keyboard-response","99","188396","0.0-87.0","10","1","2025-02-02 02:56:16","bc01a2b6f61d06f6604adb8657495020","71.77.28.8","Mozilla/5.0 (Macintosh; Intel Mac OS X 10_15_7) AppleWebKit/605.1.15 (KHTML, like Gecko) Version/18.2 Safari/605.1.15","Macintosh","Safari","18.2","OS X","10_15_7","https://app.prolific.com/","en-US,en;q=0.9","67984b666b7cabdc214cd5f2","679edb085803f58d6bbd31ca","679edec7b9157d482c776885","","null","<img     src='G_7.jpg' height='90'> <img     src='G_1.jpg' height='90'> <img     src='G_6.jpg' height='90'> <img     src='G_5.jpg' height='90'> <img id='selected'     src='G_2.jpg' height='90'> <img src='G_3.jpg' height='90'> <img src='G_4.jpg' height='90'> <img src='G_8.jpg' height='90'>","null","Animation1"
"","","","","","html-keyboard-response","100","188903","0.0-88.0","10","1","2025-02-02 02:56:16","bc01a2b6f61d06f6604adb8657495020","71.77.28.8","Mozilla/5.0 (Macintosh; Intel Mac OS X 10_15_7) AppleWebKit/605.1.15 (KHTML, like Gecko) Version/18.2 Safari/605.1.15","Macintosh","Safari","18.2","OS X","10_15_7","https://app.prolific.com/","en-US,en;q=0.9","67984b666b7cabdc214cd5f2","679edb085803f58d6bbd31ca","679edec7b9157d482c776885","","null","<img     src='G_7.jpg' height='90'> <img     src='G_1.jpg' height='90'> <img     src='G_6.jpg' height='90'> <img     src='G_5.jpg' height='90'> <img id='selected'     src='G_2.jpg' height='90'> <img id='selected' src='G_3.jpg' height='90'> <img src='G_4.jpg' height='90'> <img src='G_8.jpg' height='90'>","null","Animation1"
"","","","","","html-keyboard-response","101","189410","0.0-89.0","10","1","2025-02-02 02:56:16","bc01a2b6f61d06f6604adb8657495020","71.77.28.8","Mozilla/5.0 (Macintosh; Intel Mac OS X 10_15_7) AppleWebKit/605.1.15 (KHTML, like Gecko) Version/18.2 Safari/605.1.15","Macintosh","Safari","18.2","OS X","10_15_7","https://app.prolific.com/","en-US,en;q=0.9","67984b666b7cabdc214cd5f2","679edb085803f58d6bbd31ca","679edec7b9157d482c776885","","null","<img     src='G_7.jpg' height='90'> <img     src='G_1.jpg' height='90'> <img     src='G_6.jpg' height='90'> <img     src='G_5.jpg' height='90'> <img id='swapped' src='G_3.jpg' height='90'> <img id='swapped'     src='G_2.jpg' height='90'> <img src='G_4.jpg' height='90'> <img src='G_8.jpg' height='90'>","null","Animation1"
"","","","","","html-keyboard-response","102","189716","0.0-90.0","10","1","2025-02-02 02:56:16","bc01a2b6f61d06f6604adb8657495020","71.77.28.8","Mozilla/5.0 (Macintosh; Intel Mac OS X 10_15_7) AppleWebKit/605.1.15 (KHTML, like Gecko) Version/18.2 Safari/605.1.15","Macintosh","Safari","18.2","OS X","10_15_7","https://app.prolific.com/","en-US,en;q=0.9","67984b666b7cabdc214cd5f2","679edb085803f58d6bbd31ca","679edec7b9157d482c776885","","null","<img     src='G_7.jpg' height='90'> <img     src='G_1.jpg' height='90'> <img     src='G_6.jpg' height='90'> <img     src='G_5.jpg' height='90'> <img  src='G_3.jpg' height='90'> <img      src='G_2.jpg' height='90'> <img src='G_4.jpg' height='90'> <img src='G_8.jpg' height='90'>","null","Animation1"
"","","","","","html-keyboard-response","103","190222","0.0-91.0","10","1","2025-02-02 02:56:16","bc01a2b6f61d06f6604adb8657495020","71.77.28.8","Mozilla/5.0 (Macintosh; Intel Mac OS X 10_15_7) AppleWebKit/605.1.15 (KHTML, like Gecko) Version/18.2 Safari/605.1.15","Macintosh","Safari","18.2","OS X","10_15_7","https://app.prolific.com/","en-US,en;q=0.9","67984b666b7cabdc214cd5f2","679edb085803f58d6bbd31ca","679edec7b9157d482c776885","","null","<img     src='G_7.jpg' height='90'> <img     src='G_1.jpg' height='90'> <img     src='G_6.jpg' height='90'> <img id='selected'     src='G_5.jpg' height='90'> <img  src='G_3.jpg' height='90'> <img      src='G_2.jpg' height='90'> <img src='G_4.jpg' height='90'> <img src='G_8.jpg' height='90'>","null","Animation1"
"","","","","","html-keyboard-response","104","190728","0.0-92.0","10","1","2025-02-02 02:56:16","bc01a2b6f61d06f6604adb8657495020","71.77.28.8","Mozilla/5.0 (Macintosh; Intel Mac OS X 10_15_7) AppleWebKit/605.1.15 (KHTML, like Gecko) Version/18.2 Safari/605.1.15","Macintosh","Safari","18.2","OS X","10_15_7","https://app.prolific.com/","en-US,en;q=0.9","67984b666b7cabdc214cd5f2","679edb085803f58d6bbd31ca","679edec7b9157d482c776885","","null","<img     src='G_7.jpg' height='90'> <img     src='G_1.jpg' height='90'> <img     src='G_6.jpg' height='90'> <img id='selected'     src='G_5.jpg' height='90'> <img id='selected'  src='G_3.jpg' height='90'> <img      src='G_2.jpg' height='90'> <img src='G_4.jpg' height='90'> <img src='G_8.jpg' height='90'>","null","Animation1"
"","","","","","html-keyboard-response","105","191234","0.0-93.0","10","1","2025-02-02 02:56:16","bc01a2b6f61d06f6604adb8657495020","71.77.28.8","Mozilla/5.0 (Macintosh; Intel Mac OS X 10_15_7) AppleWebKit/605.1.15 (KHTML, like Gecko) Version/18.2 Safari/605.1.15","Macintosh","Safari","18.2","OS X","10_15_7","https://app.prolific.com/","en-US,en;q=0.9","67984b666b7cabdc214cd5f2","679edb085803f58d6bbd31ca","679edec7b9157d482c776885","","null","<img     src='G_7.jpg' height='90'> <img     src='G_1.jpg' height='90'> <img     src='G_6.jpg' height='90'> <img id='selected'     src='G_5.jpg' height='90'> <img id='selected'  src='G_3.jpg' height='90'> <img      src='G_2.jpg' height='90'> <img src='G_4.jpg' height='90'> <img src='G_8.jpg' height='90'>","null","Animation1"
"","","","","","html-keyboard-response","106","191541","0.0-94.0","10","1","2025-02-02 02:56:16","bc01a2b6f61d06f6604adb8657495020","71.77.28.8","Mozilla/5.0 (Macintosh; Intel Mac OS X 10_15_7) AppleWebKit/605.1.15 (KHTML, like Gecko) Version/18.2 Safari/605.1.15","Macintosh","Safari","18.2","OS X","10_15_7","https://app.prolific.com/","en-US,en;q=0.9","67984b666b7cabdc214cd5f2","679edb085803f58d6bbd31ca","679edec7b9157d482c776885","","null","<img     src='G_7.jpg' height='90'> <img     src='G_1.jpg' height='90'> <img     src='G_6.jpg' height='90'> <img      src='G_5.jpg' height='90'> <img   src='G_3.jpg' height='90'> <img      src='G_2.jpg' height='90'> <img src='G_4.jpg' height='90'> <img src='G_8.jpg' height='90'>","null","Animation1"
"","","","","","html-keyboard-response","107","192047","0.0-95.0","10","1","2025-02-02 02:56:16","bc01a2b6f61d06f6604adb8657495020","71.77.28.8","Mozilla/5.0 (Macintosh; Intel Mac OS X 10_15_7) AppleWebKit/605.1.15 (KHTML, like Gecko) Version/18.2 Safari/605.1.15","Macintosh","Safari","18.2","OS X","10_15_7","https://app.prolific.com/","en-US,en;q=0.9","67984b666b7cabdc214cd5f2","679edb085803f58d6bbd31ca","679edec7b9157d482c776885","","null","<img     src='G_7.jpg' height='90'> <img     src='G_1.jpg' height='90'> <img     src='G_6.jpg' height='90'> <img      src='G_5.jpg' height='90'> <img   src='G_3.jpg' height='90'> <img id='selected'      src='G_2.jpg' height='90'> <img src='G_4.jpg' height='90'> <img src='G_8.jpg' height='90'>","null","Animation1"
"","","","","","html-keyboard-response","108","192554","0.0-96.0","10","1","2025-02-02 02:56:16","bc01a2b6f61d06f6604adb8657495020","71.77.28.8","Mozilla/5.0 (Macintosh; Intel Mac OS X 10_15_7) AppleWebKit/605.1.15 (KHTML, like Gecko) Version/18.2 Safari/605.1.15","Macintosh","Safari","18.2","OS X","10_15_7","https://app.prolific.com/","en-US,en;q=0.9","67984b666b7cabdc214cd5f2","679edb085803f58d6bbd31ca","679edec7b9157d482c776885","","null","<img     src='G_7.jpg' height='90'> <img     src='G_1.jpg' height='90'> <img     src='G_6.jpg' height='90'> <img      src='G_5.jpg' height='90'> <img   src='G_3.jpg' height='90'> <img id='selected'      src='G_2.jpg' height='90'> <img id='selected' src='G_4.jpg' height='90'> <img src='G_8.jpg' height='90'>","null","Animation1"
"","","","","","html-keyboard-response","109","193060","0.0-97.0","10","1","2025-02-02 02:56:16","bc01a2b6f61d06f6604adb8657495020","71.77.28.8","Mozilla/5.0 (Macintosh; Intel Mac OS X 10_15_7) AppleWebKit/605.1.15 (KHTML, like Gecko) Version/18.2 Safari/605.1.15","Macintosh","Safari","18.2","OS X","10_15_7","https://app.prolific.com/","en-US,en;q=0.9","67984b666b7cabdc214cd5f2","679edb085803f58d6bbd31ca","679edec7b9157d482c776885","","null","<img     src='G_7.jpg' height='90'> <img     src='G_1.jpg' height='90'> <img     src='G_6.jpg' height='90'> <img      src='G_5.jpg' height='90'> <img   src='G_3.jpg' height='90'> <img id='selected'      src='G_2.jpg' height='90'> <img id='selected' src='G_4.jpg' height='90'> <img src='G_8.jpg' height='90'>","null","Animation1"
"","","","","","html-keyboard-response","110","193367","0.0-98.0","10","1","2025-02-02 02:56:16","bc01a2b6f61d06f6604adb8657495020","71.77.28.8","Mozilla/5.0 (Macintosh; Intel Mac OS X 10_15_7) AppleWebKit/605.1.15 (KHTML, like Gecko) Version/18.2 Safari/605.1.15","Macintosh","Safari","18.2","OS X","10_15_7","https://app.prolific.com/","en-US,en;q=0.9","67984b666b7cabdc214cd5f2","679edb085803f58d6bbd31ca","679edec7b9157d482c776885","","null","<img     src='G_7.jpg' height='90'> <img     src='G_1.jpg' height='90'> <img     src='G_6.jpg' height='90'> <img      src='G_5.jpg' height='90'> <img   src='G_3.jpg' height='90'> <img       src='G_2.jpg' height='90'> <img  src='G_4.jpg' height='90'> <img src='G_8.jpg' height='90'>","null","Animation1"
"","","","","","html-keyboard-response","111","193874","0.0-99.0","10","1","2025-02-02 02:56:16","bc01a2b6f61d06f6604adb8657495020","71.77.28.8","Mozilla/5.0 (Macintosh; Intel Mac OS X 10_15_7) AppleWebKit/605.1.15 (KHTML, like Gecko) Version/18.2 Safari/605.1.15","Macintosh","Safari","18.2","OS X","10_15_7","https://app.prolific.com/","en-US,en;q=0.9","67984b666b7cabdc214cd5f2","679edb085803f58d6bbd31ca","679edec7b9157d482c776885","","null","<img     src='G_7.jpg' height='90'> <img     src='G_1.jpg' height='90'> <img     src='G_6.jpg' height='90'> <img      src='G_5.jpg' height='90'> <img   src='G_3.jpg' height='90'> <img       src='G_2.jpg' height='90'> <img id='selected'  src='G_4.jpg' height='90'> <img src='G_8.jpg' height='90'>","null","Animation1"
"","","","","","html-keyboard-response","112","194381","0.0-100.0","10","1","2025-02-02 02:56:16","bc01a2b6f61d06f6604adb8657495020","71.77.28.8","Mozilla/5.0 (Macintosh; Intel Mac OS X 10_15_7) AppleWebKit/605.1.15 (KHTML, like Gecko) Version/18.2 Safari/605.1.15","Macintosh","Safari","18.2","OS X","10_15_7","https://app.prolific.com/","en-US,en;q=0.9","67984b666b7cabdc214cd5f2","679edb085803f58d6bbd31ca","679edec7b9157d482c776885","","null","<img     src='G_7.jpg' height='90'> <img     src='G_1.jpg' height='90'> <img     src='G_6.jpg' height='90'> <img      src='G_5.jpg' height='90'> <img   src='G_3.jpg' height='90'> <img       src='G_2.jpg' height='90'> <img id='selected'  src='G_4.jpg' height='90'> <img id='selected' src='G_8.jpg' height='90'>","null","Animation1"
"","","","","","html-keyboard-response","113","194888","0.0-101.0","10","1","2025-02-02 02:56:16","bc01a2b6f61d06f6604adb8657495020","71.77.28.8","Mozilla/5.0 (Macintosh; Intel Mac OS X 10_15_7) AppleWebKit/605.1.15 (KHTML, like Gecko) Version/18.2 Safari/605.1.15","Macintosh","Safari","18.2","OS X","10_15_7","https://app.prolific.com/","en-US,en;q=0.9","67984b666b7cabdc214cd5f2","679edb085803f58d6bbd31ca","679edec7b9157d482c776885","","null","<img     src='G_7.jpg' height='90'> <img     src='G_1.jpg' height='90'> <img     src='G_6.jpg' height='90'> <img      src='G_5.jpg' height='90'> <img   src='G_3.jpg' height='90'> <img       src='G_2.jpg' height='90'> <img id='swapped' src='G_8.jpg' height='90'> <img id='swapped'  src='G_4.jpg' height='90'>","null","Animation1"
"","","","","","html-keyboard-response","114","195194","0.0-102.0","10","1","2025-02-02 02:56:16","bc01a2b6f61d06f6604adb8657495020","71.77.28.8","Mozilla/5.0 (Macintosh; Intel Mac OS X 10_15_7) AppleWebKit/605.1.15 (KHTML, like Gecko) Version/18.2 Safari/605.1.15","Macintosh","Safari","18.2","OS X","10_15_7","https://app.prolific.com/","en-US,en;q=0.9","67984b666b7cabdc214cd5f2","679edb085803f58d6bbd31ca","679edec7b9157d482c776885","","null","<img     src='G_7.jpg' height='90'> <img     src='G_1.jpg' height='90'> <img     src='G_6.jpg' height='90'> <img      src='G_5.jpg' height='90'> <img   src='G_3.jpg' height='90'> <img       src='G_2.jpg' height='90'> <img  src='G_8.jpg' height='90'> <img   src='G_4.jpg' height='90'>","null","Animation1"
"","","","","","html-keyboard-response","115","195701","0.0-103.0","10","1","2025-02-02 02:56:16","bc01a2b6f61d06f6604adb8657495020","71.77.28.8","Mozilla/5.0 (Macintosh; Intel Mac OS X 10_15_7) AppleWebKit/605.1.15 (KHTML, like Gecko) Version/18.2 Safari/605.1.15","Macintosh","Safari","18.2","OS X","10_15_7","https://app.prolific.com/","en-US,en;q=0.9","67984b666b7cabdc214cd5f2","679edb085803f58d6bbd31ca","679edec7b9157d482c776885","","null","<img     src='G_7.jpg' height='90'> <img     src='G_1.jpg' height='90'> <img     src='G_6.jpg' height='90'> <img      src='G_5.jpg' height='90'> <img   src='G_3.jpg' height='90'> <img id='selected'       src='G_2.jpg' height='90'> <img  src='G_8.jpg' height='90'> <img   src='G_4.jpg' height='90'>","null","Animation1"
"","","","","","html-keyboard-response","116","196208","0.0-104.0","10","1","2025-02-02 02:56:16","bc01a2b6f61d06f6604adb8657495020","71.77.28.8","Mozilla/5.0 (Macintosh; Intel Mac OS X 10_15_7) AppleWebKit/605.1.15 (KHTML, like Gecko) Version/18.2 Safari/605.1.15","Macintosh","Safari","18.2","OS X","10_15_7","https://app.prolific.com/","en-US,en;q=0.9","67984b666b7cabdc214cd5f2","679edb085803f58d6bbd31ca","679edec7b9157d482c776885","","null","<img     src='G_7.jpg' height='90'> <img     src='G_1.jpg' height='90'> <img     src='G_6.jpg' height='90'> <img      src='G_5.jpg' height='90'> <img   src='G_3.jpg' height='90'> <img id='selected'       src='G_2.jpg' height='90'> <img id='selected'  src='G_8.jpg' height='90'> <img   src='G_4.jpg' height='90'>","null","Animation1"
"","","","","","html-keyboard-response","117","196715","0.0-105.0","10","1","2025-02-02 02:56:16","bc01a2b6f61d06f6604adb8657495020","71.77.28.8","Mozilla/5.0 (Macintosh; Intel Mac OS X 10_15_7) AppleWebKit/605.1.15 (KHTML, like Gecko) Version/18.2 Safari/605.1.15","Macintosh","Safari","18.2","OS X","10_15_7","https://app.prolific.com/","en-US,en;q=0.9","67984b666b7cabdc214cd5f2","679edb085803f58d6bbd31ca","679edec7b9157d482c776885","","null","<img     src='G_7.jpg' height='90'> <img     src='G_1.jpg' height='90'> <img     src='G_6.jpg' height='90'> <img      src='G_5.jpg' height='90'> <img   src='G_3.jpg' height='90'> <img id='selected'       src='G_2.jpg' height='90'> <img id='selected'  src='G_8.jpg' height='90'> <img   src='G_4.jpg' height='90'>","null","Animation1"
"","","","","","html-keyboard-response","118","197022","0.0-106.0","10","1","2025-02-02 02:56:16","bc01a2b6f61d06f6604adb8657495020","71.77.28.8","Mozilla/5.0 (Macintosh; Intel Mac OS X 10_15_7) AppleWebKit/605.1.15 (KHTML, like Gecko) Version/18.2 Safari/605.1.15","Macintosh","Safari","18.2","OS X","10_15_7","https://app.prolific.com/","en-US,en;q=0.9","67984b666b7cabdc214cd5f2","679edb085803f58d6bbd31ca","679edec7b9157d482c776885","","null","<img     src='G_7.jpg' height='90'> <img     src='G_1.jpg' height='90'> <img     src='G_6.jpg' height='90'> <img      src='G_5.jpg' height='90'> <img   src='G_3.jpg' height='90'> <img        src='G_2.jpg' height='90'> <img   src='G_8.jpg' height='90'> <img   src='G_4.jpg' height='90'>","null","Animation1"
"","","","","","html-keyboard-response","119","198994","0.0-107.0","10","1","2025-02-02 02:56:16","bc01a2b6f61d06f6604adb8657495020","71.77.28.8","Mozilla/5.0 (Macintosh; Intel Mac OS X 10_15_7) AppleWebKit/605.1.15 (KHTML, like Gecko) Version/18.2 Safari/605.1.15","Macintosh","Safari","18.2","OS X","10_15_7","https://app.prolific.com/","en-US,en;q=0.9","67984b666b7cabdc214cd5f2","679edb085803f58d6bbd31ca","679edec7b9157d482c776885","","1966","[""Did you notice any patterns? <br><br>Press Enter to watch that example again and follow the steps of Omgne Sort.""]","enter",""
"","","","","","html-button-response","120","199402","0.0-108.0","10","1","2025-02-02 02:56:16","bc01a2b6f61d06f6604adb8657495020","71.77.28.8","Mozilla/5.0 (Macintosh; Intel Mac OS X 10_15_7) AppleWebKit/605.1.15 (KHTML, like Gecko) Version/18.2 Safari/605.1.15","Macintosh","Safari","18.2","OS X","10_15_7","https://app.prolific.com/","en-US,en;q=0.9","67984b666b7cabdc214cd5f2","679edb085803f58d6bbd31ca","679edec7b9157d482c776885","","null","<img id='selected' src='G_5.jpg' height='90'> <img src='G_2.jpg' height='90'> <img src='G_6.jpg' height='90'> <img src='G_7.jpg' height='90'> <img src='G_1.jpg' height='90'> <img src='G_3.jpg' height='90'> <img src='G_4.jpg' height='90'> <img src='G_8.jpg' height='90'>","null","Learning example 1"
"","","","","","html-button-response","121","199709","0.0-109.0","10","1","2025-02-02 02:56:16","bc01a2b6f61d06f6604adb8657495020","71.77.28.8","Mozilla/5.0 (Macintosh; Intel Mac OS X 10_15_7) AppleWebKit/605.1.15 (KHTML, like Gecko) Version/18.2 Safari/605.1.15","Macintosh","Safari","18.2","OS X","10_15_7","https://app.prolific.com/","en-US,en;q=0.9","67984b666b7cabdc214cd5f2","679edb085803f58d6bbd31ca","679edec7b9157d482c776885","","null","<img id='selected' src='G_5.jpg' height='90'> <img id='selected' src='G_2.jpg' height='90'> <img src='G_6.jpg' height='90'> <img src='G_7.jpg' height='90'> <img src='G_1.jpg' height='90'> <img src='G_3.jpg' height='90'> <img src='G_4.jpg' height='90'> <img src='G_8.jpg' height='90'>","null","Learning example 1"
"","","","","","html-button-response","122","200017","0.0-110.0","10","1","2025-02-02 02:56:16","bc01a2b6f61d06f6604adb8657495020","71.77.28.8","Mozilla/5.0 (Macintosh; Intel Mac OS X 10_15_7) AppleWebKit/605.1.15 (KHTML, like Gecko) Version/18.2 Safari/605.1.15","Macintosh","Safari","18.2","OS X","10_15_7","https://app.prolific.com/","en-US,en;q=0.9","67984b666b7cabdc214cd5f2","679edb085803f58d6bbd31ca","679edec7b9157d482c776885","","null","<img id='selected' src='G_5.jpg' height='90'> <img id='selected' src='G_2.jpg' height='90'> <img src='G_6.jpg' height='90'> <img src='G_7.jpg' height='90'> <img src='G_1.jpg' height='90'> <img src='G_3.jpg' height='90'> <img src='G_4.jpg' height='90'> <img src='G_8.jpg' height='90'>","null","Learning example 1"
"","","","","","html-button-response","123","201829","0.0-111.0-0.0-0.0","10","1","2025-02-02 02:56:16","bc01a2b6f61d06f6604adb8657495020","71.77.28.8","Mozilla/5.0 (Macintosh; Intel Mac OS X 10_15_7) AppleWebKit/605.1.15 (KHTML, like Gecko) Version/18.2 Safari/605.1.15","Macintosh","Safari","18.2","OS X","10_15_7","https://app.prolific.com/","en-US,en;q=0.9","67984b666b7cabdc214cd5f2","679edb085803f58d6bbd31ca","679edec7b9157d482c776885","","1804","<img id='selected' src='G_5.jpg' height='90'> <img id='selected' src='G_2.jpg' height='90'> <img src='G_6.jpg' height='90'> <img src='G_7.jpg' height='90'> <img src='G_1.jpg' height='90'> <img src='G_3.jpg' height='90'> <img src='G_4.jpg' height='90'> <img src='G_8.jpg' height='90'>","0","Learning example 1"
"","","","","","html-button-response","124","202178","0.0-111.1-0.1-0.1","10","1","2025-02-02 02:56:16","bc01a2b6f61d06f6604adb8657495020","71.77.28.8","Mozilla/5.0 (Macintosh; Intel Mac OS X 10_15_7) AppleWebKit/605.1.15 (KHTML, like Gecko) Version/18.2 Safari/605.1.15","Macintosh","Safari","18.2","OS X","10_15_7","https://app.prolific.com/","en-US,en;q=0.9","67984b666b7cabdc214cd5f2","679edb085803f58d6bbd31ca","679edec7b9157d482c776885","","346","<img id='selected' src='G_5.jpg' height='90'> <img id='selected' src='G_2.jpg' height='90'> <img src='G_6.jpg' height='90'> <img src='G_7.jpg' height='90'> <img src='G_1.jpg' height='90'> <img src='G_3.jpg' height='90'> <img src='G_4.jpg' height='90'> <img src='G_8.jpg' height='90'>","1","Learning example 1"
"","","","","","html-button-response","125","202384","0.0-112.0","10","1","2025-02-02 02:56:16","bc01a2b6f61d06f6604adb8657495020","71.77.28.8","Mozilla/5.0 (Macintosh; Intel Mac OS X 10_15_7) AppleWebKit/605.1.15 (KHTML, like Gecko) Version/18.2 Safari/605.1.15","Macintosh","Safari","18.2","OS X","10_15_7","https://app.prolific.com/","en-US,en;q=0.9","67984b666b7cabdc214cd5f2","679edb085803f58d6bbd31ca","679edec7b9157d482c776885","","null","<img  src='G_5.jpg' height='90'> <img  src='G_2.jpg' height='90'> <img src='G_6.jpg' height='90'> <img src='G_7.jpg' height='90'> <img src='G_1.jpg' height='90'> <img src='G_3.jpg' height='90'> <img src='G_4.jpg' height='90'> <img src='G_8.jpg' height='90'>","null","Learning example 1"
"","","","","","html-button-response","126","202792","0.0-113.0","10","1","2025-02-02 02:56:16","bc01a2b6f61d06f6604adb8657495020","71.77.28.8","Mozilla/5.0 (Macintosh; Intel Mac OS X 10_15_7) AppleWebKit/605.1.15 (KHTML, like Gecko) Version/18.2 Safari/605.1.15","Macintosh","Safari","18.2","OS X","10_15_7","https://app.prolific.com/","en-US,en;q=0.9","67984b666b7cabdc214cd5f2","679edb085803f58d6bbd31ca","679edec7b9157d482c776885","","null","<img  src='G_5.jpg' height='90'> <img id='selected'  src='G_2.jpg' height='90'> <img src='G_6.jpg' height='90'> <img src='G_7.jpg' height='90'> <img src='G_1.jpg' height='90'> <img src='G_3.jpg' height='90'> <img src='G_4.jpg' height='90'> <img src='G_8.jpg' height='90'>","null","Learning example 1"
"","","","","","html-button-response","127","203100","0.0-114.0","10","1","2025-02-02 02:56:16","bc01a2b6f61d06f6604adb8657495020","71.77.28.8","Mozilla/5.0 (Macintosh; Intel Mac OS X 10_15_7) AppleWebKit/605.1.15 (KHTML, like Gecko) Version/18.2 Safari/605.1.15","Macintosh","Safari","18.2","OS X","10_15_7","https://app.prolific.com/","en-US,en;q=0.9","67984b666b7cabdc214cd5f2","679edb085803f58d6bbd31ca","679edec7b9157d482c776885","","null","<img  src='G_5.jpg' height='90'> <img id='selected'  src='G_2.jpg' height='90'> <img id='selected' src='G_6.jpg' height='90'> <img src='G_7.jpg' height='90'> <img src='G_1.jpg' height='90'> <img src='G_3.jpg' height='90'> <img src='G_4.jpg' height='90'> <img src='G_8.jpg' height='90'>","null","Learning example 1"
"","","","","","html-button-response","128","203408","0.0-115.0","10","1","2025-02-02 02:56:16","bc01a2b6f61d06f6604adb8657495020","71.77.28.8","Mozilla/5.0 (Macintosh; Intel Mac OS X 10_15_7) AppleWebKit/605.1.15 (KHTML, like Gecko) Version/18.2 Safari/605.1.15","Macintosh","Safari","18.2","OS X","10_15_7","https://app.prolific.com/","en-US,en;q=0.9","67984b666b7cabdc214cd5f2","679edb085803f58d6bbd31ca","679edec7b9157d482c776885","","null","<img  src='G_5.jpg' height='90'> <img id='swapped' src='G_6.jpg' height='90'> <img id='swapped'  src='G_2.jpg' height='90'> <img src='G_7.jpg' height='90'> <img src='G_1.jpg' height='90'> <img src='G_3.jpg' height='90'> <img src='G_4.jpg' height='90'> <img src='G_8.jpg' height='90'>","null","Learning example 1"
"","","","","","html-button-response","129","204245","0.0-116.0-0.0-0.0","10","1","2025-02-02 02:56:16","bc01a2b6f61d06f6604adb8657495020","71.77.28.8","Mozilla/5.0 (Macintosh; Intel Mac OS X 10_15_7) AppleWebKit/605.1.15 (KHTML, like Gecko) Version/18.2 Safari/605.1.15","Macintosh","Safari","18.2","OS X","10_15_7","https://app.prolific.com/","en-US,en;q=0.9","67984b666b7cabdc214cd5f2","679edb085803f58d6bbd31ca","679edec7b9157d482c776885","","831","<img  src='G_5.jpg' height='90'> <img id='swapped' src='G_6.jpg' height='90'> <img id='swapped'  src='G_2.jpg' height='90'> <img src='G_7.jpg' height='90'> <img src='G_1.jpg' height='90'> <img src='G_3.jpg' height='90'> <img src='G_4.jpg' height='90'> <img src='G_8.jpg' height='90'>","1","Learning example 1"
"","","","","","html-button-response","130","204613","0.0-116.1-0.1-0.1","10","1","2025-02-02 02:56:16","bc01a2b6f61d06f6604adb8657495020","71.77.28.8","Mozilla/5.0 (Macintosh; Intel Mac OS X 10_15_7) AppleWebKit/605.1.15 (KHTML, like Gecko) Version/18.2 Safari/605.1.15","Macintosh","Safari","18.2","OS X","10_15_7","https://app.prolific.com/","en-US,en;q=0.9","67984b666b7cabdc214cd5f2","679edb085803f58d6bbd31ca","679edec7b9157d482c776885","","363","<img  src='G_5.jpg' height='90'> <img id='swapped' src='G_6.jpg' height='90'> <img id='swapped'  src='G_2.jpg' height='90'> <img src='G_7.jpg' height='90'> <img src='G_1.jpg' height='90'> <img src='G_3.jpg' height='90'> <img src='G_4.jpg' height='90'> <img src='G_8.jpg' height='90'>","2","Learning example 1"
"","","","","","html-button-response","131","204818","0.0-117.0","10","1","2025-02-02 02:56:16","bc01a2b6f61d06f6604adb8657495020","71.77.28.8","Mozilla/5.0 (Macintosh; Intel Mac OS X 10_15_7) AppleWebKit/605.1.15 (KHTML, like Gecko) Version/18.2 Safari/605.1.15","Macintosh","Safari","18.2","OS X","10_15_7","https://app.prolific.com/","en-US,en;q=0.9","67984b666b7cabdc214cd5f2","679edb085803f58d6bbd31ca","679edec7b9157d482c776885","","null","<img  src='G_5.jpg' height='90'> <img  src='G_6.jpg' height='90'> <img   src='G_2.jpg' height='90'> <img src='G_7.jpg' height='90'> <img src='G_1.jpg' height='90'> <img src='G_3.jpg' height='90'> <img src='G_4.jpg' height='90'> <img src='G_8.jpg' height='90'>","null","Learning example 1"
"","","","","","html-button-response","132","205226","0.0-118.0","10","1","2025-02-02 02:56:16","bc01a2b6f61d06f6604adb8657495020","71.77.28.8","Mozilla/5.0 (Macintosh; Intel Mac OS X 10_15_7) AppleWebKit/605.1.15 (KHTML, like Gecko) Version/18.2 Safari/605.1.15","Macintosh","Safari","18.2","OS X","10_15_7","https://app.prolific.com/","en-US,en;q=0.9","67984b666b7cabdc214cd5f2","679edb085803f58d6bbd31ca","679edec7b9157d482c776885","","null","<img id='selected'  src='G_5.jpg' height='90'> <img  src='G_6.jpg' height='90'> <img   src='G_2.jpg' height='90'> <img src='G_7.jpg' height='90'> <img src='G_1.jpg' height='90'> <img src='G_3.jpg' height='90'> <img src='G_4.jpg' height='90'> <img src='G_8.jpg' height='90'>","null","Learning example 1"
"","","","","","html-button-response","133","205534","0.0-119.0","10","1","2025-02-02 02:56:16","bc01a2b6f61d06f6604adb8657495020","71.77.28.8","Mozilla/5.0 (Macintosh; Intel Mac OS X 10_15_7) AppleWebKit/605.1.15 (KHTML, like Gecko) Version/18.2 Safari/605.1.15","Macintosh","Safari","18.2","OS X","10_15_7","https://app.prolific.com/","en-US,en;q=0.9","67984b666b7cabdc214cd5f2","679edb085803f58d6bbd31ca","679edec7b9157d482c776885","","null","<img id='selected'  src='G_5.jpg' height='90'> <img id='selected'  src='G_6.jpg' height='90'> <img   src='G_2.jpg' height='90'> <img src='G_7.jpg' height='90'> <img src='G_1.jpg' height='90'> <img src='G_3.jpg' height='90'> <img src='G_4.jpg' height='90'> <img src='G_8.jpg' height='90'>","null","Learning example 1"
"","","","","","html-button-response","134","205842","0.0-120.0","10","1","2025-02-02 02:56:16","bc01a2b6f61d06f6604adb8657495020","71.77.28.8","Mozilla/5.0 (Macintosh; Intel Mac OS X 10_15_7) AppleWebKit/605.1.15 (KHTML, like Gecko) Version/18.2 Safari/605.1.15","Macintosh","Safari","18.2","OS X","10_15_7","https://app.prolific.com/","en-US,en;q=0.9","67984b666b7cabdc214cd5f2","679edb085803f58d6bbd31ca","679edec7b9157d482c776885","","null","<img id='swapped'  src='G_6.jpg' height='90'> <img id='swapped'  src='G_5.jpg' height='90'> <img   src='G_2.jpg' height='90'> <img src='G_7.jpg' height='90'> <img src='G_1.jpg' height='90'> <img src='G_3.jpg' height='90'> <img src='G_4.jpg' height='90'> <img src='G_8.jpg' height='90'>","null","Learning example 1"
"","","","","","html-button-response","135","206611","0.0-121.0-0.0-0.0","10","1","2025-02-02 02:56:16","bc01a2b6f61d06f6604adb8657495020","71.77.28.8","Mozilla/5.0 (Macintosh; Intel Mac OS X 10_15_7) AppleWebKit/605.1.15 (KHTML, like Gecko) Version/18.2 Safari/605.1.15","Macintosh","Safari","18.2","OS X","10_15_7","https://app.prolific.com/","en-US,en;q=0.9","67984b666b7cabdc214cd5f2","679edb085803f58d6bbd31ca","679edec7b9157d482c776885","","763","<img id='swapped'  src='G_6.jpg' height='90'> <img id='swapped'  src='G_5.jpg' height='90'> <img   src='G_2.jpg' height='90'> <img src='G_7.jpg' height='90'> <img src='G_1.jpg' height='90'> <img src='G_3.jpg' height='90'> <img src='G_4.jpg' height='90'> <img src='G_8.jpg' height='90'>","0","Learning example 1"
"","","","","","html-button-response","136","207080","0.0-121.1-0.1-0.1","10","1","2025-02-02 02:56:16","bc01a2b6f61d06f6604adb8657495020","71.77.28.8","Mozilla/5.0 (Macintosh; Intel Mac OS X 10_15_7) AppleWebKit/605.1.15 (KHTML, like Gecko) Version/18.2 Safari/605.1.15","Macintosh","Safari","18.2","OS X","10_15_7","https://app.prolific.com/","en-US,en;q=0.9","67984b666b7cabdc214cd5f2","679edb085803f58d6bbd31ca","679edec7b9157d482c776885","","464","<img id='swapped'  src='G_6.jpg' height='90'> <img id='swapped'  src='G_5.jpg' height='90'> <img   src='G_2.jpg' height='90'> <img src='G_7.jpg' height='90'> <img src='G_1.jpg' height='90'> <img src='G_3.jpg' height='90'> <img src='G_4.jpg' height='90'> <img src='G_8.jpg' height='90'>","1","Learning example 1"
"","","","","","html-button-response","137","207285","0.0-122.0","10","1","2025-02-02 02:56:16","bc01a2b6f61d06f6604adb8657495020","71.77.28.8","Mozilla/5.0 (Macintosh; Intel Mac OS X 10_15_7) AppleWebKit/605.1.15 (KHTML, like Gecko) Version/18.2 Safari/605.1.15","Macintosh","Safari","18.2","OS X","10_15_7","https://app.prolific.com/","en-US,en;q=0.9","67984b666b7cabdc214cd5f2","679edb085803f58d6bbd31ca","679edec7b9157d482c776885","","null","<img   src='G_6.jpg' height='90'> <img   src='G_5.jpg' height='90'> <img   src='G_2.jpg' height='90'> <img src='G_7.jpg' height='90'> <img src='G_1.jpg' height='90'> <img src='G_3.jpg' height='90'> <img src='G_4.jpg' height='90'> <img src='G_8.jpg' height='90'>","null","Learning example 1"
"","","","","","html-button-response","138","207692","0.0-123.0","10","1","2025-02-02 02:56:16","bc01a2b6f61d06f6604adb8657495020","71.77.28.8","Mozilla/5.0 (Macintosh; Intel Mac OS X 10_15_7) AppleWebKit/605.1.15 (KHTML, like Gecko) Version/18.2 Safari/605.1.15","Macintosh","Safari","18.2","OS X","10_15_7","https://app.prolific.com/","en-US,en;q=0.9","67984b666b7cabdc214cd5f2","679edb085803f58d6bbd31ca","679edec7b9157d482c776885","","null","<img   src='G_6.jpg' height='90'> <img   src='G_5.jpg' height='90'> <img id='selected'   src='G_2.jpg' height='90'> <img src='G_7.jpg' height='90'> <img src='G_1.jpg' height='90'> <img src='G_3.jpg' height='90'> <img src='G_4.jpg' height='90'> <img src='G_8.jpg' height='90'>","null","Learning example 1"
"","","","","","html-button-response","139","207999","0.0-124.0","10","1","2025-02-02 02:56:16","bc01a2b6f61d06f6604adb8657495020","71.77.28.8","Mozilla/5.0 (Macintosh; Intel Mac OS X 10_15_7) AppleWebKit/605.1.15 (KHTML, like Gecko) Version/18.2 Safari/605.1.15","Macintosh","Safari","18.2","OS X","10_15_7","https://app.prolific.com/","en-US,en;q=0.9","67984b666b7cabdc214cd5f2","679edb085803f58d6bbd31ca","679edec7b9157d482c776885","","null","<img   src='G_6.jpg' height='90'> <img   src='G_5.jpg' height='90'> <img id='selected'   src='G_2.jpg' height='90'> <img id='selected' src='G_7.jpg' height='90'> <img src='G_1.jpg' height='90'> <img src='G_3.jpg' height='90'> <img src='G_4.jpg' height='90'> <img src='G_8.jpg' height='90'>","null","Learning example 1"
"","","","","","html-button-response","140","208306","0.0-125.0","10","1","2025-02-02 02:56:16","bc01a2b6f61d06f6604adb8657495020","71.77.28.8","Mozilla/5.0 (Macintosh; Intel Mac OS X 10_15_7) AppleWebKit/605.1.15 (KHTML, like Gecko) Version/18.2 Safari/605.1.15","Macintosh","Safari","18.2","OS X","10_15_7","https://app.prolific.com/","en-US,en;q=0.9","67984b666b7cabdc214cd5f2","679edb085803f58d6bbd31ca","679edec7b9157d482c776885","","null","<img   src='G_6.jpg' height='90'> <img   src='G_5.jpg' height='90'> <img id='swapped' src='G_7.jpg' height='90'> <img id='swapped'   src='G_2.jpg' height='90'> <img src='G_1.jpg' height='90'> <img src='G_3.jpg' height='90'> <img src='G_4.jpg' height='90'> <img src='G_8.jpg' height='90'>","null","Learning example 1"
"","","","","","html-button-response","141","208879","0.0-126.0-0.0-0.0","10","1","2025-02-02 02:56:16","bc01a2b6f61d06f6604adb8657495020","71.77.28.8","Mozilla/5.0 (Macintosh; Intel Mac OS X 10_15_7) AppleWebKit/605.1.15 (KHTML, like Gecko) Version/18.2 Safari/605.1.15","Macintosh","Safari","18.2","OS X","10_15_7","https://app.prolific.com/","en-US,en;q=0.9","67984b666b7cabdc214cd5f2","679edb085803f58d6bbd31ca","679edec7b9157d482c776885","","566","<img   src='G_6.jpg' height='90'> <img   src='G_5.jpg' height='90'> <img id='swapped' src='G_7.jpg' height='90'> <img id='swapped'   src='G_2.jpg' height='90'> <img src='G_1.jpg' height='90'> <img src='G_3.jpg' height='90'> <img src='G_4.jpg' height='90'> <img src='G_8.jpg' height='90'>","2","Learning example 1"
