"success","timeout","failed_images","failed_audio","failed_video","trial_type","trial_index","time_elapsed","internal_node_id","run_id","condition","recorded_at","source_code_version","ip","user_agent","device","browser","browser_version","platform","platform_version","referer","accept_language","PROLIFIC_PID","STUDY_ID","SESSION_ID","view_history","rt","stimulus","response","phase","question_order","presented_choices"
"true","false","[]","[]","[]","preload","0","870","0.0-0.0","11","1","2025-02-02 02:56:33","bc01a2b6f61d06f6604adb8657495020","172.90.177.212","Mozilla/5.0 (Windows NT 10.0; Win64; x64) AppleWebKit/537.36 (KHTML, like Gecko) Chrome/132.0.0.0 Safari/537.36","WebKit","Chrome","132.0.0.0","Windows","10.0","https://app.prolific.com/","en-US,en;q=0.9","659ac6d9e91b332d5e91216c","679edb085803f58d6bbd31ca","679ededacd435ef449bd249e","","","","","","",""
"","","","","","instructions","1","6939","0.0-1.0","11","1","2025-02-02 02:56:33","bc01a2b6f61d06f6604adb8657495020","172.90.177.212","Mozilla/5.0 (Windows NT 10.0; Win64; x64) AppleWebKit/537.36 (KHTML, like Gecko) Chrome/132.0.0.0 Safari/537.36","WebKit","Chrome","132.0.0.0","Windows","10.0","https://app.prolific.com/","en-US,en;q=0.9","659ac6d9e91b332d5e91216c","679edb085803f58d6bbd31ca","679ededacd435ef449bd249e","[{""page_index"":0,""viewing_time"":6068}]","6068","","","","",""
"","","","","","html-keyboard-response","2","7448","0.0-2.0","11","1","2025-02-02 02:56:33","bc01a2b6f61d06f6604adb8657495020","172.90.177.212","Mozilla/5.0 (Windows NT 10.0; Win64; x64) AppleWebKit/537.36 (KHTML, like Gecko) Chrome/132.0.0.0 Safari/537.36","WebKit","Chrome","132.0.0.0","Windows","10.0","https://app.prolific.com/","en-US,en;q=0.9","659ac6d9e91b332d5e91216c","679edb085803f58d6bbd31ca","679ededacd435ef449bd249e","","null","<p> + <p/>","null","","",""
"","","","","","instructions","3","34456","0.0-3.0","11","1","2025-02-02 02:56:33","bc01a2b6f61d06f6604adb8657495020","172.90.177.212","Mozilla/5.0 (Windows NT 10.0; Win64; x64) AppleWebKit/537.36 (KHTML, like Gecko) Chrome/132.0.0.0 Safari/537.36","WebKit","Chrome","132.0.0.0","Windows","10.0","https://app.prolific.com/","en-US,en;q=0.9","659ac6d9e91b332d5e91216c","679edb085803f58d6bbd31ca","679ededacd435ef449bd249e","[{""page_index"":0,""viewing_time"":2421},{""page_index"":1,""viewing_time"":7183},{""page_index"":2,""viewing_time"":7794},{""page_index"":3,""viewing_time"":2539},{""page_index"":4,""viewing_time"":7070}]","27008","","","","",""
"","","","","","html-button-response","4","38342","0.0-4.0-0.0-0.0","11","1","2025-02-02 02:56:33","bc01a2b6f61d06f6604adb8657495020","172.90.177.212","Mozilla/5.0 (Windows NT 10.0; Win64; x64) AppleWebKit/537.36 (KHTML, like Gecko) Chrome/132.0.0.0 Safari/537.36","WebKit","Chrome","132.0.0.0","Windows","10.0","https://app.prolific.com/","en-US,en;q=0.9","659ac6d9e91b332d5e91216c","679edb085803f58d6bbd31ca","679ededacd435ef449bd249e","","3884","","2","Intro Trial","",""
"","","","","","html-button-response","5","39692","0.0-4.1-0.1-0.1","11","1","2025-02-02 02:56:33","bc01a2b6f61d06f6604adb8657495020","172.90.177.212","Mozilla/5.0 (Windows NT 10.0; Win64; x64) AppleWebKit/537.36 (KHTML, like Gecko) Chrome/132.0.0.0 Safari/537.36","WebKit","Chrome","132.0.0.0","Windows","10.0","https://app.prolific.com/","en-US,en;q=0.9","659ac6d9e91b332d5e91216c","679edb085803f58d6bbd31ca","679ededacd435ef449bd249e","","1349","","3","Intro Trial","",""
"","","","","","html-button-response","6","40697","0.0-4.2-0.2-0.2","11","1","2025-02-02 02:56:33","bc01a2b6f61d06f6604adb8657495020","172.90.177.212","Mozilla/5.0 (Windows NT 10.0; Win64; x64) AppleWebKit/537.36 (KHTML, like Gecko) Chrome/132.0.0.0 Safari/537.36","WebKit","Chrome","132.0.0.0","Windows","10.0","https://app.prolific.com/","en-US,en;q=0.9","659ac6d9e91b332d5e91216c","679edb085803f58d6bbd31ca","679ededacd435ef449bd249e","","1005","","2","Intro Trial","",""
"","","","","","html-button-response","7","41536","0.0-4.3-0.3-0.3","11","1","2025-02-02 02:56:33","bc01a2b6f61d06f6604adb8657495020","172.90.177.212","Mozilla/5.0 (Windows NT 10.0; Win64; x64) AppleWebKit/537.36 (KHTML, like Gecko) Chrome/132.0.0.0 Safari/537.36","WebKit","Chrome","132.0.0.0","Windows","10.0","https://app.prolific.com/","en-US,en;q=0.9","659ac6d9e91b332d5e91216c","679edb085803f58d6bbd31ca","679ededacd435ef449bd249e","","838","","3","Intro Trial","",""
"","","","","","html-button-response","8","42011","0.0-4.4-0.4-0.4","11","1","2025-02-02 02:56:33","bc01a2b6f61d06f6604adb8657495020","172.90.177.212","Mozilla/5.0 (Windows NT 10.0; Win64; x64) AppleWebKit/537.36 (KHTML, like Gecko) Chrome/132.0.0.0 Safari/537.36","WebKit","Chrome","132.0.0.0","Windows","10.0","https://app.prolific.com/","en-US,en;q=0.9","659ac6d9e91b332d5e91216c","679edb085803f58d6bbd31ca","679ededacd435ef449bd249e","","475","","3","Intro Trial","",""
"","","","","","html-button-response","9","42215","0.0-4.5-0.5-0.5","11","1","2025-02-02 02:56:33","bc01a2b6f61d06f6604adb8657495020","172.90.177.212","Mozilla/5.0 (Windows NT 10.0; Win64; x64) AppleWebKit/537.36 (KHTML, like Gecko) Chrome/132.0.0.0 Safari/537.36","WebKit","Chrome","132.0.0.0","Windows","10.0","https://app.prolific.com/","en-US,en;q=0.9","659ac6d9e91b332d5e91216c","679edb085803f58d6bbd31ca","679ededacd435ef449bd249e","","203","","3","Intro Trial","",""
"","","","","","html-button-response","10","42692","0.0-4.6-0.6-0.6","11","1","2025-02-02 02:56:33","bc01a2b6f61d06f6604adb8657495020","172.90.177.212","Mozilla/5.0 (Windows NT 10.0; Win64; x64) AppleWebKit/537.36 (KHTML, like Gecko) Chrome/132.0.0.0 Safari/537.36","WebKit","Chrome","132.0.0.0","Windows","10.0","https://app.prolific.com/","en-US,en;q=0.9","659ac6d9e91b332d5e91216c","679edb085803f58d6bbd31ca","679ededacd435ef449bd249e","","477","","3","Intro Trial","",""
"","","","","","html-button-response","11","42915","0.0-4.7-0.7-0.7","11","1","2025-02-02 02:56:33","bc01a2b6f61d06f6604adb8657495020","172.90.177.212","Mozilla/5.0 (Windows NT 10.0; Win64; x64) AppleWebKit/537.36 (KHTML, like Gecko) Chrome/132.0.0.0 Safari/537.36","WebKit","Chrome","132.0.0.0","Windows","10.0","https://app.prolific.com/","en-US,en;q=0.9","659ac6d9e91b332d5e91216c","679edb085803f58d6bbd31ca","679ededacd435ef449bd249e","","222","","3","Intro Trial","",""
"","","","","","html-button-response","12","43573","0.0-4.8-0.8-0.8","11","1","2025-02-02 02:56:33","bc01a2b6f61d06f6604adb8657495020","172.90.177.212","Mozilla/5.0 (Windows NT 10.0; Win64; x64) AppleWebKit/537.36 (KHTML, like Gecko) Chrome/132.0.0.0 Safari/537.36","WebKit","Chrome","132.0.0.0","Windows","10.0","https://app.prolific.com/","en-US,en;q=0.9","659ac6d9e91b332d5e91216c","679edb085803f58d6bbd31ca","679ededacd435ef449bd249e","","656","","2","Intro Trial","",""
"","","","","","html-button-response","13","44601","0.0-4.9-0.9-0.9","11","1","2025-02-02 02:56:33","bc01a2b6f61d06f6604adb8657495020","172.90.177.212","Mozilla/5.0 (Windows NT 10.0; Win64; x64) AppleWebKit/537.36 (KHTML, like Gecko) Chrome/132.0.0.0 Safari/537.36","WebKit","Chrome","132.0.0.0","Windows","10.0","https://app.prolific.com/","en-US,en;q=0.9","659ac6d9e91b332d5e91216c","679edb085803f58d6bbd31ca","679ededacd435ef449bd249e","","1028","","5","Intro Trial","",""
"","","","","","html-keyboard-response","14","57330","0.0-5.0","11","1","2025-02-02 02:56:33","bc01a2b6f61d06f6604adb8657495020","172.90.177.212","Mozilla/5.0 (Windows NT 10.0; Win64; x64) AppleWebKit/537.36 (KHTML, like Gecko) Chrome/132.0.0.0 Safari/537.36","WebKit","Chrome","132.0.0.0","Windows","10.0","https://app.prolific.com/","en-US,en;q=0.9","659ac6d9e91b332d5e91216c","679edb085803f58d6bbd31ca","679ededacd435ef449bd249e","","12728","[""You sorted incorrectly by using the balance 2 times. <br><br> <img src='G_1.jpg' height='90'><img src='G_2.jpg' height='90'><img src='G_3.jpg' height='90'><img src='G_4.jpg' height='90'><img src='G_5.jpg' height='90'><br><br> Your final order is 4,2,3,5,1<br><br><br>Omgne Sort in this game will allow you to sort correctly by using the balance 8 times. Press Enter to learn it!""]","enter","","",""
"","","","","","html-keyboard-response","15","61158","0.0-6.0","11","1","2025-02-02 02:56:33","bc01a2b6f61d06f6604adb8657495020","172.90.177.212","Mozilla/5.0 (Windows NT 10.0; Win64; x64) AppleWebKit/537.36 (KHTML, like Gecko) Chrome/132.0.0.0 Safari/537.36","WebKit","Chrome","132.0.0.0","Windows","10.0","https://app.prolific.com/","en-US,en;q=0.9","659ac6d9e91b332d5e91216c","679edb085803f58d6bbd31ca","679ededacd435ef449bd249e","","3827","<p>Welcome to the learning phase! <br><br> You will learn by six examples. The following learning trials will not be used to calculate your performance. <br><br> Press Enter to continue.<p/>","enter","","",""
"","","","","","html-keyboard-response","16","65724","0.0-7.0","11","1","2025-02-02 02:56:33","bc01a2b6f61d06f6604adb8657495020","172.90.177.212","Mozilla/5.0 (Windows NT 10.0; Win64; x64) AppleWebKit/537.36 (KHTML, like Gecko) Chrome/132.0.0.0 Safari/537.36","WebKit","Chrome","132.0.0.0","Windows","10.0","https://app.prolific.com/","en-US,en;q=0.9","659ac6d9e91b332d5e91216c","679edb085803f58d6bbd31ca","679ededacd435ef449bd249e","","4566","[""Example 1<br><br>You will watch Omnge Sort in action. Try to identify any patterns in the comparisons made by this method. <br><br>Press Enter to continue.""]","enter","","",""
"","","","","","html-keyboard-response","17","66236","0.0-8.0","11","1","2025-02-02 02:56:33","bc01a2b6f61d06f6604adb8657495020","172.90.177.212","Mozilla/5.0 (Windows NT 10.0; Win64; x64) AppleWebKit/537.36 (KHTML, like Gecko) Chrome/132.0.0.0 Safari/537.36","WebKit","Chrome","132.0.0.0","Windows","10.0","https://app.prolific.com/","en-US,en;q=0.9","659ac6d9e91b332d5e91216c","679edb085803f58d6bbd31ca","679ededacd435ef449bd249e","","null","<img id='selected' src='G_5.jpg' height='90'> <img src='G_7.jpg' height='90'> <img src='G_3.jpg' height='90'> <img src='G_9.jpg' height='90'> <img src='G_1.jpg' height='90'>","null","Animation0","",""
"","","","","","html-keyboard-response","18","66752","0.0-9.0","11","1","2025-02-02 02:56:33","bc01a2b6f61d06f6604adb8657495020","172.90.177.212","Mozilla/5.0 (Windows NT 10.0; Win64; x64) AppleWebKit/537.36 (KHTML, like Gecko) Chrome/132.0.0.0 Safari/537.36","WebKit","Chrome","132.0.0.0","Windows","10.0","https://app.prolific.com/","en-US,en;q=0.9","659ac6d9e91b332d5e91216c","679edb085803f58d6bbd31ca","679ededacd435ef449bd249e","","null","<img id='selected' src='G_5.jpg' height='90'> <img id='selected' src='G_7.jpg' height='90'> <img src='G_3.jpg' height='90'> <img src='G_9.jpg' height='90'> <img src='G_1.jpg' height='90'>","null","Animation0","",""
"","","","","","html-keyboard-response","19","67255","0.0-10.0","11","1","2025-02-02 02:56:33","bc01a2b6f61d06f6604adb8657495020","172.90.177.212","Mozilla/5.0 (Windows NT 10.0; Win64; x64) AppleWebKit/537.36 (KHTML, like Gecko) Chrome/132.0.0.0 Safari/537.36","WebKit","Chrome","132.0.0.0","Windows","10.0","https://app.prolific.com/","en-US,en;q=0.9","659ac6d9e91b332d5e91216c","679edb085803f58d6bbd31ca","679ededacd435ef449bd249e","","null","<img id='swapped' src='G_7.jpg' height='90'> <img id='swapped' src='G_5.jpg' height='90'> <img src='G_3.jpg' height='90'> <img src='G_9.jpg' height='90'> <img src='G_1.jpg' height='90'>","null","Animation0","",""
"","","","","","html-keyboard-response","20","67560","0.0-11.0","11","1","2025-02-02 02:56:33","bc01a2b6f61d06f6604adb8657495020","172.90.177.212","Mozilla/5.0 (Windows NT 10.0; Win64; x64) AppleWebKit/537.36 (KHTML, like Gecko) Chrome/132.0.0.0 Safari/537.36","WebKit","Chrome","132.0.0.0","Windows","10.0","https://app.prolific.com/","en-US,en;q=0.9","659ac6d9e91b332d5e91216c","679edb085803f58d6bbd31ca","679ededacd435ef449bd249e","","null","<img  src='G_7.jpg' height='90'> <img  src='G_5.jpg' height='90'> <img src='G_3.jpg' height='90'> <img src='G_9.jpg' height='90'> <img src='G_1.jpg' height='90'>","null","Animation0","",""
"","","","","","html-keyboard-response","21","68065","0.0-12.0","11","1","2025-02-02 02:56:33","bc01a2b6f61d06f6604adb8657495020","172.90.177.212","Mozilla/5.0 (Windows NT 10.0; Win64; x64) AppleWebKit/537.36 (KHTML, like Gecko) Chrome/132.0.0.0 Safari/537.36","WebKit","Chrome","132.0.0.0","Windows","10.0","https://app.prolific.com/","en-US,en;q=0.9","659ac6d9e91b332d5e91216c","679edb085803f58d6bbd31ca","679ededacd435ef449bd249e","","null","<img  src='G_7.jpg' height='90'> <img id='selected'  src='G_5.jpg' height='90'> <img src='G_3.jpg' height='90'> <img src='G_9.jpg' height='90'> <img src='G_1.jpg' height='90'>","null","Animation0","",""
"","","","","","html-keyboard-response","22","68575","0.0-13.0","11","1","2025-02-02 02:56:33","bc01a2b6f61d06f6604adb8657495020","172.90.177.212","Mozilla/5.0 (Windows NT 10.0; Win64; x64) AppleWebKit/537.36 (KHTML, like Gecko) Chrome/132.0.0.0 Safari/537.36","WebKit","Chrome","132.0.0.0","Windows","10.0","https://app.prolific.com/","en-US,en;q=0.9","659ac6d9e91b332d5e91216c","679edb085803f58d6bbd31ca","679ededacd435ef449bd249e","","null","<img  src='G_7.jpg' height='90'> <img id='selected'  src='G_5.jpg' height='90'> <img id='selected' src='G_3.jpg' height='90'> <img src='G_9.jpg' height='90'> <img src='G_1.jpg' height='90'>","null","Animation0","",""
"","","","","","html-keyboard-response","23","69079","0.0-14.0","11","1","2025-02-02 02:56:33","bc01a2b6f61d06f6604adb8657495020","172.90.177.212","Mozilla/5.0 (Windows NT 10.0; Win64; x64) AppleWebKit/537.36 (KHTML, like Gecko) Chrome/132.0.0.0 Safari/537.36","WebKit","Chrome","132.0.0.0","Windows","10.0","https://app.prolific.com/","en-US,en;q=0.9","659ac6d9e91b332d5e91216c","679edb085803f58d6bbd31ca","679ededacd435ef449bd249e","","null","<img  src='G_7.jpg' height='90'> <img id='selected'  src='G_5.jpg' height='90'> <img id='selected' src='G_3.jpg' height='90'> <img src='G_9.jpg' height='90'> <img src='G_1.jpg' height='90'>","null","Animation0","",""
"","","","","","html-keyboard-response","24","69392","0.0-15.0","11","1","2025-02-02 02:56:33","bc01a2b6f61d06f6604adb8657495020","172.90.177.212","Mozilla/5.0 (Windows NT 10.0; Win64; x64) AppleWebKit/537.36 (KHTML, like Gecko) Chrome/132.0.0.0 Safari/537.36","WebKit","Chrome","132.0.0.0","Windows","10.0","https://app.prolific.com/","en-US,en;q=0.9","659ac6d9e91b332d5e91216c","679edb085803f58d6bbd31ca","679ededacd435ef449bd249e","","null","<img  src='G_7.jpg' height='90'> <img   src='G_5.jpg' height='90'> <img  src='G_3.jpg' height='90'> <img src='G_9.jpg' height='90'> <img src='G_1.jpg' height='90'>","null","Animation0","",""
"","","","","","html-keyboard-response","25","69898","0.0-16.0","11","1","2025-02-02 02:56:33","bc01a2b6f61d06f6604adb8657495020","172.90.177.212","Mozilla/5.0 (Windows NT 10.0; Win64; x64) AppleWebKit/537.36 (KHTML, like Gecko) Chrome/132.0.0.0 Safari/537.36","WebKit","Chrome","132.0.0.0","Windows","10.0","https://app.prolific.com/","en-US,en;q=0.9","659ac6d9e91b332d5e91216c","679edb085803f58d6bbd31ca","679ededacd435ef449bd249e","","null","<img  src='G_7.jpg' height='90'> <img   src='G_5.jpg' height='90'> <img id='selected'  src='G_3.jpg' height='90'> <img src='G_9.jpg' height='90'> <img src='G_1.jpg' height='90'>","null","Animation0","",""
"","","","","","html-keyboard-response","26","70404","0.0-17.0","11","1","2025-02-02 02:56:33","bc01a2b6f61d06f6604adb8657495020","172.90.177.212","Mozilla/5.0 (Windows NT 10.0; Win64; x64) AppleWebKit/537.36 (KHTML, like Gecko) Chrome/132.0.0.0 Safari/537.36","WebKit","Chrome","132.0.0.0","Windows","10.0","https://app.prolific.com/","en-US,en;q=0.9","659ac6d9e91b332d5e91216c","679edb085803f58d6bbd31ca","679ededacd435ef449bd249e","","null","<img  src='G_7.jpg' height='90'> <img   src='G_5.jpg' height='90'> <img id='selected'  src='G_3.jpg' height='90'> <img id='selected' src='G_9.jpg' height='90'> <img src='G_1.jpg' height='90'>","null","Animation0","",""
"","","","","","html-keyboard-response","27","70921","0.0-18.0","11","1","2025-02-02 02:56:33","bc01a2b6f61d06f6604adb8657495020","172.90.177.212","Mozilla/5.0 (Windows NT 10.0; Win64; x64) AppleWebKit/537.36 (KHTML, like Gecko) Chrome/132.0.0.0 Safari/537.36","WebKit","Chrome","132.0.0.0","Windows","10.0","https://app.prolific.com/","en-US,en;q=0.9","659ac6d9e91b332d5e91216c","679edb085803f58d6bbd31ca","679ededacd435ef449bd249e","","null","<img  src='G_7.jpg' height='90'> <img   src='G_5.jpg' height='90'> <img id='selected'  src='G_3.jpg' height='90'> <img id='selected' src='G_9.jpg' height='90'> <img src='G_1.jpg' height='90'>","null","Animation0","",""
"","","","","","html-keyboard-response","28","71231","0.0-19.0","11","1","2025-02-02 02:56:33","bc01a2b6f61d06f6604adb8657495020","172.90.177.212","Mozilla/5.0 (Windows NT 10.0; Win64; x64) AppleWebKit/537.36 (KHTML, like Gecko) Chrome/132.0.0.0 Safari/537.36","WebKit","Chrome","132.0.0.0","Windows","10.0","https://app.prolific.com/","en-US,en;q=0.9","659ac6d9e91b332d5e91216c","679edb085803f58d6bbd31ca","679ededacd435ef449bd249e","","null","<img  src='G_7.jpg' height='90'> <img   src='G_5.jpg' height='90'> <img   src='G_3.jpg' height='90'> <img  src='G_9.jpg' height='90'> <img src='G_1.jpg' height='90'>","null","Animation0","",""
"","","","","","html-keyboard-response","29","71737","0.0-20.0","11","1","2025-02-02 02:56:33","bc01a2b6f61d06f6604adb8657495020","172.90.177.212","Mozilla/5.0 (Windows NT 10.0; Win64; x64) AppleWebKit/537.36 (KHTML, like Gecko) Chrome/132.0.0.0 Safari/537.36","WebKit","Chrome","132.0.0.0","Windows","10.0","https://app.prolific.com/","en-US,en;q=0.9","659ac6d9e91b332d5e91216c","679edb085803f58d6bbd31ca","679ededacd435ef449bd249e","","null","<img  src='G_7.jpg' height='90'> <img   src='G_5.jpg' height='90'> <img   src='G_3.jpg' height='90'> <img id='selected'  src='G_9.jpg' height='90'> <img src='G_1.jpg' height='90'>","null","Animation0","",""
"","","","","","html-keyboard-response","30","72253","0.0-21.0","11","1","2025-02-02 02:56:33","bc01a2b6f61d06f6604adb8657495020","172.90.177.212","Mozilla/5.0 (Windows NT 10.0; Win64; x64) AppleWebKit/537.36 (KHTML, like Gecko) Chrome/132.0.0.0 Safari/537.36","WebKit","Chrome","132.0.0.0","Windows","10.0","https://app.prolific.com/","en-US,en;q=0.9","659ac6d9e91b332d5e91216c","679edb085803f58d6bbd31ca","679ededacd435ef449bd249e","","null","<img  src='G_7.jpg' height='90'> <img   src='G_5.jpg' height='90'> <img   src='G_3.jpg' height='90'> <img id='selected'  src='G_9.jpg' height='90'> <img id='selected' src='G_1.jpg' height='90'>","null","Animation0","",""
"","","","","","html-keyboard-response","31","72759","0.0-22.0","11","1","2025-02-02 02:56:33","bc01a2b6f61d06f6604adb8657495020","172.90.177.212","Mozilla/5.0 (Windows NT 10.0; Win64; x64) AppleWebKit/537.36 (KHTML, like Gecko) Chrome/132.0.0.0 Safari/537.36","WebKit","Chrome","132.0.0.0","Windows","10.0","https://app.prolific.com/","en-US,en;q=0.9","659ac6d9e91b332d5e91216c","679edb085803f58d6bbd31ca","679ededacd435ef449bd249e","","null","<img  src='G_7.jpg' height='90'> <img   src='G_5.jpg' height='90'> <img   src='G_3.jpg' height='90'> <img id='selected'  src='G_9.jpg' height='90'> <img id='selected' src='G_1.jpg' height='90'>","null","Animation0","",""
"","","","","","html-keyboard-response","32","73071","0.0-23.0","11","1","2025-02-02 02:56:33","bc01a2b6f61d06f6604adb8657495020","172.90.177.212","Mozilla/5.0 (Windows NT 10.0; Win64; x64) AppleWebKit/537.36 (KHTML, like Gecko) Chrome/132.0.0.0 Safari/537.36","WebKit","Chrome","132.0.0.0","Windows","10.0","https://app.prolific.com/","en-US,en;q=0.9","659ac6d9e91b332d5e91216c","679edb085803f58d6bbd31ca","679ededacd435ef449bd249e","","null","<img  src='G_7.jpg' height='90'> <img   src='G_5.jpg' height='90'> <img   src='G_3.jpg' height='90'> <img   src='G_9.jpg' height='90'> <img  src='G_1.jpg' height='90'>","null","Animation0","",""
"","","","","","html-keyboard-response","33","75883","0.0-24.0","11","1","2025-02-02 02:56:33","bc01a2b6f61d06f6604adb8657495020","172.90.177.212","Mozilla/5.0 (Windows NT 10.0; Win64; x64) AppleWebKit/537.36 (KHTML, like Gecko) Chrome/132.0.0.0 Safari/537.36","WebKit","Chrome","132.0.0.0","Windows","10.0","https://app.prolific.com/","en-US,en;q=0.9","659ac6d9e91b332d5e91216c","679edb085803f58d6bbd31ca","679ededacd435ef449bd249e","","2811","[""Did you notice any patterns? <br><br>Press Enter to watch that example again and follow the steps of Omgne Sort.""]","enter","","",""
"","","","","","html-button-response","34","76300","0.0-25.0","11","1","2025-02-02 02:56:33","bc01a2b6f61d06f6604adb8657495020","172.90.177.212","Mozilla/5.0 (Windows NT 10.0; Win64; x64) AppleWebKit/537.36 (KHTML, like Gecko) Chrome/132.0.0.0 Safari/537.36","WebKit","Chrome","132.0.0.0","Windows","10.0","https://app.prolific.com/","en-US,en;q=0.9","659ac6d9e91b332d5e91216c","679edb085803f58d6bbd31ca","679ededacd435ef449bd249e","","null","<img id='selected' src='G_5.jpg' height='90'> <img src='G_7.jpg' height='90'> <img src='G_3.jpg' height='90'> <img src='G_9.jpg' height='90'> <img src='G_1.jpg' height='90'>","null","Learning example 0","",""
"","","","","","html-button-response","35","76606","0.0-26.0","11","1","2025-02-02 02:56:33","bc01a2b6f61d06f6604adb8657495020","172.90.177.212","Mozilla/5.0 (Windows NT 10.0; Win64; x64) AppleWebKit/537.36 (KHTML, like Gecko) Chrome/132.0.0.0 Safari/537.36","WebKit","Chrome","132.0.0.0","Windows","10.0","https://app.prolific.com/","en-US,en;q=0.9","659ac6d9e91b332d5e91216c","679edb085803f58d6bbd31ca","679ededacd435ef449bd249e","","null","<img id='selected' src='G_5.jpg' height='90'> <img id='selected' src='G_7.jpg' height='90'> <img src='G_3.jpg' height='90'> <img src='G_9.jpg' height='90'> <img src='G_1.jpg' height='90'>","null","Learning example 0","",""
"","","","","","html-button-response","36","76920","0.0-27.0","11","1","2025-02-02 02:56:33","bc01a2b6f61d06f6604adb8657495020","172.90.177.212","Mozilla/5.0 (Windows NT 10.0; Win64; x64) AppleWebKit/537.36 (KHTML, like Gecko) Chrome/132.0.0.0 Safari/537.36","WebKit","Chrome","132.0.0.0","Windows","10.0","https://app.prolific.com/","en-US,en;q=0.9","659ac6d9e91b332d5e91216c","679edb085803f58d6bbd31ca","679ededacd435ef449bd249e","","null","<img id='swapped' src='G_7.jpg' height='90'> <img id='swapped' src='G_5.jpg' height='90'> <img src='G_3.jpg' height='90'> <img src='G_9.jpg' height='90'> <img src='G_1.jpg' height='90'>","null","Learning example 0","",""
"","","","","","html-button-response","37","88460","0.0-28.0-0.0-0.0","11","1","2025-02-02 02:56:33","bc01a2b6f61d06f6604adb8657495020","172.90.177.212","Mozilla/5.0 (Windows NT 10.0; Win64; x64) AppleWebKit/537.36 (KHTML, like Gecko) Chrome/132.0.0.0 Safari/537.36","WebKit","Chrome","132.0.0.0","Windows","10.0","https://app.prolific.com/","en-US,en;q=0.9","659ac6d9e91b332d5e91216c","679edb085803f58d6bbd31ca","679ededacd435ef449bd249e","","11539","<img id='swapped' src='G_7.jpg' height='90'> <img id='swapped' src='G_5.jpg' height='90'> <img src='G_3.jpg' height='90'> <img src='G_9.jpg' height='90'> <img src='G_1.jpg' height='90'>","1","Learning example 0","",""
"","","","","","html-button-response","38","89147","0.0-28.1-0.1-0.1","11","1","2025-02-02 02:56:33","bc01a2b6f61d06f6604adb8657495020","172.90.177.212","Mozilla/5.0 (Windows NT 10.0; Win64; x64) AppleWebKit/537.36 (KHTML, like Gecko) Chrome/132.0.0.0 Safari/537.36","WebKit","Chrome","132.0.0.0","Windows","10.0","https://app.prolific.com/","en-US,en;q=0.9","659ac6d9e91b332d5e91216c","679edb085803f58d6bbd31ca","679ededacd435ef449bd249e","","686","<img id='swapped' src='G_7.jpg' height='90'> <img id='swapped' src='G_5.jpg' height='90'> <img src='G_3.jpg' height='90'> <img src='G_9.jpg' height='90'> <img src='G_1.jpg' height='90'>","0","Learning example 0","",""
"","","","","","html-button-response","39","89348","0.0-29.0","11","1","2025-02-02 02:56:33","bc01a2b6f61d06f6604adb8657495020","172.90.177.212","Mozilla/5.0 (Windows NT 10.0; Win64; x64) AppleWebKit/537.36 (KHTML, like Gecko) Chrome/132.0.0.0 Safari/537.36","WebKit","Chrome","132.0.0.0","Windows","10.0","https://app.prolific.com/","en-US,en;q=0.9","659ac6d9e91b332d5e91216c","679edb085803f58d6bbd31ca","679ededacd435ef449bd249e","","null","<img  src='G_7.jpg' height='90'> <img  src='G_5.jpg' height='90'> <img src='G_3.jpg' height='90'> <img src='G_9.jpg' height='90'> <img src='G_1.jpg' height='90'>","null","Learning example 0","",""
"","","","","","html-button-response","40","89753","0.0-30.0","11","1","2025-02-02 02:56:33","bc01a2b6f61d06f6604adb8657495020","172.90.177.212","Mozilla/5.0 (Windows NT 10.0; Win64; x64) AppleWebKit/537.36 (KHTML, like Gecko) Chrome/132.0.0.0 Safari/537.36","WebKit","Chrome","132.0.0.0","Windows","10.0","https://app.prolific.com/","en-US,en;q=0.9","659ac6d9e91b332d5e91216c","679edb085803f58d6bbd31ca","679ededacd435ef449bd249e","","null","<img  src='G_7.jpg' height='90'> <img id='selected'  src='G_5.jpg' height='90'> <img src='G_3.jpg' height='90'> <img src='G_9.jpg' height='90'> <img src='G_1.jpg' height='90'>","null","Learning example 0","",""
"","","","","","html-button-response","41","90056","0.0-31.0","11","1","2025-02-02 02:56:33","bc01a2b6f61d06f6604adb8657495020","172.90.177.212","Mozilla/5.0 (Windows NT 10.0; Win64; x64) AppleWebKit/537.36 (KHTML, like Gecko) Chrome/132.0.0.0 Safari/537.36","WebKit","Chrome","132.0.0.0","Windows","10.0","https://app.prolific.com/","en-US,en;q=0.9","659ac6d9e91b332d5e91216c","679edb085803f58d6bbd31ca","679ededacd435ef449bd249e","","null","<img  src='G_7.jpg' height='90'> <img id='selected'  src='G_5.jpg' height='90'> <img id='selected' src='G_3.jpg' height='90'> <img src='G_9.jpg' height='90'> <img src='G_1.jpg' height='90'>","null","Learning example 0","",""
"","","","","","html-button-response","42","90358","0.0-32.0","11","1","2025-02-02 02:56:33","bc01a2b6f61d06f6604adb8657495020","172.90.177.212","Mozilla/5.0 (Windows NT 10.0; Win64; x64) AppleWebKit/537.36 (KHTML, like Gecko) Chrome/132.0.0.0 Safari/537.36","WebKit","Chrome","132.0.0.0","Windows","10.0","https://app.prolific.com/","en-US,en;q=0.9","659ac6d9e91b332d5e91216c","679edb085803f58d6bbd31ca","679ededacd435ef449bd249e","","null","<img  src='G_7.jpg' height='90'> <img id='selected'  src='G_5.jpg' height='90'> <img id='selected' src='G_3.jpg' height='90'> <img src='G_9.jpg' height='90'> <img src='G_1.jpg' height='90'>","null","Learning example 0","",""
"","","","","","html-button-response","43","91333","0.0-33.0-0.0-0.0","11","1","2025-02-02 02:56:33","bc01a2b6f61d06f6604adb8657495020","172.90.177.212","Mozilla/5.0 (Windows NT 10.0; Win64; x64) AppleWebKit/537.36 (KHTML, like Gecko) Chrome/132.0.0.0 Safari/537.36","WebKit","Chrome","132.0.0.0","Windows","10.0","https://app.prolific.com/","en-US,en;q=0.9","659ac6d9e91b332d5e91216c","679edb085803f58d6bbd31ca","679ededacd435ef449bd249e","","974","<img  src='G_7.jpg' height='90'> <img id='selected'  src='G_5.jpg' height='90'> <img id='selected' src='G_3.jpg' height='90'> <img src='G_9.jpg' height='90'> <img src='G_1.jpg' height='90'>","1","Learning example 0","",""
"","","","","","html-button-response","44","91690","0.0-33.1-0.1-0.1","11","1","2025-02-02 02:56:33","bc01a2b6f61d06f6604adb8657495020","172.90.177.212","Mozilla/5.0 (Windows NT 10.0; Win64; x64) AppleWebKit/537.36 (KHTML, like Gecko) Chrome/132.0.0.0 Safari/537.36","WebKit","Chrome","132.0.0.0","Windows","10.0","https://app.prolific.com/","en-US,en;q=0.9","659ac6d9e91b332d5e91216c","679edb085803f58d6bbd31ca","679ededacd435ef449bd249e","","356","<img  src='G_7.jpg' height='90'> <img id='selected'  src='G_5.jpg' height='90'> <img id='selected' src='G_3.jpg' height='90'> <img src='G_9.jpg' height='90'> <img src='G_1.jpg' height='90'>","2","Learning example 0","",""
"","","","","","html-button-response","45","91892","0.0-34.0","11","1","2025-02-02 02:56:33","bc01a2b6f61d06f6604adb8657495020","172.90.177.212","Mozilla/5.0 (Windows NT 10.0; Win64; x64) AppleWebKit/537.36 (KHTML, like Gecko) Chrome/132.0.0.0 Safari/537.36","WebKit","Chrome","132.0.0.0","Windows","10.0","https://app.prolific.com/","en-US,en;q=0.9","659ac6d9e91b332d5e91216c","679edb085803f58d6bbd31ca","679ededacd435ef449bd249e","","null","<img  src='G_7.jpg' height='90'> <img   src='G_5.jpg' height='90'> <img  src='G_3.jpg' height='90'> <img src='G_9.jpg' height='90'> <img src='G_1.jpg' height='90'>","null","Learning example 0","",""
"","","","","","html-button-response","46","92304","0.0-35.0","11","1","2025-02-02 02:56:33","bc01a2b6f61d06f6604adb8657495020","172.90.177.212","Mozilla/5.0 (Windows NT 10.0; Win64; x64) AppleWebKit/537.36 (KHTML, like Gecko) Chrome/132.0.0.0 Safari/537.36","WebKit","Chrome","132.0.0.0","Windows","10.0","https://app.prolific.com/","en-US,en;q=0.9","659ac6d9e91b332d5e91216c","679edb085803f58d6bbd31ca","679ededacd435ef449bd249e","","null","<img  src='G_7.jpg' height='90'> <img   src='G_5.jpg' height='90'> <img id='selected'  src='G_3.jpg' height='90'> <img src='G_9.jpg' height='90'> <img src='G_1.jpg' height='90'>","null","Learning example 0","",""
"","","","","","html-button-response","47","92611","0.0-36.0","11","1","2025-02-02 02:56:33","bc01a2b6f61d06f6604adb8657495020","172.90.177.212","Mozilla/5.0 (Windows NT 10.0; Win64; x64) AppleWebKit/537.36 (KHTML, like Gecko) Chrome/132.0.0.0 Safari/537.36","WebKit","Chrome","132.0.0.0","Windows","10.0","https://app.prolific.com/","en-US,en;q=0.9","659ac6d9e91b332d5e91216c","679edb085803f58d6bbd31ca","679ededacd435ef449bd249e","","null","<img  src='G_7.jpg' height='90'> <img   src='G_5.jpg' height='90'> <img id='selected'  src='G_3.jpg' height='90'> <img id='selected' src='G_9.jpg' height='90'> <img src='G_1.jpg' height='90'>","null","Learning example 0","",""
"","","","","","html-button-response","48","92913","0.0-37.0","11","1","2025-02-02 02:56:33","bc01a2b6f61d06f6604adb8657495020","172.90.177.212","Mozilla/5.0 (Windows NT 10.0; Win64; x64) AppleWebKit/537.36 (KHTML, like Gecko) Chrome/132.0.0.0 Safari/537.36","WebKit","Chrome","132.0.0.0","Windows","10.0","https://app.prolific.com/","en-US,en;q=0.9","659ac6d9e91b332d5e91216c","679edb085803f58d6bbd31ca","679ededacd435ef449bd249e","","null","<img  src='G_7.jpg' height='90'> <img   src='G_5.jpg' height='90'> <img id='selected'  src='G_3.jpg' height='90'> <img id='selected' src='G_9.jpg' height='90'> <img src='G_1.jpg' height='90'>","null","Learning example 0","",""
"","","","","","html-button-response","49","93771","0.0-38.0-0.0-0.0","11","1","2025-02-02 02:56:33","bc01a2b6f61d06f6604adb8657495020","172.90.177.212","Mozilla/5.0 (Windows NT 10.0; Win64; x64) AppleWebKit/537.36 (KHTML, like Gecko) Chrome/132.0.0.0 Safari/537.36","WebKit","Chrome","132.0.0.0","Windows","10.0","https://app.prolific.com/","en-US,en;q=0.9","659ac6d9e91b332d5e91216c","679edb085803f58d6bbd31ca","679ededacd435ef449bd249e","","857","<img  src='G_7.jpg' height='90'> <img   src='G_5.jpg' height='90'> <img id='selected'  src='G_3.jpg' height='90'> <img id='selected' src='G_9.jpg' height='90'> <img src='G_1.jpg' height='90'>","3","Learning example 0","",""
"","","","","","html-button-response","50","95142","0.0-38.1-0.1-0.1","11","1","2025-02-02 02:56:33","bc01a2b6f61d06f6604adb8657495020","172.90.177.212","Mozilla/5.0 (Windows NT 10.0; Win64; x64) AppleWebKit/537.36 (KHTML, like Gecko) Chrome/132.0.0.0 Safari/537.36","WebKit","Chrome","132.0.0.0","Windows","10.0","https://app.prolific.com/","en-US,en;q=0.9","659ac6d9e91b332d5e91216c","679edb085803f58d6bbd31ca","679ededacd435ef449bd249e","","1370","<img  src='G_7.jpg' height='90'> <img   src='G_5.jpg' height='90'> <img id='selected'  src='G_3.jpg' height='90'> <img id='selected' src='G_9.jpg' height='90'> <img src='G_1.jpg' height='90'>","2","Learning example 0","",""
"","","","","","html-button-response","51","95345","0.0-39.0","11","1","2025-02-02 02:56:33","bc01a2b6f61d06f6604adb8657495020","172.90.177.212","Mozilla/5.0 (Windows NT 10.0; Win64; x64) AppleWebKit/537.36 (KHTML, like Gecko) Chrome/132.0.0.0 Safari/537.36","WebKit","Chrome","132.0.0.0","Windows","10.0","https://app.prolific.com/","en-US,en;q=0.9","659ac6d9e91b332d5e91216c","679edb085803f58d6bbd31ca","679ededacd435ef449bd249e","","null","<img  src='G_7.jpg' height='90'> <img   src='G_5.jpg' height='90'> <img   src='G_3.jpg' height='90'> <img  src='G_9.jpg' height='90'> <img src='G_1.jpg' height='90'>","null","Learning example 0","",""
"","","","","","html-button-response","52","95746","0.0-40.0","11","1","2025-02-02 02:56:33","bc01a2b6f61d06f6604adb8657495020","172.90.177.212","Mozilla/5.0 (Windows NT 10.0; Win64; x64) AppleWebKit/537.36 (KHTML, like Gecko) Chrome/132.0.0.0 Safari/537.36","WebKit","Chrome","132.0.0.0","Windows","10.0","https://app.prolific.com/","en-US,en;q=0.9","659ac6d9e91b332d5e91216c","679edb085803f58d6bbd31ca","679ededacd435ef449bd249e","","null","<img  src='G_7.jpg' height='90'> <img   src='G_5.jpg' height='90'> <img   src='G_3.jpg' height='90'> <img id='selected'  src='G_9.jpg' height='90'> <img src='G_1.jpg' height='90'>","null","Learning example 0","",""
"","","","","","html-button-response","53","96048","0.0-41.0","11","1","2025-02-02 02:56:33","bc01a2b6f61d06f6604adb8657495020","172.90.177.212","Mozilla/5.0 (Windows NT 10.0; Win64; x64) AppleWebKit/537.36 (KHTML, like Gecko) Chrome/132.0.0.0 Safari/537.36","WebKit","Chrome","132.0.0.0","Windows","10.0","https://app.prolific.com/","en-US,en;q=0.9","659ac6d9e91b332d5e91216c","679edb085803f58d6bbd31ca","679ededacd435ef449bd249e","","null","<img  src='G_7.jpg' height='90'> <img   src='G_5.jpg' height='90'> <img   src='G_3.jpg' height='90'> <img id='selected'  src='G_9.jpg' height='90'> <img id='selected' src='G_1.jpg' height='90'>","null","Learning example 0","",""
"","","","","","html-button-response","54","96361","0.0-42.0","11","1","2025-02-02 02:56:33","bc01a2b6f61d06f6604adb8657495020","172.90.177.212","Mozilla/5.0 (Windows NT 10.0; Win64; x64) AppleWebKit/537.36 (KHTML, like Gecko) Chrome/132.0.0.0 Safari/537.36","WebKit","Chrome","132.0.0.0","Windows","10.0","https://app.prolific.com/","en-US,en;q=0.9","659ac6d9e91b332d5e91216c","679edb085803f58d6bbd31ca","679ededacd435ef449bd249e","","null","<img  src='G_7.jpg' height='90'> <img   src='G_5.jpg' height='90'> <img   src='G_3.jpg' height='90'> <img id='selected'  src='G_9.jpg' height='90'> <img id='selected' src='G_1.jpg' height='90'>","null","Learning example 0","",""
"","","","","","html-button-response","55","96829","0.0-43.0-0.0-0.0","11","1","2025-02-02 02:56:33","bc01a2b6f61d06f6604adb8657495020","172.90.177.212","Mozilla/5.0 (Windows NT 10.0; Win64; x64) AppleWebKit/537.36 (KHTML, like Gecko) Chrome/132.0.0.0 Safari/537.36","WebKit","Chrome","132.0.0.0","Windows","10.0","https://app.prolific.com/","en-US,en;q=0.9","659ac6d9e91b332d5e91216c","679edb085803f58d6bbd31ca","679ededacd435ef449bd249e","","467","<img  src='G_7.jpg' height='90'> <img   src='G_5.jpg' height='90'> <img   src='G_3.jpg' height='90'> <img id='selected'  src='G_9.jpg' height='90'> <img id='selected' src='G_1.jpg' height='90'>","3","Learning example 0","",""
"","","","","","html-button-response","56","97374","0.0-43.1-0.1-0.1","11","1","2025-02-02 02:56:33","bc01a2b6f61d06f6604adb8657495020","172.90.177.212","Mozilla/5.0 (Windows NT 10.0; Win64; x64) AppleWebKit/537.36 (KHTML, like Gecko) Chrome/132.0.0.0 Safari/537.36","WebKit","Chrome","132.0.0.0","Windows","10.0","https://app.prolific.com/","en-US,en;q=0.9","659ac6d9e91b332d5e91216c","679edb085803f58d6bbd31ca","679ededacd435ef449bd249e","","544","<img  src='G_7.jpg' height='90'> <img   src='G_5.jpg' height='90'> <img   src='G_3.jpg' height='90'> <img id='selected'  src='G_9.jpg' height='90'> <img id='selected' src='G_1.jpg' height='90'>","4","Learning example 0","",""
"","","","","","html-button-response","57","97587","0.0-44.0","11","1","2025-02-02 02:56:33","bc01a2b6f61d06f6604adb8657495020","172.90.177.212","Mozilla/5.0 (Windows NT 10.0; Win64; x64) AppleWebKit/537.36 (KHTML, like Gecko) Chrome/132.0.0.0 Safari/537.36","WebKit","Chrome","132.0.0.0","Windows","10.0","https://app.prolific.com/","en-US,en;q=0.9","659ac6d9e91b332d5e91216c","679edb085803f58d6bbd31ca","679ededacd435ef449bd249e","","null","<img  src='G_7.jpg' height='90'> <img   src='G_5.jpg' height='90'> <img   src='G_3.jpg' height='90'> <img   src='G_9.jpg' height='90'> <img  src='G_1.jpg' height='90'>","null","Learning example 0","",""
"","","","","","html-keyboard-response","58","107623","0.0-45.0","11","1","2025-02-02 02:56:33","bc01a2b6f61d06f6604adb8657495020","172.90.177.212","Mozilla/5.0 (Windows NT 10.0; Win64; x64) AppleWebKit/537.36 (KHTML, like Gecko) Chrome/132.0.0.0 Safari/537.36","WebKit","Chrome","132.0.0.0","Windows","10.0","https://app.prolific.com/","en-US,en;q=0.9","659ac6d9e91b332d5e91216c","679edb085803f58d6bbd31ca","679ededacd435ef449bd249e","","10035","[""Final order was 1,2,3,4,5. The initial order was 2,1,3,4,5.<br>It took 1 swaps to sort it correctly with Omgne Sort. <br><br>Press Enter to continue.""]","enter","","",""
"","","","","","html-keyboard-response","59","112167","0.0-46.0","11","1","2025-02-02 02:56:33","bc01a2b6f61d06f6604adb8657495020","172.90.177.212","Mozilla/5.0 (Windows NT 10.0; Win64; x64) AppleWebKit/537.36 (KHTML, like Gecko) Chrome/132.0.0.0 Safari/537.36","WebKit","Chrome","132.0.0.0","Windows","10.0","https://app.prolific.com/","en-US,en;q=0.9","659ac6d9e91b332d5e91216c","679edb085803f58d6bbd31ca","679ededacd435ef449bd249e","","4543","[""Example 2<br><br>You will watch Omnge Sort in action. Try to identify any patterns in the comparisons made by this method. <br><br>Press Enter to continue.""]","enter","","",""
"","","","","","html-keyboard-response","60","112674","0.0-47.0","11","1","2025-02-02 02:56:33","bc01a2b6f61d06f6604adb8657495020","172.90.177.212","Mozilla/5.0 (Windows NT 10.0; Win64; x64) AppleWebKit/537.36 (KHTML, like Gecko) Chrome/132.0.0.0 Safari/537.36","WebKit","Chrome","132.0.0.0","Windows","10.0","https://app.prolific.com/","en-US,en;q=0.9","659ac6d9e91b332d5e91216c","679edb085803f58d6bbd31ca","679ededacd435ef449bd249e","","null","<img id='selected' src='G_7.jpg' height='90'> <img src='G_4.jpg' height='90'> <img src='G_1.jpg' height='90'> <img src='G_8.jpg' height='90'> <img src='G_5.jpg' height='90'> <img src='G_2.jpg' height='90'> <img src='G_3.jpg' height='90'> <img src='G_6.jpg' height='90'>","null","Animation1","",""
"","","","","","html-keyboard-response","61","113177","0.0-48.0","11","1","2025-02-02 02:56:33","bc01a2b6f61d06f6604adb8657495020","172.90.177.212","Mozilla/5.0 (Windows NT 10.0; Win64; x64) AppleWebKit/537.36 (KHTML, like Gecko) Chrome/132.0.0.0 Safari/537.36","WebKit","Chrome","132.0.0.0","Windows","10.0","https://app.prolific.com/","en-US,en;q=0.9","659ac6d9e91b332d5e91216c","679edb085803f58d6bbd31ca","679ededacd435ef449bd249e","","null","<img id='selected' src='G_7.jpg' height='90'> <img id='selected' src='G_4.jpg' height='90'> <img src='G_1.jpg' height='90'> <img src='G_8.jpg' height='90'> <img src='G_5.jpg' height='90'> <img src='G_2.jpg' height='90'> <img src='G_3.jpg' height='90'> <img src='G_6.jpg' height='90'>","null","Animation1","",""
"","","","","","html-keyboard-response","62","113680","0.0-49.0","11","1","2025-02-02 02:56:33","bc01a2b6f61d06f6604adb8657495020","172.90.177.212","Mozilla/5.0 (Windows NT 10.0; Win64; x64) AppleWebKit/537.36 (KHTML, like Gecko) Chrome/132.0.0.0 Safari/537.36","WebKit","Chrome","132.0.0.0","Windows","10.0","https://app.prolific.com/","en-US,en;q=0.9","659ac6d9e91b332d5e91216c","679edb085803f58d6bbd31ca","679ededacd435ef449bd249e","","null","<img id='selected' src='G_7.jpg' height='90'> <img id='selected' src='G_4.jpg' height='90'> <img src='G_1.jpg' height='90'> <img src='G_8.jpg' height='90'> <img src='G_5.jpg' height='90'> <img src='G_2.jpg' height='90'> <img src='G_3.jpg' height='90'> <img src='G_6.jpg' height='90'>","null","Animation1","",""
"","","","","","html-keyboard-response","63","113995","0.0-50.0","11","1","2025-02-02 02:56:33","bc01a2b6f61d06f6604adb8657495020","172.90.177.212","Mozilla/5.0 (Windows NT 10.0; Win64; x64) AppleWebKit/537.36 (KHTML, like Gecko) Chrome/132.0.0.0 Safari/537.36","WebKit","Chrome","132.0.0.0","Windows","10.0","https://app.prolific.com/","en-US,en;q=0.9","659ac6d9e91b332d5e91216c","679edb085803f58d6bbd31ca","679ededacd435ef449bd249e","","null","<img  src='G_7.jpg' height='90'> <img  src='G_4.jpg' height='90'> <img src='G_1.jpg' height='90'> <img src='G_8.jpg' height='90'> <img src='G_5.jpg' height='90'> <img src='G_2.jpg' height='90'> <img src='G_3.jpg' height='90'> <img src='G_6.jpg' height='90'>","null","Animation1","",""
"","","","","","html-keyboard-response","64","114508","0.0-51.0","11","1","2025-02-02 02:56:33","bc01a2b6f61d06f6604adb8657495020","172.90.177.212","Mozilla/5.0 (Windows NT 10.0; Win64; x64) AppleWebKit/537.36 (KHTML, like Gecko) Chrome/132.0.0.0 Safari/537.36","WebKit","Chrome","132.0.0.0","Windows","10.0","https://app.prolific.com/","en-US,en;q=0.9","659ac6d9e91b332d5e91216c","679edb085803f58d6bbd31ca","679ededacd435ef449bd249e","","null","<img  src='G_7.jpg' height='90'> <img id='selected'  src='G_4.jpg' height='90'> <img src='G_1.jpg' height='90'> <img src='G_8.jpg' height='90'> <img src='G_5.jpg' height='90'> <img src='G_2.jpg' height='90'> <img src='G_3.jpg' height='90'> <img src='G_6.jpg' height='90'>","null","Animation1","",""
"","","","","","html-keyboard-response","65","115024","0.0-52.0","11","1","2025-02-02 02:56:33","bc01a2b6f61d06f6604adb8657495020","172.90.177.212","Mozilla/5.0 (Windows NT 10.0; Win64; x64) AppleWebKit/537.36 (KHTML, like Gecko) Chrome/132.0.0.0 Safari/537.36","WebKit","Chrome","132.0.0.0","Windows","10.0","https://app.prolific.com/","en-US,en;q=0.9","659ac6d9e91b332d5e91216c","679edb085803f58d6bbd31ca","679ededacd435ef449bd249e","","null","<img  src='G_7.jpg' height='90'> <img id='selected'  src='G_4.jpg' height='90'> <img id='selected' src='G_1.jpg' height='90'> <img src='G_8.jpg' height='90'> <img src='G_5.jpg' height='90'> <img src='G_2.jpg' height='90'> <img src='G_3.jpg' height='90'> <img src='G_6.jpg' height='90'>","null","Animation1","",""
"","","","","","html-keyboard-response","66","115536","0.0-53.0","11","1","2025-02-02 02:56:33","bc01a2b6f61d06f6604adb8657495020","172.90.177.212","Mozilla/5.0 (Windows NT 10.0; Win64; x64) AppleWebKit/537.36 (KHTML, like Gecko) Chrome/132.0.0.0 Safari/537.36","WebKit","Chrome","132.0.0.0","Windows","10.0","https://app.prolific.com/","en-US,en;q=0.9","659ac6d9e91b332d5e91216c","679edb085803f58d6bbd31ca","679ededacd435ef449bd249e","","null","<img  src='G_7.jpg' height='90'> <img id='swapped' src='G_1.jpg' height='90'> <img id='swapped'  src='G_4.jpg' height='90'> <img src='G_8.jpg' height='90'> <img src='G_5.jpg' height='90'> <img src='G_2.jpg' height='90'> <img src='G_3.jpg' height='90'> <img src='G_6.jpg' height='90'>","null","Animation1","",""
"","","","","","html-keyboard-response","67","115849","0.0-54.0","11","1","2025-02-02 02:56:33","bc01a2b6f61d06f6604adb8657495020","172.90.177.212","Mozilla/5.0 (Windows NT 10.0; Win64; x64) AppleWebKit/537.36 (KHTML, like Gecko) Chrome/132.0.0.0 Safari/537.36","WebKit","Chrome","132.0.0.0","Windows","10.0","https://app.prolific.com/","en-US,en;q=0.9","659ac6d9e91b332d5e91216c","679edb085803f58d6bbd31ca","679ededacd435ef449bd249e","","null","<img  src='G_7.jpg' height='90'> <img  src='G_1.jpg' height='90'> <img   src='G_4.jpg' height='90'> <img src='G_8.jpg' height='90'> <img src='G_5.jpg' height='90'> <img src='G_2.jpg' height='90'> <img src='G_3.jpg' height='90'> <img src='G_6.jpg' height='90'>","null","Animation1","",""
"","","","","","html-keyboard-response","68","116356","0.0-55.0","11","1","2025-02-02 02:56:33","bc01a2b6f61d06f6604adb8657495020","172.90.177.212","Mozilla/5.0 (Windows NT 10.0; Win64; x64) AppleWebKit/537.36 (KHTML, like Gecko) Chrome/132.0.0.0 Safari/537.36","WebKit","Chrome","132.0.0.0","Windows","10.0","https://app.prolific.com/","en-US,en;q=0.9","659ac6d9e91b332d5e91216c","679edb085803f58d6bbd31ca","679ededacd435ef449bd249e","","null","<img id='selected'  src='G_7.jpg' height='90'> <img  src='G_1.jpg' height='90'> <img   src='G_4.jpg' height='90'> <img src='G_8.jpg' height='90'> <img src='G_5.jpg' height='90'> <img src='G_2.jpg' height='90'> <img src='G_3.jpg' height='90'> <img src='G_6.jpg' height='90'>","null","Animation1","",""
"","","","","","html-keyboard-response","69","116864","0.0-56.0","11","1","2025-02-02 02:56:33","bc01a2b6f61d06f6604adb8657495020","172.90.177.212","Mozilla/5.0 (Windows NT 10.0; Win64; x64) AppleWebKit/537.36 (KHTML, like Gecko) Chrome/132.0.0.0 Safari/537.36","WebKit","Chrome","132.0.0.0","Windows","10.0","https://app.prolific.com/","en-US,en;q=0.9","659ac6d9e91b332d5e91216c","679edb085803f58d6bbd31ca","679ededacd435ef449bd249e","","null","<img id='selected'  src='G_7.jpg' height='90'> <img id='selected'  src='G_1.jpg' height='90'> <img   src='G_4.jpg' height='90'> <img src='G_8.jpg' height='90'> <img src='G_5.jpg' height='90'> <img src='G_2.jpg' height='90'> <img src='G_3.jpg' height='90'> <img src='G_6.jpg' height='90'>","null","Animation1","",""
"","","","","","html-keyboard-response","70","117377","0.0-57.0","11","1","2025-02-02 02:56:33","bc01a2b6f61d06f6604adb8657495020","172.90.177.212","Mozilla/5.0 (Windows NT 10.0; Win64; x64) AppleWebKit/537.36 (KHTML, like Gecko) Chrome/132.0.0.0 Safari/537.36","WebKit","Chrome","132.0.0.0","Windows","10.0","https://app.prolific.com/","en-US,en;q=0.9","659ac6d9e91b332d5e91216c","679edb085803f58d6bbd31ca","679ededacd435ef449bd249e","","null","<img id='swapped'  src='G_1.jpg' height='90'> <img id='swapped'  src='G_7.jpg' height='90'> <img   src='G_4.jpg' height='90'> <img src='G_8.jpg' height='90'> <img src='G_5.jpg' height='90'> <img src='G_2.jpg' height='90'> <img src='G_3.jpg' height='90'> <img src='G_6.jpg' height='90'>","null","Animation1","",""
"","","","","","html-keyboard-response","71","117691","0.0-58.0","11","1","2025-02-02 02:56:33","bc01a2b6f61d06f6604adb8657495020","172.90.177.212","Mozilla/5.0 (Windows NT 10.0; Win64; x64) AppleWebKit/537.36 (KHTML, like Gecko) Chrome/132.0.0.0 Safari/537.36","WebKit","Chrome","132.0.0.0","Windows","10.0","https://app.prolific.com/","en-US,en;q=0.9","659ac6d9e91b332d5e91216c","679edb085803f58d6bbd31ca","679ededacd435ef449bd249e","","null","<img   src='G_1.jpg' height='90'> <img   src='G_7.jpg' height='90'> <img   src='G_4.jpg' height='90'> <img src='G_8.jpg' height='90'> <img src='G_5.jpg' height='90'> <img src='G_2.jpg' height='90'> <img src='G_3.jpg' height='90'> <img src='G_6.jpg' height='90'>","null","Animation1","",""
"","","","","","html-keyboard-response","72","118202","0.0-59.0","11","1","2025-02-02 02:56:33","bc01a2b6f61d06f6604adb8657495020","172.90.177.212","Mozilla/5.0 (Windows NT 10.0; Win64; x64) AppleWebKit/537.36 (KHTML, like Gecko) Chrome/132.0.0.0 Safari/537.36","WebKit","Chrome","132.0.0.0","Windows","10.0","https://app.prolific.com/","en-US,en;q=0.9","659ac6d9e91b332d5e91216c","679edb085803f58d6bbd31ca","679ededacd435ef449bd249e","","null","<img   src='G_1.jpg' height='90'> <img   src='G_7.jpg' height='90'> <img id='selected'   src='G_4.jpg' height='90'> <img src='G_8.jpg' height='90'> <img src='G_5.jpg' height='90'> <img src='G_2.jpg' height='90'> <img src='G_3.jpg' height='90'> <img src='G_6.jpg' height='90'>","null","Animation1","",""
"","","","","","html-keyboard-response","73","118719","0.0-60.0","11","1","2025-02-02 02:56:33","bc01a2b6f61d06f6604adb8657495020","172.90.177.212","Mozilla/5.0 (Windows NT 10.0; Win64; x64) AppleWebKit/537.36 (KHTML, like Gecko) Chrome/132.0.0.0 Safari/537.36","WebKit","Chrome","132.0.0.0","Windows","10.0","https://app.prolific.com/","en-US,en;q=0.9","659ac6d9e91b332d5e91216c","679edb085803f58d6bbd31ca","679ededacd435ef449bd249e","","null","<img   src='G_1.jpg' height='90'> <img   src='G_7.jpg' height='90'> <img id='selected'   src='G_4.jpg' height='90'> <img id='selected' src='G_8.jpg' height='90'> <img src='G_5.jpg' height='90'> <img src='G_2.jpg' height='90'> <img src='G_3.jpg' height='90'> <img src='G_6.jpg' height='90'>","null","Animation1","",""
"","","","","","html-keyboard-response","74","119225","0.0-61.0","11","1","2025-02-02 02:56:33","bc01a2b6f61d06f6604adb8657495020","172.90.177.212","Mozilla/5.0 (Windows NT 10.0; Win64; x64) AppleWebKit/537.36 (KHTML, like Gecko) Chrome/132.0.0.0 Safari/537.36","WebKit","Chrome","132.0.0.0","Windows","10.0","https://app.prolific.com/","en-US,en;q=0.9","659ac6d9e91b332d5e91216c","679edb085803f58d6bbd31ca","679ededacd435ef449bd249e","","null","<img   src='G_1.jpg' height='90'> <img   src='G_7.jpg' height='90'> <img id='swapped' src='G_8.jpg' height='90'> <img id='swapped'   src='G_4.jpg' height='90'> <img src='G_5.jpg' height='90'> <img src='G_2.jpg' height='90'> <img src='G_3.jpg' height='90'> <img src='G_6.jpg' height='90'>","null","Animation1","",""
"","","","","","html-keyboard-response","75","119529","0.0-62.0","11","1","2025-02-02 02:56:33","bc01a2b6f61d06f6604adb8657495020","172.90.177.212","Mozilla/5.0 (Windows NT 10.0; Win64; x64) AppleWebKit/537.36 (KHTML, like Gecko) Chrome/132.0.0.0 Safari/537.36","WebKit","Chrome","132.0.0.0","Windows","10.0","https://app.prolific.com/","en-US,en;q=0.9","659ac6d9e91b332d5e91216c","679edb085803f58d6bbd31ca","679ededacd435ef449bd249e","","null","<img   src='G_1.jpg' height='90'> <img   src='G_7.jpg' height='90'> <img  src='G_8.jpg' height='90'> <img    src='G_4.jpg' height='90'> <img src='G_5.jpg' height='90'> <img src='G_2.jpg' height='90'> <img src='G_3.jpg' height='90'> <img src='G_6.jpg' height='90'>","null","Animation1","",""
"","","","","","html-keyboard-response","76","120037","0.0-63.0","11","1","2025-02-02 02:56:33","bc01a2b6f61d06f6604adb8657495020","172.90.177.212","Mozilla/5.0 (Windows NT 10.0; Win64; x64) AppleWebKit/537.36 (KHTML, like Gecko) Chrome/132.0.0.0 Safari/537.36","WebKit","Chrome","132.0.0.0","Windows","10.0","https://app.prolific.com/","en-US,en;q=0.9","659ac6d9e91b332d5e91216c","679edb085803f58d6bbd31ca","679ededacd435ef449bd249e","","null","<img   src='G_1.jpg' height='90'> <img id='selected'   src='G_7.jpg' height='90'> <img  src='G_8.jpg' height='90'> <img    src='G_4.jpg' height='90'> <img src='G_5.jpg' height='90'> <img src='G_2.jpg' height='90'> <img src='G_3.jpg' height='90'> <img src='G_6.jpg' height='90'>","null","Animation1","",""
"","","","","","html-keyboard-response","77","120543","0.0-64.0","11","1","2025-02-02 02:56:33","bc01a2b6f61d06f6604adb8657495020","172.90.177.212","Mozilla/5.0 (Windows NT 10.0; Win64; x64) AppleWebKit/537.36 (KHTML, like Gecko) Chrome/132.0.0.0 Safari/537.36","WebKit","Chrome","132.0.0.0","Windows","10.0","https://app.prolific.com/","en-US,en;q=0.9","659ac6d9e91b332d5e91216c","679edb085803f58d6bbd31ca","679ededacd435ef449bd249e","","null","<img   src='G_1.jpg' height='90'> <img id='selected'   src='G_7.jpg' height='90'> <img id='selected'  src='G_8.jpg' height='90'> <img    src='G_4.jpg' height='90'> <img src='G_5.jpg' height='90'> <img src='G_2.jpg' height='90'> <img src='G_3.jpg' height='90'> <img src='G_6.jpg' height='90'>","null","Animation1","",""
"","","","","","html-keyboard-response","78","121059","0.0-65.0","11","1","2025-02-02 02:56:33","bc01a2b6f61d06f6604adb8657495020","172.90.177.212","Mozilla/5.0 (Windows NT 10.0; Win64; x64) AppleWebKit/537.36 (KHTML, like Gecko) Chrome/132.0.0.0 Safari/537.36","WebKit","Chrome","132.0.0.0","Windows","10.0","https://app.prolific.com/","en-US,en;q=0.9","659ac6d9e91b332d5e91216c","679edb085803f58d6bbd31ca","679ededacd435ef449bd249e","","null","<img   src='G_1.jpg' height='90'> <img id='swapped'  src='G_8.jpg' height='90'> <img id='swapped'   src='G_7.jpg' height='90'> <img    src='G_4.jpg' height='90'> <img src='G_5.jpg' height='90'> <img src='G_2.jpg' height='90'> <img src='G_3.jpg' height='90'> <img src='G_6.jpg' height='90'>","null","Animation1","",""
"","","","","","html-keyboard-response","79","121361","0.0-66.0","11","1","2025-02-02 02:56:33","bc01a2b6f61d06f6604adb8657495020","172.90.177.212","Mozilla/5.0 (Windows NT 10.0; Win64; x64) AppleWebKit/537.36 (KHTML, like Gecko) Chrome/132.0.0.0 Safari/537.36","WebKit","Chrome","132.0.0.0","Windows","10.0","https://app.prolific.com/","en-US,en;q=0.9","659ac6d9e91b332d5e91216c","679edb085803f58d6bbd31ca","679ededacd435ef449bd249e","","null","<img   src='G_1.jpg' height='90'> <img   src='G_8.jpg' height='90'> <img    src='G_7.jpg' height='90'> <img    src='G_4.jpg' height='90'> <img src='G_5.jpg' height='90'> <img src='G_2.jpg' height='90'> <img src='G_3.jpg' height='90'> <img src='G_6.jpg' height='90'>","null","Animation1","",""
"","","","","","html-keyboard-response","80","121865","0.0-67.0","11","1","2025-02-02 02:56:33","bc01a2b6f61d06f6604adb8657495020","172.90.177.212","Mozilla/5.0 (Windows NT 10.0; Win64; x64) AppleWebKit/537.36 (KHTML, like Gecko) Chrome/132.0.0.0 Safari/537.36","WebKit","Chrome","132.0.0.0","Windows","10.0","https://app.prolific.com/","en-US,en;q=0.9","659ac6d9e91b332d5e91216c","679edb085803f58d6bbd31ca","679ededacd435ef449bd249e","","null","<img id='selected'   src='G_1.jpg' height='90'> <img   src='G_8.jpg' height='90'> <img    src='G_7.jpg' height='90'> <img    src='G_4.jpg' height='90'> <img src='G_5.jpg' height='90'> <img src='G_2.jpg' height='90'> <img src='G_3.jpg' height='90'> <img src='G_6.jpg' height='90'>","null","Animation1","",""
"","","","","","html-keyboard-response","81","122370","0.0-68.0","11","1","2025-02-02 02:56:33","bc01a2b6f61d06f6604adb8657495020","172.90.177.212","Mozilla/5.0 (Windows NT 10.0; Win64; x64) AppleWebKit/537.36 (KHTML, like Gecko) Chrome/132.0.0.0 Safari/537.36","WebKit","Chrome","132.0.0.0","Windows","10.0","https://app.prolific.com/","en-US,en;q=0.9","659ac6d9e91b332d5e91216c","679edb085803f58d6bbd31ca","679ededacd435ef449bd249e","","null","<img id='selected'   src='G_1.jpg' height='90'> <img id='selected'   src='G_8.jpg' height='90'> <img    src='G_7.jpg' height='90'> <img    src='G_4.jpg' height='90'> <img src='G_5.jpg' height='90'> <img src='G_2.jpg' height='90'> <img src='G_3.jpg' height='90'> <img src='G_6.jpg' height='90'>","null","Animation1","",""
"","","","","","html-keyboard-response","82","122876","0.0-69.0","11","1","2025-02-02 02:56:33","bc01a2b6f61d06f6604adb8657495020","172.90.177.212","Mozilla/5.0 (Windows NT 10.0; Win64; x64) AppleWebKit/537.36 (KHTML, like Gecko) Chrome/132.0.0.0 Safari/537.36","WebKit","Chrome","132.0.0.0","Windows","10.0","https://app.prolific.com/","en-US,en;q=0.9","659ac6d9e91b332d5e91216c","679edb085803f58d6bbd31ca","679ededacd435ef449bd249e","","null","<img id='swapped'   src='G_8.jpg' height='90'> <img id='swapped'   src='G_1.jpg' height='90'> <img    src='G_7.jpg' height='90'> <img    src='G_4.jpg' height='90'> <img src='G_5.jpg' height='90'> <img src='G_2.jpg' height='90'> <img src='G_3.jpg' height='90'> <img src='G_6.jpg' height='90'>","null","Animation1","",""
"","","","","","html-keyboard-response","83","123191","0.0-70.0","11","1","2025-02-02 02:56:33","bc01a2b6f61d06f6604adb8657495020","172.90.177.212","Mozilla/5.0 (Windows NT 10.0; Win64; x64) AppleWebKit/537.36 (KHTML, like Gecko) Chrome/132.0.0.0 Safari/537.36","WebKit","Chrome","132.0.0.0","Windows","10.0","https://app.prolific.com/","en-US,en;q=0.9","659ac6d9e91b332d5e91216c","679edb085803f58d6bbd31ca","679ededacd435ef449bd249e","","null","<img    src='G_8.jpg' height='90'> <img    src='G_1.jpg' height='90'> <img    src='G_7.jpg' height='90'> <img    src='G_4.jpg' height='90'> <img src='G_5.jpg' height='90'> <img src='G_2.jpg' height='90'> <img src='G_3.jpg' height='90'> <img src='G_6.jpg' height='90'>","null","Animation1","",""
"","","","","","html-keyboard-response","84","123698","0.0-71.0","11","1","2025-02-02 02:56:33","bc01a2b6f61d06f6604adb8657495020","172.90.177.212","Mozilla/5.0 (Windows NT 10.0; Win64; x64) AppleWebKit/537.36 (KHTML, like Gecko) Chrome/132.0.0.0 Safari/537.36","WebKit","Chrome","132.0.0.0","Windows","10.0","https://app.prolific.com/","en-US,en;q=0.9","659ac6d9e91b332d5e91216c","679edb085803f58d6bbd31ca","679ededacd435ef449bd249e","","null","<img    src='G_8.jpg' height='90'> <img    src='G_1.jpg' height='90'> <img    src='G_7.jpg' height='90'> <img id='selected'    src='G_4.jpg' height='90'> <img src='G_5.jpg' height='90'> <img src='G_2.jpg' height='90'> <img src='G_3.jpg' height='90'> <img src='G_6.jpg' height='90'>","null","Animation1","",""
"","","","","","html-keyboard-response","85","124209","0.0-72.0","11","1","2025-02-02 02:56:33","bc01a2b6f61d06f6604adb8657495020","172.90.177.212","Mozilla/5.0 (Windows NT 10.0; Win64; x64) AppleWebKit/537.36 (KHTML, like Gecko) Chrome/132.0.0.0 Safari/537.36","WebKit","Chrome","132.0.0.0","Windows","10.0","https://app.prolific.com/","en-US,en;q=0.9","659ac6d9e91b332d5e91216c","679edb085803f58d6bbd31ca","679ededacd435ef449bd249e","","null","<img    src='G_8.jpg' height='90'> <img    src='G_1.jpg' height='90'> <img    src='G_7.jpg' height='90'> <img id='selected'    src='G_4.jpg' height='90'> <img id='selected' src='G_5.jpg' height='90'> <img src='G_2.jpg' height='90'> <img src='G_3.jpg' height='90'> <img src='G_6.jpg' height='90'>","null","Animation1","",""
"","","","","","html-keyboard-response","86","124726","0.0-73.0","11","1","2025-02-02 02:56:33","bc01a2b6f61d06f6604adb8657495020","172.90.177.212","Mozilla/5.0 (Windows NT 10.0; Win64; x64) AppleWebKit/537.36 (KHTML, like Gecko) Chrome/132.0.0.0 Safari/537.36","WebKit","Chrome","132.0.0.0","Windows","10.0","https://app.prolific.com/","en-US,en;q=0.9","659ac6d9e91b332d5e91216c","679edb085803f58d6bbd31ca","679ededacd435ef449bd249e","","null","<img    src='G_8.jpg' height='90'> <img    src='G_1.jpg' height='90'> <img    src='G_7.jpg' height='90'> <img id='swapped' src='G_5.jpg' height='90'> <img id='swapped'    src='G_4.jpg' height='90'> <img src='G_2.jpg' height='90'> <img src='G_3.jpg' height='90'> <img src='G_6.jpg' height='90'>","null","Animation1","",""
"","","","","","html-keyboard-response","87","125038","0.0-74.0","11","1","2025-02-02 02:56:33","bc01a2b6f61d06f6604adb8657495020","172.90.177.212","Mozilla/5.0 (Windows NT 10.0; Win64; x64) AppleWebKit/537.36 (KHTML, like Gecko) Chrome/132.0.0.0 Safari/537.36","WebKit","Chrome","132.0.0.0","Windows","10.0","https://app.prolific.com/","en-US,en;q=0.9","659ac6d9e91b332d5e91216c","679edb085803f58d6bbd31ca","679ededacd435ef449bd249e","","null","<img    src='G_8.jpg' height='90'> <img    src='G_1.jpg' height='90'> <img    src='G_7.jpg' height='90'> <img  src='G_5.jpg' height='90'> <img     src='G_4.jpg' height='90'> <img src='G_2.jpg' height='90'> <img src='G_3.jpg' height='90'> <img src='G_6.jpg' height='90'>","null","Animation1","",""
"","","","","","html-keyboard-response","88","125551","0.0-75.0","11","1","2025-02-02 02:56:33","bc01a2b6f61d06f6604adb8657495020","172.90.177.212","Mozilla/5.0 (Windows NT 10.0; Win64; x64) AppleWebKit/537.36 (KHTML, like Gecko) Chrome/132.0.0.0 Safari/537.36","WebKit","Chrome","132.0.0.0","Windows","10.0","https://app.prolific.com/","en-US,en;q=0.9","659ac6d9e91b332d5e91216c","679edb085803f58d6bbd31ca","679ededacd435ef449bd249e","","null","<img    src='G_8.jpg' height='90'> <img    src='G_1.jpg' height='90'> <img id='selected'    src='G_7.jpg' height='90'> <img  src='G_5.jpg' height='90'> <img     src='G_4.jpg' height='90'> <img src='G_2.jpg' height='90'> <img src='G_3.jpg' height='90'> <img src='G_6.jpg' height='90'>","null","Animation1","",""
"","","","","","html-keyboard-response","89","126062","0.0-76.0","11","1","2025-02-02 02:56:33","bc01a2b6f61d06f6604adb8657495020","172.90.177.212","Mozilla/5.0 (Windows NT 10.0; Win64; x64) AppleWebKit/537.36 (KHTML, like Gecko) Chrome/132.0.0.0 Safari/537.36","WebKit","Chrome","132.0.0.0","Windows","10.0","https://app.prolific.com/","en-US,en;q=0.9","659ac6d9e91b332d5e91216c","679edb085803f58d6bbd31ca","679ededacd435ef449bd249e","","null","<img    src='G_8.jpg' height='90'> <img    src='G_1.jpg' height='90'> <img id='selected'    src='G_7.jpg' height='90'> <img id='selected'  src='G_5.jpg' height='90'> <img     src='G_4.jpg' height='90'> <img src='G_2.jpg' height='90'> <img src='G_3.jpg' height='90'> <img src='G_6.jpg' height='90'>","null","Animation1","",""
"","","","","","html-keyboard-response","90","126578","0.0-77.0","11","1","2025-02-02 02:56:33","bc01a2b6f61d06f6604adb8657495020","172.90.177.212","Mozilla/5.0 (Windows NT 10.0; Win64; x64) AppleWebKit/537.36 (KHTML, like Gecko) Chrome/132.0.0.0 Safari/537.36","WebKit","Chrome","132.0.0.0","Windows","10.0","https://app.prolific.com/","en-US,en;q=0.9","659ac6d9e91b332d5e91216c","679edb085803f58d6bbd31ca","679ededacd435ef449bd249e","","null","<img    src='G_8.jpg' height='90'> <img    src='G_1.jpg' height='90'> <img id='swapped'  src='G_5.jpg' height='90'> <img id='swapped'    src='G_7.jpg' height='90'> <img     src='G_4.jpg' height='90'> <img src='G_2.jpg' height='90'> <img src='G_3.jpg' height='90'> <img src='G_6.jpg' height='90'>","null","Animation1","",""
"","","","","","html-keyboard-response","91","126891","0.0-78.0","11","1","2025-02-02 02:56:33","bc01a2b6f61d06f6604adb8657495020","172.90.177.212","Mozilla/5.0 (Windows NT 10.0; Win64; x64) AppleWebKit/537.36 (KHTML, like Gecko) Chrome/132.0.0.0 Safari/537.36","WebKit","Chrome","132.0.0.0","Windows","10.0","https://app.prolific.com/","en-US,en;q=0.9","659ac6d9e91b332d5e91216c","679edb085803f58d6bbd31ca","679ededacd435ef449bd249e","","null","<img    src='G_8.jpg' height='90'> <img    src='G_1.jpg' height='90'> <img   src='G_5.jpg' height='90'> <img     src='G_7.jpg' height='90'> <img     src='G_4.jpg' height='90'> <img src='G_2.jpg' height='90'> <img src='G_3.jpg' height='90'> <img src='G_6.jpg' height='90'>","null","Animation1","",""
"","","","","","html-keyboard-response","92","127399","0.0-79.0","11","1","2025-02-02 02:56:33","bc01a2b6f61d06f6604adb8657495020","172.90.177.212","Mozilla/5.0 (Windows NT 10.0; Win64; x64) AppleWebKit/537.36 (KHTML, like Gecko) Chrome/132.0.0.0 Safari/537.36","WebKit","Chrome","132.0.0.0","Windows","10.0","https://app.prolific.com/","en-US,en;q=0.9","659ac6d9e91b332d5e91216c","679edb085803f58d6bbd31ca","679ededacd435ef449bd249e","","null","<img    src='G_8.jpg' height='90'> <img id='selected'    src='G_1.jpg' height='90'> <img   src='G_5.jpg' height='90'> <img     src='G_7.jpg' height='90'> <img     src='G_4.jpg' height='90'> <img src='G_2.jpg' height='90'> <img src='G_3.jpg' height='90'> <img src='G_6.jpg' height='90'>","null","Animation1","",""
"","","","","","html-keyboard-response","93","127903","0.0-80.0","11","1","2025-02-02 02:56:33","bc01a2b6f61d06f6604adb8657495020","172.90.177.212","Mozilla/5.0 (Windows NT 10.0; Win64; x64) AppleWebKit/537.36 (KHTML, like Gecko) Chrome/132.0.0.0 Safari/537.36","WebKit","Chrome","132.0.0.0","Windows","10.0","https://app.prolific.com/","en-US,en;q=0.9","659ac6d9e91b332d5e91216c","679edb085803f58d6bbd31ca","679ededacd435ef449bd249e","","null","<img    src='G_8.jpg' height='90'> <img id='selected'    src='G_1.jpg' height='90'> <img id='selected'   src='G_5.jpg' height='90'> <img     src='G_7.jpg' height='90'> <img     src='G_4.jpg' height='90'> <img src='G_2.jpg' height='90'> <img src='G_3.jpg' height='90'> <img src='G_6.jpg' height='90'>","null","Animation1","",""
"","","","","","html-keyboard-response","94","128419","0.0-81.0","11","1","2025-02-02 02:56:33","bc01a2b6f61d06f6604adb8657495020","172.90.177.212","Mozilla/5.0 (Windows NT 10.0; Win64; x64) AppleWebKit/537.36 (KHTML, like Gecko) Chrome/132.0.0.0 Safari/537.36","WebKit","Chrome","132.0.0.0","Windows","10.0","https://app.prolific.com/","en-US,en;q=0.9","659ac6d9e91b332d5e91216c","679edb085803f58d6bbd31ca","679ededacd435ef449bd249e","","null","<img    src='G_8.jpg' height='90'> <img id='swapped'   src='G_5.jpg' height='90'> <img id='swapped'    src='G_1.jpg' height='90'> <img     src='G_7.jpg' height='90'> <img     src='G_4.jpg' height='90'> <img src='G_2.jpg' height='90'> <img src='G_3.jpg' height='90'> <img src='G_6.jpg' height='90'>","null","Animation1","",""
"","","","","","html-keyboard-response","95","128725","0.0-82.0","11","1","2025-02-02 02:56:33","bc01a2b6f61d06f6604adb8657495020","172.90.177.212","Mozilla/5.0 (Windows NT 10.0; Win64; x64) AppleWebKit/537.36 (KHTML, like Gecko) Chrome/132.0.0.0 Safari/537.36","WebKit","Chrome","132.0.0.0","Windows","10.0","https://app.prolific.com/","en-US,en;q=0.9","659ac6d9e91b332d5e91216c","679edb085803f58d6bbd31ca","679ededacd435ef449bd249e","","null","<img    src='G_8.jpg' height='90'> <img    src='G_5.jpg' height='90'> <img     src='G_1.jpg' height='90'> <img     src='G_7.jpg' height='90'> <img     src='G_4.jpg' height='90'> <img src='G_2.jpg' height='90'> <img src='G_3.jpg' height='90'> <img src='G_6.jpg' height='90'>","null","Animation1","",""
"","","","","","html-keyboard-response","96","129241","0.0-83.0","11","1","2025-02-02 02:56:33","bc01a2b6f61d06f6604adb8657495020","172.90.177.212","Mozilla/5.0 (Windows NT 10.0; Win64; x64) AppleWebKit/537.36 (KHTML, like Gecko) Chrome/132.0.0.0 Safari/537.36","WebKit","Chrome","132.0.0.0","Windows","10.0","https://app.prolific.com/","en-US,en;q=0.9","659ac6d9e91b332d5e91216c","679edb085803f58d6bbd31ca","679ededacd435ef449bd249e","","null","<img id='selected'    src='G_8.jpg' height='90'> <img    src='G_5.jpg' height='90'> <img     src='G_1.jpg' height='90'> <img     src='G_7.jpg' height='90'> <img     src='G_4.jpg' height='90'> <img src='G_2.jpg' height='90'> <img src='G_3.jpg' height='90'> <img src='G_6.jpg' height='90'>","null","Animation1","",""
"","","","","","html-keyboard-response","97","129745","0.0-84.0","11","1","2025-02-02 02:56:33","bc01a2b6f61d06f6604adb8657495020","172.90.177.212","Mozilla/5.0 (Windows NT 10.0; Win64; x64) AppleWebKit/537.36 (KHTML, like Gecko) Chrome/132.0.0.0 Safari/537.36","WebKit","Chrome","132.0.0.0","Windows","10.0","https://app.prolific.com/","en-US,en;q=0.9","659ac6d9e91b332d5e91216c","679edb085803f58d6bbd31ca","679ededacd435ef449bd249e","","null","<img id='selected'    src='G_8.jpg' height='90'> <img id='selected'    src='G_5.jpg' height='90'> <img     src='G_1.jpg' height='90'> <img     src='G_7.jpg' height='90'> <img     src='G_4.jpg' height='90'> <img src='G_2.jpg' height='90'> <img src='G_3.jpg' height='90'> <img src='G_6.jpg' height='90'>","null","Animation1","",""
"","","","","","html-keyboard-response","98","130251","0.0-85.0","11","1","2025-02-02 02:56:33","bc01a2b6f61d06f6604adb8657495020","172.90.177.212","Mozilla/5.0 (Windows NT 10.0; Win64; x64) AppleWebKit/537.36 (KHTML, like Gecko) Chrome/132.0.0.0 Safari/537.36","WebKit","Chrome","132.0.0.0","Windows","10.0","https://app.prolific.com/","en-US,en;q=0.9","659ac6d9e91b332d5e91216c","679edb085803f58d6bbd31ca","679ededacd435ef449bd249e","","null","<img id='selected'    src='G_8.jpg' height='90'> <img id='selected'    src='G_5.jpg' height='90'> <img     src='G_1.jpg' height='90'> <img     src='G_7.jpg' height='90'> <img     src='G_4.jpg' height='90'> <img src='G_2.jpg' height='90'> <img src='G_3.jpg' height='90'> <img src='G_6.jpg' height='90'>","null","Animation1","",""
"","","","","","html-keyboard-response","99","130556","0.0-86.0","11","1","2025-02-02 02:56:33","bc01a2b6f61d06f6604adb8657495020","172.90.177.212","Mozilla/5.0 (Windows NT 10.0; Win64; x64) AppleWebKit/537.36 (KHTML, like Gecko) Chrome/132.0.0.0 Safari/537.36","WebKit","Chrome","132.0.0.0","Windows","10.0","https://app.prolific.com/","en-US,en;q=0.9","659ac6d9e91b332d5e91216c","679edb085803f58d6bbd31ca","679ededacd435ef449bd249e","","null","<img     src='G_8.jpg' height='90'> <img     src='G_5.jpg' height='90'> <img     src='G_1.jpg' height='90'> <img     src='G_7.jpg' height='90'> <img     src='G_4.jpg' height='90'> <img src='G_2.jpg' height='90'> <img src='G_3.jpg' height='90'> <img src='G_6.jpg' height='90'>","null","Animation1","",""
"","","","","","html-keyboard-response","100","131072","0.0-87.0","11","1","2025-02-02 02:56:33","bc01a2b6f61d06f6604adb8657495020","172.90.177.212","Mozilla/5.0 (Windows NT 10.0; Win64; x64) AppleWebKit/537.36 (KHTML, like Gecko) Chrome/132.0.0.0 Safari/537.36","WebKit","Chrome","132.0.0.0","Windows","10.0","https://app.prolific.com/","en-US,en;q=0.9","659ac6d9e91b332d5e91216c","679edb085803f58d6bbd31ca","679ededacd435ef449bd249e","","null","<img     src='G_8.jpg' height='90'> <img     src='G_5.jpg' height='90'> <img     src='G_1.jpg' height='90'> <img     src='G_7.jpg' height='90'> <img id='selected'     src='G_4.jpg' height='90'> <img src='G_2.jpg' height='90'> <img src='G_3.jpg' height='90'> <img src='G_6.jpg' height='90'>","null","Animation1","",""
"","","","","","html-keyboard-response","101","131584","0.0-88.0","11","1","2025-02-02 02:56:33","bc01a2b6f61d06f6604adb8657495020","172.90.177.212","Mozilla/5.0 (Windows NT 10.0; Win64; x64) AppleWebKit/537.36 (KHTML, like Gecko) Chrome/132.0.0.0 Safari/537.36","WebKit","Chrome","132.0.0.0","Windows","10.0","https://app.prolific.com/","en-US,en;q=0.9","659ac6d9e91b332d5e91216c","679edb085803f58d6bbd31ca","679ededacd435ef449bd249e","","null","<img     src='G_8.jpg' height='90'> <img     src='G_5.jpg' height='90'> <img     src='G_1.jpg' height='90'> <img     src='G_7.jpg' height='90'> <img id='selected'     src='G_4.jpg' height='90'> <img id='selected' src='G_2.jpg' height='90'> <img src='G_3.jpg' height='90'> <img src='G_6.jpg' height='90'>","null","Animation1","",""
"","","","","","html-keyboard-response","102","132100","0.0-89.0","11","1","2025-02-02 02:56:33","bc01a2b6f61d06f6604adb8657495020","172.90.177.212","Mozilla/5.0 (Windows NT 10.0; Win64; x64) AppleWebKit/537.36 (KHTML, like Gecko) Chrome/132.0.0.0 Safari/537.36","WebKit","Chrome","132.0.0.0","Windows","10.0","https://app.prolific.com/","en-US,en;q=0.9","659ac6d9e91b332d5e91216c","679edb085803f58d6bbd31ca","679ededacd435ef449bd249e","","null","<img     src='G_8.jpg' height='90'> <img     src='G_5.jpg' height='90'> <img     src='G_1.jpg' height='90'> <img     src='G_7.jpg' height='90'> <img id='swapped' src='G_2.jpg' height='90'> <img id='swapped'     src='G_4.jpg' height='90'> <img src='G_3.jpg' height='90'> <img src='G_6.jpg' height='90'>","null","Animation1","",""
"","","","","","html-keyboard-response","103","132404","0.0-90.0","11","1","2025-02-02 02:56:33","bc01a2b6f61d06f6604adb8657495020","172.90.177.212","Mozilla/5.0 (Windows NT 10.0; Win64; x64) AppleWebKit/537.36 (KHTML, like Gecko) Chrome/132.0.0.0 Safari/537.36","WebKit","Chrome","132.0.0.0","Windows","10.0","https://app.prolific.com/","en-US,en;q=0.9","659ac6d9e91b332d5e91216c","679edb085803f58d6bbd31ca","679ededacd435ef449bd249e","","null","<img     src='G_8.jpg' height='90'> <img     src='G_5.jpg' height='90'> <img     src='G_1.jpg' height='90'> <img     src='G_7.jpg' height='90'> <img  src='G_2.jpg' height='90'> <img      src='G_4.jpg' height='90'> <img src='G_3.jpg' height='90'> <img src='G_6.jpg' height='90'>","null","Animation1","",""
"","","","","","html-keyboard-response","104","132910","0.0-91.0","11","1","2025-02-02 02:56:33","bc01a2b6f61d06f6604adb8657495020","172.90.177.212","Mozilla/5.0 (Windows NT 10.0; Win64; x64) AppleWebKit/537.36 (KHTML, like Gecko) Chrome/132.0.0.0 Safari/537.36","WebKit","Chrome","132.0.0.0","Windows","10.0","https://app.prolific.com/","en-US,en;q=0.9","659ac6d9e91b332d5e91216c","679edb085803f58d6bbd31ca","679ededacd435ef449bd249e","","null","<img     src='G_8.jpg' height='90'> <img     src='G_5.jpg' height='90'> <img     src='G_1.jpg' height='90'> <img id='selected'     src='G_7.jpg' height='90'> <img  src='G_2.jpg' height='90'> <img      src='G_4.jpg' height='90'> <img src='G_3.jpg' height='90'> <img src='G_6.jpg' height='90'>","null","Animation1","",""
"","","","","","html-keyboard-response","105","133427","0.0-92.0","11","1","2025-02-02 02:56:33","bc01a2b6f61d06f6604adb8657495020","172.90.177.212","Mozilla/5.0 (Windows NT 10.0; Win64; x64) AppleWebKit/537.36 (KHTML, like Gecko) Chrome/132.0.0.0 Safari/537.36","WebKit","Chrome","132.0.0.0","Windows","10.0","https://app.prolific.com/","en-US,en;q=0.9","659ac6d9e91b332d5e91216c","679edb085803f58d6bbd31ca","679ededacd435ef449bd249e","","null","<img     src='G_8.jpg' height='90'> <img     src='G_5.jpg' height='90'> <img     src='G_1.jpg' height='90'> <img id='selected'     src='G_7.jpg' height='90'> <img id='selected'  src='G_2.jpg' height='90'> <img      src='G_4.jpg' height='90'> <img src='G_3.jpg' height='90'> <img src='G_6.jpg' height='90'>","null","Animation1","",""
"","","","","","html-keyboard-response","106","133940","0.0-93.0","11","1","2025-02-02 02:56:33","bc01a2b6f61d06f6604adb8657495020","172.90.177.212","Mozilla/5.0 (Windows NT 10.0; Win64; x64) AppleWebKit/537.36 (KHTML, like Gecko) Chrome/132.0.0.0 Safari/537.36","WebKit","Chrome","132.0.0.0","Windows","10.0","https://app.prolific.com/","en-US,en;q=0.9","659ac6d9e91b332d5e91216c","679edb085803f58d6bbd31ca","679ededacd435ef449bd249e","","null","<img     src='G_8.jpg' height='90'> <img     src='G_5.jpg' height='90'> <img     src='G_1.jpg' height='90'> <img id='selected'     src='G_7.jpg' height='90'> <img id='selected'  src='G_2.jpg' height='90'> <img      src='G_4.jpg' height='90'> <img src='G_3.jpg' height='90'> <img src='G_6.jpg' height='90'>","null","Animation1","",""
"","","","","","html-keyboard-response","107","134243","0.0-94.0","11","1","2025-02-02 02:56:33","bc01a2b6f61d06f6604adb8657495020","172.90.177.212","Mozilla/5.0 (Windows NT 10.0; Win64; x64) AppleWebKit/537.36 (KHTML, like Gecko) Chrome/132.0.0.0 Safari/537.36","WebKit","Chrome","132.0.0.0","Windows","10.0","https://app.prolific.com/","en-US,en;q=0.9","659ac6d9e91b332d5e91216c","679edb085803f58d6bbd31ca","679ededacd435ef449bd249e","","null","<img     src='G_8.jpg' height='90'> <img     src='G_5.jpg' height='90'> <img     src='G_1.jpg' height='90'> <img      src='G_7.jpg' height='90'> <img   src='G_2.jpg' height='90'> <img      src='G_4.jpg' height='90'> <img src='G_3.jpg' height='90'> <img src='G_6.jpg' height='90'>","null","Animation1","",""
"","","","","","html-keyboard-response","108","134759","0.0-95.0","11","1","2025-02-02 02:56:33","bc01a2b6f61d06f6604adb8657495020","172.90.177.212","Mozilla/5.0 (Windows NT 10.0; Win64; x64) AppleWebKit/537.36 (KHTML, like Gecko) Chrome/132.0.0.0 Safari/537.36","WebKit","Chrome","132.0.0.0","Windows","10.0","https://app.prolific.com/","en-US,en;q=0.9","659ac6d9e91b332d5e91216c","679edb085803f58d6bbd31ca","679ededacd435ef449bd249e","","null","<img     src='G_8.jpg' height='90'> <img     src='G_5.jpg' height='90'> <img     src='G_1.jpg' height='90'> <img      src='G_7.jpg' height='90'> <img   src='G_2.jpg' height='90'> <img id='selected'      src='G_4.jpg' height='90'> <img src='G_3.jpg' height='90'> <img src='G_6.jpg' height='90'>","null","Animation1","",""
"","","","","","html-keyboard-response","109","135264","0.0-96.0","11","1","2025-02-02 02:56:33","bc01a2b6f61d06f6604adb8657495020","172.90.177.212","Mozilla/5.0 (Windows NT 10.0; Win64; x64) AppleWebKit/537.36 (KHTML, like Gecko) Chrome/132.0.0.0 Safari/537.36","WebKit","Chrome","132.0.0.0","Windows","10.0","https://app.prolific.com/","en-US,en;q=0.9","659ac6d9e91b332d5e91216c","679edb085803f58d6bbd31ca","679ededacd435ef449bd249e","","null","<img     src='G_8.jpg' height='90'> <img     src='G_5.jpg' height='90'> <img     src='G_1.jpg' height='90'> <img      src='G_7.jpg' height='90'> <img   src='G_2.jpg' height='90'> <img id='selected'      src='G_4.jpg' height='90'> <img id='selected' src='G_3.jpg' height='90'> <img src='G_6.jpg' height='90'>","null","Animation1","",""
"","","","","","html-keyboard-response","110","135768","0.0-97.0","11","1","2025-02-02 02:56:33","bc01a2b6f61d06f6604adb8657495020","172.90.177.212","Mozilla/5.0 (Windows NT 10.0; Win64; x64) AppleWebKit/537.36 (KHTML, like Gecko) Chrome/132.0.0.0 Safari/537.36","WebKit","Chrome","132.0.0.0","Windows","10.0","https://app.prolific.com/","en-US,en;q=0.9","659ac6d9e91b332d5e91216c","679edb085803f58d6bbd31ca","679ededacd435ef449bd249e","","null","<img     src='G_8.jpg' height='90'> <img     src='G_5.jpg' height='90'> <img     src='G_1.jpg' height='90'> <img      src='G_7.jpg' height='90'> <img   src='G_2.jpg' height='90'> <img id='selected'      src='G_4.jpg' height='90'> <img id='selected' src='G_3.jpg' height='90'> <img src='G_6.jpg' height='90'>","null","Animation1","",""
"","","","","","html-keyboard-response","111","136079","0.0-98.0","11","1","2025-02-02 02:56:33","bc01a2b6f61d06f6604adb8657495020","172.90.177.212","Mozilla/5.0 (Windows NT 10.0; Win64; x64) AppleWebKit/537.36 (KHTML, like Gecko) Chrome/132.0.0.0 Safari/537.36","WebKit","Chrome","132.0.0.0","Windows","10.0","https://app.prolific.com/","en-US,en;q=0.9","659ac6d9e91b332d5e91216c","679edb085803f58d6bbd31ca","679ededacd435ef449bd249e","","null","<img     src='G_8.jpg' height='90'> <img     src='G_5.jpg' height='90'> <img     src='G_1.jpg' height='90'> <img      src='G_7.jpg' height='90'> <img   src='G_2.jpg' height='90'> <img       src='G_4.jpg' height='90'> <img  src='G_3.jpg' height='90'> <img src='G_6.jpg' height='90'>","null","Animation1","",""
"","","","","","html-keyboard-response","112","136593","0.0-99.0","11","1","2025-02-02 02:56:33","bc01a2b6f61d06f6604adb8657495020","172.90.177.212","Mozilla/5.0 (Windows NT 10.0; Win64; x64) AppleWebKit/537.36 (KHTML, like Gecko) Chrome/132.0.0.0 Safari/537.36","WebKit","Chrome","132.0.0.0","Windows","10.0","https://app.prolific.com/","en-US,en;q=0.9","659ac6d9e91b332d5e91216c","679edb085803f58d6bbd31ca","679ededacd435ef449bd249e","","null","<img     src='G_8.jpg' height='90'> <img     src='G_5.jpg' height='90'> <img     src='G_1.jpg' height='90'> <img      src='G_7.jpg' height='90'> <img   src='G_2.jpg' height='90'> <img       src='G_4.jpg' height='90'> <img id='selected'  src='G_3.jpg' height='90'> <img src='G_6.jpg' height='90'>","null","Animation1","",""
"","","","","","html-keyboard-response","113","137108","0.0-100.0","11","1","2025-02-02 02:56:33","bc01a2b6f61d06f6604adb8657495020","172.90.177.212","Mozilla/5.0 (Windows NT 10.0; Win64; x64) AppleWebKit/537.36 (KHTML, like Gecko) Chrome/132.0.0.0 Safari/537.36","WebKit","Chrome","132.0.0.0","Windows","10.0","https://app.prolific.com/","en-US,en;q=0.9","659ac6d9e91b332d5e91216c","679edb085803f58d6bbd31ca","679ededacd435ef449bd249e","","null","<img     src='G_8.jpg' height='90'> <img     src='G_5.jpg' height='90'> <img     src='G_1.jpg' height='90'> <img      src='G_7.jpg' height='90'> <img   src='G_2.jpg' height='90'> <img       src='G_4.jpg' height='90'> <img id='selected'  src='G_3.jpg' height='90'> <img id='selected' src='G_6.jpg' height='90'>","null","Animation1","",""
"","","","","","html-keyboard-response","114","137613","0.0-101.0","11","1","2025-02-02 02:56:33","bc01a2b6f61d06f6604adb8657495020","172.90.177.212","Mozilla/5.0 (Windows NT 10.0; Win64; x64) AppleWebKit/537.36 (KHTML, like Gecko) Chrome/132.0.0.0 Safari/537.36","WebKit","Chrome","132.0.0.0","Windows","10.0","https://app.prolific.com/","en-US,en;q=0.9","659ac6d9e91b332d5e91216c","679edb085803f58d6bbd31ca","679ededacd435ef449bd249e","","null","<img     src='G_8.jpg' height='90'> <img     src='G_5.jpg' height='90'> <img     src='G_1.jpg' height='90'> <img      src='G_7.jpg' height='90'> <img   src='G_2.jpg' height='90'> <img       src='G_4.jpg' height='90'> <img id='swapped' src='G_6.jpg' height='90'> <img id='swapped'  src='G_3.jpg' height='90'>","null","Animation1","",""
"","","","","","html-keyboard-response","115","137918","0.0-102.0","11","1","2025-02-02 02:56:33","bc01a2b6f61d06f6604adb8657495020","172.90.177.212","Mozilla/5.0 (Windows NT 10.0; Win64; x64) AppleWebKit/537.36 (KHTML, like Gecko) Chrome/132.0.0.0 Safari/537.36","WebKit","Chrome","132.0.0.0","Windows","10.0","https://app.prolific.com/","en-US,en;q=0.9","659ac6d9e91b332d5e91216c","679edb085803f58d6bbd31ca","679ededacd435ef449bd249e","","null","<img     src='G_8.jpg' height='90'> <img     src='G_5.jpg' height='90'> <img     src='G_1.jpg' height='90'> <img      src='G_7.jpg' height='90'> <img   src='G_2.jpg' height='90'> <img       src='G_4.jpg' height='90'> <img  src='G_6.jpg' height='90'> <img   src='G_3.jpg' height='90'>","null","Animation1","",""
"","","","","","html-keyboard-response","116","138425","0.0-103.0","11","1","2025-02-02 02:56:33","bc01a2b6f61d06f6604adb8657495020","172.90.177.212","Mozilla/5.0 (Windows NT 10.0; Win64; x64) AppleWebKit/537.36 (KHTML, like Gecko) Chrome/132.0.0.0 Safari/537.36","WebKit","Chrome","132.0.0.0","Windows","10.0","https://app.prolific.com/","en-US,en;q=0.9","659ac6d9e91b332d5e91216c","679edb085803f58d6bbd31ca","679ededacd435ef449bd249e","","null","<img     src='G_8.jpg' height='90'> <img     src='G_5.jpg' height='90'> <img     src='G_1.jpg' height='90'> <img      src='G_7.jpg' height='90'> <img   src='G_2.jpg' height='90'> <img id='selected'       src='G_4.jpg' height='90'> <img  src='G_6.jpg' height='90'> <img   src='G_3.jpg' height='90'>","null","Animation1","",""
"","","","","","html-keyboard-response","117","138932","0.0-104.0","11","1","2025-02-02 02:56:33","bc01a2b6f61d06f6604adb8657495020","172.90.177.212","Mozilla/5.0 (Windows NT 10.0; Win64; x64) AppleWebKit/537.36 (KHTML, like Gecko) Chrome/132.0.0.0 Safari/537.36","WebKit","Chrome","132.0.0.0","Windows","10.0","https://app.prolific.com/","en-US,en;q=0.9","659ac6d9e91b332d5e91216c","679edb085803f58d6bbd31ca","679ededacd435ef449bd249e","","null","<img     src='G_8.jpg' height='90'> <img     src='G_5.jpg' height='90'> <img     src='G_1.jpg' height='90'> <img      src='G_7.jpg' height='90'> <img   src='G_2.jpg' height='90'> <img id='selected'       src='G_4.jpg' height='90'> <img id='selected'  src='G_6.jpg' height='90'> <img   src='G_3.jpg' height='90'>","null","Animation1","",""
"","","","","","html-keyboard-response","118","139440","0.0-105.0","11","1","2025-02-02 02:56:33","bc01a2b6f61d06f6604adb8657495020","172.90.177.212","Mozilla/5.0 (Windows NT 10.0; Win64; x64) AppleWebKit/537.36 (KHTML, like Gecko) Chrome/132.0.0.0 Safari/537.36","WebKit","Chrome","132.0.0.0","Windows","10.0","https://app.prolific.com/","en-US,en;q=0.9","659ac6d9e91b332d5e91216c","679edb085803f58d6bbd31ca","679ededacd435ef449bd249e","","null","<img     src='G_8.jpg' height='90'> <img     src='G_5.jpg' height='90'> <img     src='G_1.jpg' height='90'> <img      src='G_7.jpg' height='90'> <img   src='G_2.jpg' height='90'> <img id='selected'       src='G_4.jpg' height='90'> <img id='selected'  src='G_6.jpg' height='90'> <img   src='G_3.jpg' height='90'>","null","Animation1","",""
"","","","","","html-keyboard-response","119","139751","0.0-106.0","11","1","2025-02-02 02:56:33","bc01a2b6f61d06f6604adb8657495020","172.90.177.212","Mozilla/5.0 (Windows NT 10.0; Win64; x64) AppleWebKit/537.36 (KHTML, like Gecko) Chrome/132.0.0.0 Safari/537.36","WebKit","Chrome","132.0.0.0","Windows","10.0","https://app.prolific.com/","en-US,en;q=0.9","659ac6d9e91b332d5e91216c","679edb085803f58d6bbd31ca","679ededacd435ef449bd249e","","null","<img     src='G_8.jpg' height='90'> <img     src='G_5.jpg' height='90'> <img     src='G_1.jpg' height='90'> <img      src='G_7.jpg' height='90'> <img   src='G_2.jpg' height='90'> <img        src='G_4.jpg' height='90'> <img   src='G_6.jpg' height='90'> <img   src='G_3.jpg' height='90'>","null","Animation1","",""
"","","","","","html-keyboard-response","120","142230","0.0-107.0","11","1","2025-02-02 02:56:33","bc01a2b6f61d06f6604adb8657495020","172.90.177.212","Mozilla/5.0 (Windows NT 10.0; Win64; x64) AppleWebKit/537.36 (KHTML, like Gecko) Chrome/132.0.0.0 Safari/537.36","WebKit","Chrome","132.0.0.0","Windows","10.0","https://app.prolific.com/","en-US,en;q=0.9","659ac6d9e91b332d5e91216c","679edb085803f58d6bbd31ca","679ededacd435ef449bd249e","","2477","[""Did you notice any patterns? <br><br>Press Enter to watch that example again and follow the steps of Omgne Sort.""]","enter","","",""
"","","","","","html-button-response","121","142633","0.0-108.0","11","1","2025-02-02 02:56:33","bc01a2b6f61d06f6604adb8657495020","172.90.177.212","Mozilla/5.0 (Windows NT 10.0; Win64; x64) AppleWebKit/537.36 (KHTML, like Gecko) Chrome/132.0.0.0 Safari/537.36","WebKit","Chrome","132.0.0.0","Windows","10.0","https://app.prolific.com/","en-US,en;q=0.9","659ac6d9e91b332d5e91216c","679edb085803f58d6bbd31ca","679ededacd435ef449bd249e","","null","<img id='selected' src='G_7.jpg' height='90'> <img src='G_4.jpg' height='90'> <img src='G_1.jpg' height='90'> <img src='G_8.jpg' height='90'> <img src='G_5.jpg' height='90'> <img src='G_2.jpg' height='90'> <img src='G_3.jpg' height='90'> <img src='G_6.jpg' height='90'>","null","Learning example 1","",""
"","","","","","html-button-response","122","142947","0.0-109.0","11","1","2025-02-02 02:56:33","bc01a2b6f61d06f6604adb8657495020","172.90.177.212","Mozilla/5.0 (Windows NT 10.0; Win64; x64) AppleWebKit/537.36 (KHTML, like Gecko) Chrome/132.0.0.0 Safari/537.36","WebKit","Chrome","132.0.0.0","Windows","10.0","https://app.prolific.com/","en-US,en;q=0.9","659ac6d9e91b332d5e91216c","679edb085803f58d6bbd31ca","679ededacd435ef449bd249e","","null","<img id='selected' src='G_7.jpg' height='90'> <img id='selected' src='G_4.jpg' height='90'> <img src='G_1.jpg' height='90'> <img src='G_8.jpg' height='90'> <img src='G_5.jpg' height='90'> <img src='G_2.jpg' height='90'> <img src='G_3.jpg' height='90'> <img src='G_6.jpg' height='90'>","null","Learning example 1","",""
"","","","","","html-button-response","123","143250","0.0-110.0","11","1","2025-02-02 02:56:33","bc01a2b6f61d06f6604adb8657495020","172.90.177.212","Mozilla/5.0 (Windows NT 10.0; Win64; x64) AppleWebKit/537.36 (KHTML, like Gecko) Chrome/132.0.0.0 Safari/537.36","WebKit","Chrome","132.0.0.0","Windows","10.0","https://app.prolific.com/","en-US,en;q=0.9","659ac6d9e91b332d5e91216c","679edb085803f58d6bbd31ca","679ededacd435ef449bd249e","","null","<img id='selected' src='G_7.jpg' height='90'> <img id='selected' src='G_4.jpg' height='90'> <img src='G_1.jpg' height='90'> <img src='G_8.jpg' height='90'> <img src='G_5.jpg' height='90'> <img src='G_2.jpg' height='90'> <img src='G_3.jpg' height='90'> <img src='G_6.jpg' height='90'>","null","Learning example 1","",""
"","","","","","html-button-response","124","143718","0.0-111.0-0.0-0.0","11","1","2025-02-02 02:56:33","bc01a2b6f61d06f6604adb8657495020","172.90.177.212","Mozilla/5.0 (Windows NT 10.0; Win64; x64) AppleWebKit/537.36 (KHTML, like Gecko) Chrome/132.0.0.0 Safari/537.36","WebKit","Chrome","132.0.0.0","Windows","10.0","https://app.prolific.com/","en-US,en;q=0.9","659ac6d9e91b332d5e91216c","679edb085803f58d6bbd31ca","679ededacd435ef449bd249e","","466","<img id='selected' src='G_7.jpg' height='90'> <img id='selected' src='G_4.jpg' height='90'> <img src='G_1.jpg' height='90'> <img src='G_8.jpg' height='90'> <img src='G_5.jpg' height='90'> <img src='G_2.jpg' height='90'> <img src='G_3.jpg' height='90'> <img src='G_6.jpg' height='90'>","0","Learning example 1","",""
"","","","","","html-button-response","125","144139","0.0-111.1-0.1-0.1","11","1","2025-02-02 02:56:33","bc01a2b6f61d06f6604adb8657495020","172.90.177.212","Mozilla/5.0 (Windows NT 10.0; Win64; x64) AppleWebKit/537.36 (KHTML, like Gecko) Chrome/132.0.0.0 Safari/537.36","WebKit","Chrome","132.0.0.0","Windows","10.0","https://app.prolific.com/","en-US,en;q=0.9","659ac6d9e91b332d5e91216c","679edb085803f58d6bbd31ca","679ededacd435ef449bd249e","","419","<img id='selected' src='G_7.jpg' height='90'> <img id='selected' src='G_4.jpg' height='90'> <img src='G_1.jpg' height='90'> <img src='G_8.jpg' height='90'> <img src='G_5.jpg' height='90'> <img src='G_2.jpg' height='90'> <img src='G_3.jpg' height='90'> <img src='G_6.jpg' height='90'>","1","Learning example 1","",""
"","","","","","html-button-response","126","144341","0.0-112.0","11","1","2025-02-02 02:56:33","bc01a2b6f61d06f6604adb8657495020","172.90.177.212","Mozilla/5.0 (Windows NT 10.0; Win64; x64) AppleWebKit/537.36 (KHTML, like Gecko) Chrome/132.0.0.0 Safari/537.36","WebKit","Chrome","132.0.0.0","Windows","10.0","https://app.prolific.com/","en-US,en;q=0.9","659ac6d9e91b332d5e91216c","679edb085803f58d6bbd31ca","679ededacd435ef449bd249e","","null","<img  src='G_7.jpg' height='90'> <img  src='G_4.jpg' height='90'> <img src='G_1.jpg' height='90'> <img src='G_8.jpg' height='90'> <img src='G_5.jpg' height='90'> <img src='G_2.jpg' height='90'> <img src='G_3.jpg' height='90'> <img src='G_6.jpg' height='90'>","null","Learning example 1","",""
"","","","","","html-button-response","127","144753","0.0-113.0","11","1","2025-02-02 02:56:33","bc01a2b6f61d06f6604adb8657495020","172.90.177.212","Mozilla/5.0 (Windows NT 10.0; Win64; x64) AppleWebKit/537.36 (KHTML, like Gecko) Chrome/132.0.0.0 Safari/537.36","WebKit","Chrome","132.0.0.0","Windows","10.0","https://app.prolific.com/","en-US,en;q=0.9","659ac6d9e91b332d5e91216c","679edb085803f58d6bbd31ca","679ededacd435ef449bd249e","","null","<img  src='G_7.jpg' height='90'> <img id='selected'  src='G_4.jpg' height='90'> <img src='G_1.jpg' height='90'> <img src='G_8.jpg' height='90'> <img src='G_5.jpg' height='90'> <img src='G_2.jpg' height='90'> <img src='G_3.jpg' height='90'> <img src='G_6.jpg' height='90'>","null","Learning example 1","",""
"","","","","","html-button-response","128","145056","0.0-114.0","11","1","2025-02-02 02:56:33","bc01a2b6f61d06f6604adb8657495020","172.90.177.212","Mozilla/5.0 (Windows NT 10.0; Win64; x64) AppleWebKit/537.36 (KHTML, like Gecko) Chrome/132.0.0.0 Safari/537.36","WebKit","Chrome","132.0.0.0","Windows","10.0","https://app.prolific.com/","en-US,en;q=0.9","659ac6d9e91b332d5e91216c","679edb085803f58d6bbd31ca","679ededacd435ef449bd249e","","null","<img  src='G_7.jpg' height='90'> <img id='selected'  src='G_4.jpg' height='90'> <img id='selected' src='G_1.jpg' height='90'> <img src='G_8.jpg' height='90'> <img src='G_5.jpg' height='90'> <img src='G_2.jpg' height='90'> <img src='G_3.jpg' height='90'> <img src='G_6.jpg' height='90'>","null","Learning example 1","",""
"","","","","","html-button-response","129","145361","0.0-115.0","11","1","2025-02-02 02:56:33","bc01a2b6f61d06f6604adb8657495020","172.90.177.212","Mozilla/5.0 (Windows NT 10.0; Win64; x64) AppleWebKit/537.36 (KHTML, like Gecko) Chrome/132.0.0.0 Safari/537.36","WebKit","Chrome","132.0.0.0","Windows","10.0","https://app.prolific.com/","en-US,en;q=0.9","659ac6d9e91b332d5e91216c","679edb085803f58d6bbd31ca","679ededacd435ef449bd249e","","null","<img  src='G_7.jpg' height='90'> <img id='swapped' src='G_1.jpg' height='90'> <img id='swapped'  src='G_4.jpg' height='90'> <img src='G_8.jpg' height='90'> <img src='G_5.jpg' height='90'> <img src='G_2.jpg' height='90'> <img src='G_3.jpg' height='90'> <img src='G_6.jpg' height='90'>","null","Learning example 1","",""
"","","","","","html-button-response","130","145806","0.0-116.0-0.0-0.0","11","1","2025-02-02 02:56:33","bc01a2b6f61d06f6604adb8657495020","172.90.177.212","Mozilla/5.0 (Windows NT 10.0; Win64; x64) AppleWebKit/537.36 (KHTML, like Gecko) Chrome/132.0.0.0 Safari/537.36","WebKit","Chrome","132.0.0.0","Windows","10.0","https://app.prolific.com/","en-US,en;q=0.9","659ac6d9e91b332d5e91216c","679edb085803f58d6bbd31ca","679ededacd435ef449bd249e","","443","<img  src='G_7.jpg' height='90'> <img id='swapped' src='G_1.jpg' height='90'> <img id='swapped'  src='G_4.jpg' height='90'> <img src='G_8.jpg' height='90'> <img src='G_5.jpg' height='90'> <img src='G_2.jpg' height='90'> <img src='G_3.jpg' height='90'> <img src='G_6.jpg' height='90'>","1","Learning example 1","",""
"","","","","","html-button-response","131","146242","0.0-116.1-0.1-0.1","11","1","2025-02-02 02:56:33","bc01a2b6f61d06f6604adb8657495020","172.90.177.212","Mozilla/5.0 (Windows NT 10.0; Win64; x64) AppleWebKit/537.36 (KHTML, like Gecko) Chrome/132.0.0.0 Safari/537.36","WebKit","Chrome","132.0.0.0","Windows","10.0","https://app.prolific.com/","en-US,en;q=0.9","659ac6d9e91b332d5e91216c","679edb085803f58d6bbd31ca","679ededacd435ef449bd249e","","434","<img  src='G_7.jpg' height='90'> <img id='swapped' src='G_1.jpg' height='90'> <img id='swapped'  src='G_4.jpg' height='90'> <img src='G_8.jpg' height='90'> <img src='G_5.jpg' height='90'> <img src='G_2.jpg' height='90'> <img src='G_3.jpg' height='90'> <img src='G_6.jpg' height='90'>","2","Learning example 1","",""
"","","","","","html-button-response","132","146455","0.0-117.0","11","1","2025-02-02 02:56:33","bc01a2b6f61d06f6604adb8657495020","172.90.177.212","Mozilla/5.0 (Windows NT 10.0; Win64; x64) AppleWebKit/537.36 (KHTML, like Gecko) Chrome/132.0.0.0 Safari/537.36","WebKit","Chrome","132.0.0.0","Windows","10.0","https://app.prolific.com/","en-US,en;q=0.9","659ac6d9e91b332d5e91216c","679edb085803f58d6bbd31ca","679ededacd435ef449bd249e","","null","<img  src='G_7.jpg' height='90'> <img  src='G_1.jpg' height='90'> <img   src='G_4.jpg' height='90'> <img src='G_8.jpg' height='90'> <img src='G_5.jpg' height='90'> <img src='G_2.jpg' height='90'> <img src='G_3.jpg' height='90'> <img src='G_6.jpg' height='90'>","null","Learning example 1","",""
"","","","","","html-button-response","133","146870","0.0-118.0","11","1","2025-02-02 02:56:33","bc01a2b6f61d06f6604adb8657495020","172.90.177.212","Mozilla/5.0 (Windows NT 10.0; Win64; x64) AppleWebKit/537.36 (KHTML, like Gecko) Chrome/132.0.0.0 Safari/537.36","WebKit","Chrome","132.0.0.0","Windows","10.0","https://app.prolific.com/","en-US,en;q=0.9","659ac6d9e91b332d5e91216c","679edb085803f58d6bbd31ca","679ededacd435ef449bd249e","","null","<img id='selected'  src='G_7.jpg' height='90'> <img  src='G_1.jpg' height='90'> <img   src='G_4.jpg' height='90'> <img src='G_8.jpg' height='90'> <img src='G_5.jpg' height='90'> <img src='G_2.jpg' height='90'> <img src='G_3.jpg' height='90'> <img src='G_6.jpg' height='90'>","null","Learning example 1","",""
"","","","","","html-button-response","134","147175","0.0-119.0","11","1","2025-02-02 02:56:33","bc01a2b6f61d06f6604adb8657495020","172.90.177.212","Mozilla/5.0 (Windows NT 10.0; Win64; x64) AppleWebKit/537.36 (KHTML, like Gecko) Chrome/132.0.0.0 Safari/537.36","WebKit","Chrome","132.0.0.0","Windows","10.0","https://app.prolific.com/","en-US,en;q=0.9","659ac6d9e91b332d5e91216c","679edb085803f58d6bbd31ca","679ededacd435ef449bd249e","","null","<img id='selected'  src='G_7.jpg' height='90'> <img id='selected'  src='G_1.jpg' height='90'> <img   src='G_4.jpg' height='90'> <img src='G_8.jpg' height='90'> <img src='G_5.jpg' height='90'> <img src='G_2.jpg' height='90'> <img src='G_3.jpg' height='90'> <img src='G_6.jpg' height='90'>","null","Learning example 1","",""
"","","","","","html-button-response","135","147483","0.0-120.0","11","1","2025-02-02 02:56:33","bc01a2b6f61d06f6604adb8657495020","172.90.177.212","Mozilla/5.0 (Windows NT 10.0; Win64; x64) AppleWebKit/537.36 (KHTML, like Gecko) Chrome/132.0.0.0 Safari/537.36","WebKit","Chrome","132.0.0.0","Windows","10.0","https://app.prolific.com/","en-US,en;q=0.9","659ac6d9e91b332d5e91216c","679edb085803f58d6bbd31ca","679ededacd435ef449bd249e","","null","<img id='swapped'  src='G_1.jpg' height='90'> <img id='swapped'  src='G_7.jpg' height='90'> <img   src='G_4.jpg' height='90'> <img src='G_8.jpg' height='90'> <img src='G_5.jpg' height='90'> <img src='G_2.jpg' height='90'> <img src='G_3.jpg' height='90'> <img src='G_6.jpg' height='90'>","null","Learning example 1","",""
"","","","","","html-button-response","136","147686","0.0-121.0-0.0-0.0","11","1","2025-02-02 02:56:33","bc01a2b6f61d06f6604adb8657495020","172.90.177.212","Mozilla/5.0 (Windows NT 10.0; Win64; x64) AppleWebKit/537.36 (KHTML, like Gecko) Chrome/132.0.0.0 Safari/537.36","WebKit","Chrome","132.0.0.0","Windows","10.0","https://app.prolific.com/","en-US,en;q=0.9","659ac6d9e91b332d5e91216c","679edb085803f58d6bbd31ca","679ededacd435ef449bd249e","","201","<img id='swapped'  src='G_1.jpg' height='90'> <img id='swapped'  src='G_7.jpg' height='90'> <img   src='G_4.jpg' height='90'> <img src='G_8.jpg' height='90'> <img src='G_5.jpg' height='90'> <img src='G_2.jpg' height='90'> <img src='G_3.jpg' height='90'> <img src='G_6.jpg' height='90'>","0","Learning example 1","",""
"","","","","","html-button-response","137","148003","0.0-121.1-0.1-0.1","11","1","2025-02-02 02:56:33","bc01a2b6f61d06f6604adb8657495020","172.90.177.212","Mozilla/5.0 (Windows NT 10.0; Win64; x64) AppleWebKit/537.36 (KHTML, like Gecko) Chrome/132.0.0.0 Safari/537.36","WebKit","Chrome","132.0.0.0","Windows","10.0","https://app.prolific.com/","en-US,en;q=0.9","659ac6d9e91b332d5e91216c","679edb085803f58d6bbd31ca","679ededacd435ef449bd249e","","315","<img id='swapped'  src='G_1.jpg' height='90'> <img id='swapped'  src='G_7.jpg' height='90'> <img   src='G_4.jpg' height='90'> <img src='G_8.jpg' height='90'> <img src='G_5.jpg' height='90'> <img src='G_2.jpg' height='90'> <img src='G_3.jpg' height='90'> <img src='G_6.jpg' height='90'>","1","Learning example 1","",""
"","","","","","html-button-response","138","148208","0.0-122.0","11","1","2025-02-02 02:56:33","bc01a2b6f61d06f6604adb8657495020","172.90.177.212","Mozilla/5.0 (Windows NT 10.0; Win64; x64) AppleWebKit/537.36 (KHTML, like Gecko) Chrome/132.0.0.0 Safari/537.36","WebKit","Chrome","132.0.0.0","Windows","10.0","https://app.prolific.com/","en-US,en;q=0.9","659ac6d9e91b332d5e91216c","679edb085803f58d6bbd31ca","679ededacd435ef449bd249e","","null","<img   src='G_1.jpg' height='90'> <img   src='G_7.jpg' height='90'> <img   src='G_4.jpg' height='90'> <img src='G_8.jpg' height='90'> <img src='G_5.jpg' height='90'> <img src='G_2.jpg' height='90'> <img src='G_3.jpg' height='90'> <img src='G_6.jpg' height='90'>","null","Learning example 1","",""
"","","","","","html-button-response","139","148614","0.0-123.0","11","1","2025-02-02 02:56:33","bc01a2b6f61d06f6604adb8657495020","172.90.177.212","Mozilla/5.0 (Windows NT 10.0; Win64; x64) AppleWebKit/537.36 (KHTML, like Gecko) Chrome/132.0.0.0 Safari/537.36","WebKit","Chrome","132.0.0.0","Windows","10.0","https://app.prolific.com/","en-US,en;q=0.9","659ac6d9e91b332d5e91216c","679edb085803f58d6bbd31ca","679ededacd435ef449bd249e","","null","<img   src='G_1.jpg' height='90'> <img   src='G_7.jpg' height='90'> <img id='selected'   src='G_4.jpg' height='90'> <img src='G_8.jpg' height='90'> <img src='G_5.jpg' height='90'> <img src='G_2.jpg' height='90'> <img src='G_3.jpg' height='90'> <img src='G_6.jpg' height='90'>","null","Learning example 1","",""
"","","","","","html-button-response","140","148931","0.0-124.0","11","1","2025-02-02 02:56:33","bc01a2b6f61d06f6604adb8657495020","172.90.177.212","Mozilla/5.0 (Windows NT 10.0; Win64; x64) AppleWebKit/537.36 (KHTML, like Gecko) Chrome/132.0.0.0 Safari/537.36","WebKit","Chrome","132.0.0.0","Windows","10.0","https://app.prolific.com/","en-US,en;q=0.9","659ac6d9e91b332d5e91216c","679edb085803f58d6bbd31ca","679ededacd435ef449bd249e","","null","<img   src='G_1.jpg' height='90'> <img   src='G_7.jpg' height='90'> <img id='selected'   src='G_4.jpg' height='90'> <img id='selected' src='G_8.jpg' height='90'> <img src='G_5.jpg' height='90'> <img src='G_2.jpg' height='90'> <img src='G_3.jpg' height='90'> <img src='G_6.jpg' height='90'>","null","Learning example 1","",""
"","","","","","html-button-response","141","149237","0.0-125.0","11","1","2025-02-02 02:56:33","bc01a2b6f61d06f6604adb8657495020","172.90.177.212","Mozilla/5.0 (Windows NT 10.0; Win64; x64) AppleWebKit/537.36 (KHTML, like Gecko) Chrome/132.0.0.0 Safari/537.36","WebKit","Chrome","132.0.0.0","Windows","10.0","https://app.prolific.com/","en-US,en;q=0.9","659ac6d9e91b332d5e91216c","679edb085803f58d6bbd31ca","679ededacd435ef449bd249e","","null","<img   src='G_1.jpg' height='90'> <img   src='G_7.jpg' height='90'> <img id='swapped' src='G_8.jpg' height='90'> <img id='swapped'   src='G_4.jpg' height='90'> <img src='G_5.jpg' height='90'> <img src='G_2.jpg' height='90'> <img src='G_3.jpg' height='90'> <img src='G_6.jpg' height='90'>","null","Learning example 1","",""
