"success","timeout","failed_images","failed_audio","failed_video","trial_type","trial_index","time_elapsed","internal_node_id","run_id","condition","recorded_at","source_code_version","ip","user_agent","device","browser","browser_version","platform","platform_version","referer","accept_language","PROLIFIC_PID","STUDY_ID","SESSION_ID","view_history","rt","stimulus","response","phase","question_order","presented_choices"
"true","false","[]","[]","[]","preload","0","994","0.0-0.0","12","1","2025-02-02 02:58:54","bc01a2b6f61d06f6604adb8657495020","76.218.23.63","Mozilla/5.0 (Windows NT 10.0; Win64; x64; rv:134.0) Gecko/20100101 Firefox/134.0","","Firefox","134.0","Windows","10.0","https://app.prolific.com/","en-US,en;q=0.5","60fe08ddc8e72aef56771482","679edb085803f58d6bbd31ca","679edf585a3632dbd83c4e98","","","","","","",""
"","","","","","instructions","1","120004","0.0-1.0","12","1","2025-02-02 02:58:54","bc01a2b6f61d06f6604adb8657495020","76.218.23.63","Mozilla/5.0 (Windows NT 10.0; Win64; x64; rv:134.0) Gecko/20100101 Firefox/134.0","","Firefox","134.0","Windows","10.0","https://app.prolific.com/","en-US,en;q=0.5","60fe08ddc8e72aef56771482","679edb085803f58d6bbd31ca","679edf585a3632dbd83c4e98","[{""page_index"":0,""viewing_time"":119009}]","119009","","","","",""
"","","","","","html-keyboard-response","2","120522","0.0-2.0","12","1","2025-02-02 02:58:54","bc01a2b6f61d06f6604adb8657495020","76.218.23.63","Mozilla/5.0 (Windows NT 10.0; Win64; x64; rv:134.0) Gecko/20100101 Firefox/134.0","","Firefox","134.0","Windows","10.0","https://app.prolific.com/","en-US,en;q=0.5","60fe08ddc8e72aef56771482","679edb085803f58d6bbd31ca","679edf585a3632dbd83c4e98","","null","<p> + <p/>","null","","",""
"","","","","","instructions","3","151028","0.0-3.0","12","1","2025-02-02 02:58:54","bc01a2b6f61d06f6604adb8657495020","76.218.23.63","Mozilla/5.0 (Windows NT 10.0; Win64; x64; rv:134.0) Gecko/20100101 Firefox/134.0","","Firefox","134.0","Windows","10.0","https://app.prolific.com/","en-US,en;q=0.5","60fe08ddc8e72aef56771482","679edb085803f58d6bbd31ca","679edf585a3632dbd83c4e98","[{""page_index"":0,""viewing_time"":1586},{""page_index"":1,""viewing_time"":8021},{""page_index"":2,""viewing_time"":9090},{""page_index"":3,""viewing_time"":6178},{""page_index"":4,""viewing_time"":5630}]","30505","","","","",""
"","","","","","html-button-response","4","167292","0.0-4.0-0.0-0.0","12","1","2025-02-02 02:58:54","bc01a2b6f61d06f6604adb8657495020","76.218.23.63","Mozilla/5.0 (Windows NT 10.0; Win64; x64; rv:134.0) Gecko/20100101 Firefox/134.0","","Firefox","134.0","Windows","10.0","https://app.prolific.com/","en-US,en;q=0.5","60fe08ddc8e72aef56771482","679edb085803f58d6bbd31ca","679edf585a3632dbd83c4e98","","16262","","2","Intro Trial","",""
"","","","","","html-button-response","5","168535","0.0-4.1-0.1-0.1","12","1","2025-02-02 02:58:54","bc01a2b6f61d06f6604adb8657495020","76.218.23.63","Mozilla/5.0 (Windows NT 10.0; Win64; x64; rv:134.0) Gecko/20100101 Firefox/134.0","","Firefox","134.0","Windows","10.0","https://app.prolific.com/","en-US,en;q=0.5","60fe08ddc8e72aef56771482","679edb085803f58d6bbd31ca","679edf585a3632dbd83c4e98","","1240","","4","Intro Trial","",""
"","","","","","html-button-response","6","169494","0.0-4.2-0.2-0.2","12","1","2025-02-02 02:58:54","bc01a2b6f61d06f6604adb8657495020","76.218.23.63","Mozilla/5.0 (Windows NT 10.0; Win64; x64; rv:134.0) Gecko/20100101 Firefox/134.0","","Firefox","134.0","Windows","10.0","https://app.prolific.com/","en-US,en;q=0.5","60fe08ddc8e72aef56771482","679edb085803f58d6bbd31ca","679edf585a3632dbd83c4e98","","955","","3","Intro Trial","",""
"","","","","","html-button-response","7","169990","0.0-4.3-0.3-0.3","12","1","2025-02-02 02:58:54","bc01a2b6f61d06f6604adb8657495020","76.218.23.63","Mozilla/5.0 (Windows NT 10.0; Win64; x64; rv:134.0) Gecko/20100101 Firefox/134.0","","Firefox","134.0","Windows","10.0","https://app.prolific.com/","en-US,en;q=0.5","60fe08ddc8e72aef56771482","679edb085803f58d6bbd31ca","679edf585a3632dbd83c4e98","","493","","2","Intro Trial","",""
"","","","","","html-button-response","8","171245","0.0-4.4-0.4-0.4","12","1","2025-02-02 02:58:54","bc01a2b6f61d06f6604adb8657495020","76.218.23.63","Mozilla/5.0 (Windows NT 10.0; Win64; x64; rv:134.0) Gecko/20100101 Firefox/134.0","","Firefox","134.0","Windows","10.0","https://app.prolific.com/","en-US,en;q=0.5","60fe08ddc8e72aef56771482","679edb085803f58d6bbd31ca","679edf585a3632dbd83c4e98","","1252","","3","Intro Trial","",""
"","","","","","html-button-response","9","171841","0.0-4.5-0.5-0.5","12","1","2025-02-02 02:58:54","bc01a2b6f61d06f6604adb8657495020","76.218.23.63","Mozilla/5.0 (Windows NT 10.0; Win64; x64; rv:134.0) Gecko/20100101 Firefox/134.0","","Firefox","134.0","Windows","10.0","https://app.prolific.com/","en-US,en;q=0.5","60fe08ddc8e72aef56771482","679edb085803f58d6bbd31ca","679edf585a3632dbd83c4e98","","594","","1","Intro Trial","",""
"","","","","","html-button-response","10","172711","0.0-4.6-0.6-0.6","12","1","2025-02-02 02:58:54","bc01a2b6f61d06f6604adb8657495020","76.218.23.63","Mozilla/5.0 (Windows NT 10.0; Win64; x64; rv:134.0) Gecko/20100101 Firefox/134.0","","Firefox","134.0","Windows","10.0","https://app.prolific.com/","en-US,en;q=0.5","60fe08ddc8e72aef56771482","679edb085803f58d6bbd31ca","679edf585a3632dbd83c4e98","","867","","1","Intro Trial","",""
"","","","","","html-button-response","11","173130","0.0-4.7-0.7-0.7","12","1","2025-02-02 02:58:54","bc01a2b6f61d06f6604adb8657495020","76.218.23.63","Mozilla/5.0 (Windows NT 10.0; Win64; x64; rv:134.0) Gecko/20100101 Firefox/134.0","","Firefox","134.0","Windows","10.0","https://app.prolific.com/","en-US,en;q=0.5","60fe08ddc8e72aef56771482","679edb085803f58d6bbd31ca","679edf585a3632dbd83c4e98","","418","","0","Intro Trial","",""
"","","","","","html-button-response","12","174132","0.0-4.8-0.8-0.8","12","1","2025-02-02 02:58:54","bc01a2b6f61d06f6604adb8657495020","76.218.23.63","Mozilla/5.0 (Windows NT 10.0; Win64; x64; rv:134.0) Gecko/20100101 Firefox/134.0","","Firefox","134.0","Windows","10.0","https://app.prolific.com/","en-US,en;q=0.5","60fe08ddc8e72aef56771482","679edb085803f58d6bbd31ca","679edf585a3632dbd83c4e98","","1001","","1","Intro Trial","",""
"","","","","","html-button-response","13","174730","0.0-4.9-0.9-0.9","12","1","2025-02-02 02:58:54","bc01a2b6f61d06f6604adb8657495020","76.218.23.63","Mozilla/5.0 (Windows NT 10.0; Win64; x64; rv:134.0) Gecko/20100101 Firefox/134.0","","Firefox","134.0","Windows","10.0","https://app.prolific.com/","en-US,en;q=0.5","60fe08ddc8e72aef56771482","679edb085803f58d6bbd31ca","679edf585a3632dbd83c4e98","","596","","2","Intro Trial","",""
"","","","","","html-button-response","14","175608","0.0-4.10-0.10-0.10","12","1","2025-02-02 02:58:54","bc01a2b6f61d06f6604adb8657495020","76.218.23.63","Mozilla/5.0 (Windows NT 10.0; Win64; x64; rv:134.0) Gecko/20100101 Firefox/134.0","","Firefox","134.0","Windows","10.0","https://app.prolific.com/","en-US,en;q=0.5","60fe08ddc8e72aef56771482","679edb085803f58d6bbd31ca","679edf585a3632dbd83c4e98","","875","","1","Intro Trial","",""
"","","","","","html-button-response","15","176052","0.0-4.11-0.11-0.11","12","1","2025-02-02 02:58:54","bc01a2b6f61d06f6604adb8657495020","76.218.23.63","Mozilla/5.0 (Windows NT 10.0; Win64; x64; rv:134.0) Gecko/20100101 Firefox/134.0","","Firefox","134.0","Windows","10.0","https://app.prolific.com/","en-US,en;q=0.5","60fe08ddc8e72aef56771482","679edb085803f58d6bbd31ca","679edf585a3632dbd83c4e98","","441","","3","Intro Trial","",""
"","","","","","html-button-response","16","176769","0.0-4.12-0.12-0.12","12","1","2025-02-02 02:58:54","bc01a2b6f61d06f6604adb8657495020","76.218.23.63","Mozilla/5.0 (Windows NT 10.0; Win64; x64; rv:134.0) Gecko/20100101 Firefox/134.0","","Firefox","134.0","Windows","10.0","https://app.prolific.com/","en-US,en;q=0.5","60fe08ddc8e72aef56771482","679edb085803f58d6bbd31ca","679edf585a3632dbd83c4e98","","715","","2","Intro Trial","",""
"","","","","","html-button-response","17","177110","0.0-4.13-0.13-0.13","12","1","2025-02-02 02:58:54","bc01a2b6f61d06f6604adb8657495020","76.218.23.63","Mozilla/5.0 (Windows NT 10.0; Win64; x64; rv:134.0) Gecko/20100101 Firefox/134.0","","Firefox","134.0","Windows","10.0","https://app.prolific.com/","en-US,en;q=0.5","60fe08ddc8e72aef56771482","679edb085803f58d6bbd31ca","679edf585a3632dbd83c4e98","","339","","3","Intro Trial","",""
"","","","","","html-button-response","18","177751","0.0-4.14-0.14-0.14","12","1","2025-02-02 02:58:54","bc01a2b6f61d06f6604adb8657495020","76.218.23.63","Mozilla/5.0 (Windows NT 10.0; Win64; x64; rv:134.0) Gecko/20100101 Firefox/134.0","","Firefox","134.0","Windows","10.0","https://app.prolific.com/","en-US,en;q=0.5","60fe08ddc8e72aef56771482","679edb085803f58d6bbd31ca","679edf585a3632dbd83c4e98","","635","","2","Intro Trial","",""
"","","","","","html-button-response","19","178157","0.0-4.15-0.15-0.15","12","1","2025-02-02 02:58:54","bc01a2b6f61d06f6604adb8657495020","76.218.23.63","Mozilla/5.0 (Windows NT 10.0; Win64; x64; rv:134.0) Gecko/20100101 Firefox/134.0","","Firefox","134.0","Windows","10.0","https://app.prolific.com/","en-US,en;q=0.5","60fe08ddc8e72aef56771482","679edb085803f58d6bbd31ca","679edf585a3632dbd83c4e98","","400","","4","Intro Trial","",""
"","","","","","html-button-response","20","179301","0.0-4.16-0.16-0.16","12","1","2025-02-02 02:58:54","bc01a2b6f61d06f6604adb8657495020","76.218.23.63","Mozilla/5.0 (Windows NT 10.0; Win64; x64; rv:134.0) Gecko/20100101 Firefox/134.0","","Firefox","134.0","Windows","10.0","https://app.prolific.com/","en-US,en;q=0.5","60fe08ddc8e72aef56771482","679edb085803f58d6bbd31ca","679edf585a3632dbd83c4e98","","1142","","3","Intro Trial","",""
"","","","","","html-button-response","21","179783","0.0-4.17-0.17-0.17","12","1","2025-02-02 02:58:54","bc01a2b6f61d06f6604adb8657495020","76.218.23.63","Mozilla/5.0 (Windows NT 10.0; Win64; x64; rv:134.0) Gecko/20100101 Firefox/134.0","","Firefox","134.0","Windows","10.0","https://app.prolific.com/","en-US,en;q=0.5","60fe08ddc8e72aef56771482","679edb085803f58d6bbd31ca","679edf585a3632dbd83c4e98","","479","","2","Intro Trial","",""
"","","","","","html-button-response","22","180531","0.0-4.18-0.18-0.18","12","1","2025-02-02 02:58:54","bc01a2b6f61d06f6604adb8657495020","76.218.23.63","Mozilla/5.0 (Windows NT 10.0; Win64; x64; rv:134.0) Gecko/20100101 Firefox/134.0","","Firefox","134.0","Windows","10.0","https://app.prolific.com/","en-US,en;q=0.5","60fe08ddc8e72aef56771482","679edb085803f58d6bbd31ca","679edf585a3632dbd83c4e98","","744","","3","Intro Trial","",""
"","","","","","html-button-response","23","181210","0.0-4.19-0.19-0.19","12","1","2025-02-02 02:58:54","bc01a2b6f61d06f6604adb8657495020","76.218.23.63","Mozilla/5.0 (Windows NT 10.0; Win64; x64; rv:134.0) Gecko/20100101 Firefox/134.0","","Firefox","134.0","Windows","10.0","https://app.prolific.com/","en-US,en;q=0.5","60fe08ddc8e72aef56771482","679edb085803f58d6bbd31ca","679edf585a3632dbd83c4e98","","675","","0","Intro Trial","",""
"","","","","","html-button-response","24","182559","0.0-4.20-0.20-0.20","12","1","2025-02-02 02:58:54","bc01a2b6f61d06f6604adb8657495020","76.218.23.63","Mozilla/5.0 (Windows NT 10.0; Win64; x64; rv:134.0) Gecko/20100101 Firefox/134.0","","Firefox","134.0","Windows","10.0","https://app.prolific.com/","en-US,en;q=0.5","60fe08ddc8e72aef56771482","679edb085803f58d6bbd31ca","679edf585a3632dbd83c4e98","","1346","","5","Intro Trial","",""
"","","","","","html-keyboard-response","25","190425","0.0-5.0","12","1","2025-02-02 02:58:54","bc01a2b6f61d06f6604adb8657495020","76.218.23.63","Mozilla/5.0 (Windows NT 10.0; Win64; x64; rv:134.0) Gecko/20100101 Firefox/134.0","","Firefox","134.0","Windows","10.0","https://app.prolific.com/","en-US,en;q=0.5","60fe08ddc8e72aef56771482","679edb085803f58d6bbd31ca","679edf585a3632dbd83c4e98","","7864","[""You sorted incorrectly by using the balance 10 times. <br><br> <img src='G_2.jpg' height='90'><img src='G_5.jpg' height='90'><img src='G_3.jpg' height='90'><img src='G_4.jpg' height='90'><img src='G_1.jpg' height='90'><br><br> Your final order is 2,1,3,5,4<br><br><br>Omgne Sort in this game will allow you to sort correctly by using the balance 8 times. Press Enter to learn it!""]","enter","","",""
"","","","","","html-keyboard-response","26","196119","0.0-6.0","12","1","2025-02-02 02:58:54","bc01a2b6f61d06f6604adb8657495020","76.218.23.63","Mozilla/5.0 (Windows NT 10.0; Win64; x64; rv:134.0) Gecko/20100101 Firefox/134.0","","Firefox","134.0","Windows","10.0","https://app.prolific.com/","en-US,en;q=0.5","60fe08ddc8e72aef56771482","679edb085803f58d6bbd31ca","679edf585a3632dbd83c4e98","","5693","<p>Welcome to the learning phase! <br><br> You will learn by six examples. The following learning trials will not be used to calculate your performance. <br><br> Press Enter to continue.<p/>","enter","","",""
"","","","","","html-keyboard-response","27","199914","0.0-7.0","12","1","2025-02-02 02:58:54","bc01a2b6f61d06f6604adb8657495020","76.218.23.63","Mozilla/5.0 (Windows NT 10.0; Win64; x64; rv:134.0) Gecko/20100101 Firefox/134.0","","Firefox","134.0","Windows","10.0","https://app.prolific.com/","en-US,en;q=0.5","60fe08ddc8e72aef56771482","679edb085803f58d6bbd31ca","679edf585a3632dbd83c4e98","","3793","[""Example 1<br><br>You will watch Omnge Sort in action. Try to identify any patterns in the comparisons made by this method. <br><br>Press Enter to continue.""]","enter","","",""
"","","","","","html-keyboard-response","28","200420","0.0-8.0","12","1","2025-02-02 02:58:54","bc01a2b6f61d06f6604adb8657495020","76.218.23.63","Mozilla/5.0 (Windows NT 10.0; Win64; x64; rv:134.0) Gecko/20100101 Firefox/134.0","","Firefox","134.0","Windows","10.0","https://app.prolific.com/","en-US,en;q=0.5","60fe08ddc8e72aef56771482","679edb085803f58d6bbd31ca","679edf585a3632dbd83c4e98","","null","<img id='selected' src='G_7.jpg' height='90'> <img src='G_1.jpg' height='90'> <img src='G_9.jpg' height='90'> <img src='G_5.jpg' height='90'> <img src='G_3.jpg' height='90'>","null","Animation0","",""
"","","","","","html-keyboard-response","29","200929","0.0-9.0","12","1","2025-02-02 02:58:54","bc01a2b6f61d06f6604adb8657495020","76.218.23.63","Mozilla/5.0 (Windows NT 10.0; Win64; x64; rv:134.0) Gecko/20100101 Firefox/134.0","","Firefox","134.0","Windows","10.0","https://app.prolific.com/","en-US,en;q=0.5","60fe08ddc8e72aef56771482","679edb085803f58d6bbd31ca","679edf585a3632dbd83c4e98","","null","<img id='selected' src='G_7.jpg' height='90'> <img id='selected' src='G_1.jpg' height='90'> <img src='G_9.jpg' height='90'> <img src='G_5.jpg' height='90'> <img src='G_3.jpg' height='90'>","null","Animation0","",""
"","","","","","html-keyboard-response","30","201437","0.0-10.0","12","1","2025-02-02 02:58:54","bc01a2b6f61d06f6604adb8657495020","76.218.23.63","Mozilla/5.0 (Windows NT 10.0; Win64; x64; rv:134.0) Gecko/20100101 Firefox/134.0","","Firefox","134.0","Windows","10.0","https://app.prolific.com/","en-US,en;q=0.5","60fe08ddc8e72aef56771482","679edb085803f58d6bbd31ca","679edf585a3632dbd83c4e98","","null","<img id='swapped' src='G_1.jpg' height='90'> <img id='swapped' src='G_7.jpg' height='90'> <img src='G_9.jpg' height='90'> <img src='G_5.jpg' height='90'> <img src='G_3.jpg' height='90'>","null","Animation0","",""
"","","","","","html-keyboard-response","31","201743","0.0-11.0","12","1","2025-02-02 02:58:54","bc01a2b6f61d06f6604adb8657495020","76.218.23.63","Mozilla/5.0 (Windows NT 10.0; Win64; x64; rv:134.0) Gecko/20100101 Firefox/134.0","","Firefox","134.0","Windows","10.0","https://app.prolific.com/","en-US,en;q=0.5","60fe08ddc8e72aef56771482","679edb085803f58d6bbd31ca","679edf585a3632dbd83c4e98","","null","<img  src='G_1.jpg' height='90'> <img  src='G_7.jpg' height='90'> <img src='G_9.jpg' height='90'> <img src='G_5.jpg' height='90'> <img src='G_3.jpg' height='90'>","null","Animation0","",""
"","","","","","html-keyboard-response","32","202248","0.0-12.0","12","1","2025-02-02 02:58:54","bc01a2b6f61d06f6604adb8657495020","76.218.23.63","Mozilla/5.0 (Windows NT 10.0; Win64; x64; rv:134.0) Gecko/20100101 Firefox/134.0","","Firefox","134.0","Windows","10.0","https://app.prolific.com/","en-US,en;q=0.5","60fe08ddc8e72aef56771482","679edb085803f58d6bbd31ca","679edf585a3632dbd83c4e98","","null","<img  src='G_1.jpg' height='90'> <img id='selected'  src='G_7.jpg' height='90'> <img src='G_9.jpg' height='90'> <img src='G_5.jpg' height='90'> <img src='G_3.jpg' height='90'>","null","Animation0","",""
"","","","","","html-keyboard-response","33","202762","0.0-13.0","12","1","2025-02-02 02:58:54","bc01a2b6f61d06f6604adb8657495020","76.218.23.63","Mozilla/5.0 (Windows NT 10.0; Win64; x64; rv:134.0) Gecko/20100101 Firefox/134.0","","Firefox","134.0","Windows","10.0","https://app.prolific.com/","en-US,en;q=0.5","60fe08ddc8e72aef56771482","679edb085803f58d6bbd31ca","679edf585a3632dbd83c4e98","","null","<img  src='G_1.jpg' height='90'> <img id='selected'  src='G_7.jpg' height='90'> <img id='selected' src='G_9.jpg' height='90'> <img src='G_5.jpg' height='90'> <img src='G_3.jpg' height='90'>","null","Animation0","",""
"","","","","","html-keyboard-response","34","203277","0.0-14.0","12","1","2025-02-02 02:58:54","bc01a2b6f61d06f6604adb8657495020","76.218.23.63","Mozilla/5.0 (Windows NT 10.0; Win64; x64; rv:134.0) Gecko/20100101 Firefox/134.0","","Firefox","134.0","Windows","10.0","https://app.prolific.com/","en-US,en;q=0.5","60fe08ddc8e72aef56771482","679edb085803f58d6bbd31ca","679edf585a3632dbd83c4e98","","null","<img  src='G_1.jpg' height='90'> <img id='selected'  src='G_7.jpg' height='90'> <img id='selected' src='G_9.jpg' height='90'> <img src='G_5.jpg' height='90'> <img src='G_3.jpg' height='90'>","null","Animation0","",""
"","","","","","html-keyboard-response","35","203592","0.0-15.0","12","1","2025-02-02 02:58:54","bc01a2b6f61d06f6604adb8657495020","76.218.23.63","Mozilla/5.0 (Windows NT 10.0; Win64; x64; rv:134.0) Gecko/20100101 Firefox/134.0","","Firefox","134.0","Windows","10.0","https://app.prolific.com/","en-US,en;q=0.5","60fe08ddc8e72aef56771482","679edb085803f58d6bbd31ca","679edf585a3632dbd83c4e98","","null","<img  src='G_1.jpg' height='90'> <img   src='G_7.jpg' height='90'> <img  src='G_9.jpg' height='90'> <img src='G_5.jpg' height='90'> <img src='G_3.jpg' height='90'>","null","Animation0","",""
"","","","","","html-keyboard-response","36","204106","0.0-16.0","12","1","2025-02-02 02:58:54","bc01a2b6f61d06f6604adb8657495020","76.218.23.63","Mozilla/5.0 (Windows NT 10.0; Win64; x64; rv:134.0) Gecko/20100101 Firefox/134.0","","Firefox","134.0","Windows","10.0","https://app.prolific.com/","en-US,en;q=0.5","60fe08ddc8e72aef56771482","679edb085803f58d6bbd31ca","679edf585a3632dbd83c4e98","","null","<img  src='G_1.jpg' height='90'> <img   src='G_7.jpg' height='90'> <img id='selected'  src='G_9.jpg' height='90'> <img src='G_5.jpg' height='90'> <img src='G_3.jpg' height='90'>","null","Animation0","",""
"","","","","","html-keyboard-response","37","204612","0.0-17.0","12","1","2025-02-02 02:58:54","bc01a2b6f61d06f6604adb8657495020","76.218.23.63","Mozilla/5.0 (Windows NT 10.0; Win64; x64; rv:134.0) Gecko/20100101 Firefox/134.0","","Firefox","134.0","Windows","10.0","https://app.prolific.com/","en-US,en;q=0.5","60fe08ddc8e72aef56771482","679edb085803f58d6bbd31ca","679edf585a3632dbd83c4e98","","null","<img  src='G_1.jpg' height='90'> <img   src='G_7.jpg' height='90'> <img id='selected'  src='G_9.jpg' height='90'> <img id='selected' src='G_5.jpg' height='90'> <img src='G_3.jpg' height='90'>","null","Animation0","",""
"","","","","","html-keyboard-response","38","205121","0.0-18.0","12","1","2025-02-02 02:58:54","bc01a2b6f61d06f6604adb8657495020","76.218.23.63","Mozilla/5.0 (Windows NT 10.0; Win64; x64; rv:134.0) Gecko/20100101 Firefox/134.0","","Firefox","134.0","Windows","10.0","https://app.prolific.com/","en-US,en;q=0.5","60fe08ddc8e72aef56771482","679edb085803f58d6bbd31ca","679edf585a3632dbd83c4e98","","null","<img  src='G_1.jpg' height='90'> <img   src='G_7.jpg' height='90'> <img id='selected'  src='G_9.jpg' height='90'> <img id='selected' src='G_5.jpg' height='90'> <img src='G_3.jpg' height='90'>","null","Animation0","",""
"","","","","","html-keyboard-response","39","205423","0.0-19.0","12","1","2025-02-02 02:58:54","bc01a2b6f61d06f6604adb8657495020","76.218.23.63","Mozilla/5.0 (Windows NT 10.0; Win64; x64; rv:134.0) Gecko/20100101 Firefox/134.0","","Firefox","134.0","Windows","10.0","https://app.prolific.com/","en-US,en;q=0.5","60fe08ddc8e72aef56771482","679edb085803f58d6bbd31ca","679edf585a3632dbd83c4e98","","null","<img  src='G_1.jpg' height='90'> <img   src='G_7.jpg' height='90'> <img   src='G_9.jpg' height='90'> <img  src='G_5.jpg' height='90'> <img src='G_3.jpg' height='90'>","null","Animation0","",""
"","","","","","html-keyboard-response","40","205933","0.0-20.0","12","1","2025-02-02 02:58:54","bc01a2b6f61d06f6604adb8657495020","76.218.23.63","Mozilla/5.0 (Windows NT 10.0; Win64; x64; rv:134.0) Gecko/20100101 Firefox/134.0","","Firefox","134.0","Windows","10.0","https://app.prolific.com/","en-US,en;q=0.5","60fe08ddc8e72aef56771482","679edb085803f58d6bbd31ca","679edf585a3632dbd83c4e98","","null","<img  src='G_1.jpg' height='90'> <img   src='G_7.jpg' height='90'> <img   src='G_9.jpg' height='90'> <img id='selected'  src='G_5.jpg' height='90'> <img src='G_3.jpg' height='90'>","null","Animation0","",""
"","","","","","html-keyboard-response","41","206443","0.0-21.0","12","1","2025-02-02 02:58:54","bc01a2b6f61d06f6604adb8657495020","76.218.23.63","Mozilla/5.0 (Windows NT 10.0; Win64; x64; rv:134.0) Gecko/20100101 Firefox/134.0","","Firefox","134.0","Windows","10.0","https://app.prolific.com/","en-US,en;q=0.5","60fe08ddc8e72aef56771482","679edb085803f58d6bbd31ca","679edf585a3632dbd83c4e98","","null","<img  src='G_1.jpg' height='90'> <img   src='G_7.jpg' height='90'> <img   src='G_9.jpg' height='90'> <img id='selected'  src='G_5.jpg' height='90'> <img id='selected' src='G_3.jpg' height='90'>","null","Animation0","",""
"","","","","","html-keyboard-response","42","206952","0.0-22.0","12","1","2025-02-02 02:58:54","bc01a2b6f61d06f6604adb8657495020","76.218.23.63","Mozilla/5.0 (Windows NT 10.0; Win64; x64; rv:134.0) Gecko/20100101 Firefox/134.0","","Firefox","134.0","Windows","10.0","https://app.prolific.com/","en-US,en;q=0.5","60fe08ddc8e72aef56771482","679edb085803f58d6bbd31ca","679edf585a3632dbd83c4e98","","null","<img  src='G_1.jpg' height='90'> <img   src='G_7.jpg' height='90'> <img   src='G_9.jpg' height='90'> <img id='selected'  src='G_5.jpg' height='90'> <img id='selected' src='G_3.jpg' height='90'>","null","Animation0","",""
"","","","","","html-keyboard-response","43","207267","0.0-23.0","12","1","2025-02-02 02:58:54","bc01a2b6f61d06f6604adb8657495020","76.218.23.63","Mozilla/5.0 (Windows NT 10.0; Win64; x64; rv:134.0) Gecko/20100101 Firefox/134.0","","Firefox","134.0","Windows","10.0","https://app.prolific.com/","en-US,en;q=0.5","60fe08ddc8e72aef56771482","679edb085803f58d6bbd31ca","679edf585a3632dbd83c4e98","","null","<img  src='G_1.jpg' height='90'> <img   src='G_7.jpg' height='90'> <img   src='G_9.jpg' height='90'> <img   src='G_5.jpg' height='90'> <img  src='G_3.jpg' height='90'>","null","Animation0","",""
"","","","","","html-keyboard-response","44","210939","0.0-24.0","12","1","2025-02-02 02:58:54","bc01a2b6f61d06f6604adb8657495020","76.218.23.63","Mozilla/5.0 (Windows NT 10.0; Win64; x64; rv:134.0) Gecko/20100101 Firefox/134.0","","Firefox","134.0","Windows","10.0","https://app.prolific.com/","en-US,en;q=0.5","60fe08ddc8e72aef56771482","679edb085803f58d6bbd31ca","679edf585a3632dbd83c4e98","","3670","[""Did you notice any patterns? <br><br>Press Enter to watch that example again and follow the steps of Omgne Sort.""]","enter","","",""
"","","","","","html-button-response","45","211357","0.0-25.0","12","1","2025-02-02 02:58:54","bc01a2b6f61d06f6604adb8657495020","76.218.23.63","Mozilla/5.0 (Windows NT 10.0; Win64; x64; rv:134.0) Gecko/20100101 Firefox/134.0","","Firefox","134.0","Windows","10.0","https://app.prolific.com/","en-US,en;q=0.5","60fe08ddc8e72aef56771482","679edb085803f58d6bbd31ca","679edf585a3632dbd83c4e98","","null","<img id='selected' src='G_7.jpg' height='90'> <img src='G_1.jpg' height='90'> <img src='G_9.jpg' height='90'> <img src='G_5.jpg' height='90'> <img src='G_3.jpg' height='90'>","null","Learning example 0","",""
"","","","","","html-button-response","46","211667","0.0-26.0","12","1","2025-02-02 02:58:54","bc01a2b6f61d06f6604adb8657495020","76.218.23.63","Mozilla/5.0 (Windows NT 10.0; Win64; x64; rv:134.0) Gecko/20100101 Firefox/134.0","","Firefox","134.0","Windows","10.0","https://app.prolific.com/","en-US,en;q=0.5","60fe08ddc8e72aef56771482","679edb085803f58d6bbd31ca","679edf585a3632dbd83c4e98","","null","<img id='selected' src='G_7.jpg' height='90'> <img id='selected' src='G_1.jpg' height='90'> <img src='G_9.jpg' height='90'> <img src='G_5.jpg' height='90'> <img src='G_3.jpg' height='90'>","null","Learning example 0","",""
"","","","","","html-button-response","47","211982","0.0-27.0","12","1","2025-02-02 02:58:54","bc01a2b6f61d06f6604adb8657495020","76.218.23.63","Mozilla/5.0 (Windows NT 10.0; Win64; x64; rv:134.0) Gecko/20100101 Firefox/134.0","","Firefox","134.0","Windows","10.0","https://app.prolific.com/","en-US,en;q=0.5","60fe08ddc8e72aef56771482","679edb085803f58d6bbd31ca","679edf585a3632dbd83c4e98","","null","<img id='swapped' src='G_1.jpg' height='90'> <img id='swapped' src='G_7.jpg' height='90'> <img src='G_9.jpg' height='90'> <img src='G_5.jpg' height='90'> <img src='G_3.jpg' height='90'>","null","Learning example 0","",""
"","","","","","html-button-response","48","221788","0.0-28.0-0.0-0.0","12","1","2025-02-02 02:58:54","bc01a2b6f61d06f6604adb8657495020","76.218.23.63","Mozilla/5.0 (Windows NT 10.0; Win64; x64; rv:134.0) Gecko/20100101 Firefox/134.0","","Firefox","134.0","Windows","10.0","https://app.prolific.com/","en-US,en;q=0.5","60fe08ddc8e72aef56771482","679edb085803f58d6bbd31ca","679edf585a3632dbd83c4e98","","9802","<img id='swapped' src='G_1.jpg' height='90'> <img id='swapped' src='G_7.jpg' height='90'> <img src='G_9.jpg' height='90'> <img src='G_5.jpg' height='90'> <img src='G_3.jpg' height='90'>","0","Learning example 0","",""
"","","","","","html-button-response","49","222254","0.0-28.1-0.1-0.1","12","1","2025-02-02 02:58:54","bc01a2b6f61d06f6604adb8657495020","76.218.23.63","Mozilla/5.0 (Windows NT 10.0; Win64; x64; rv:134.0) Gecko/20100101 Firefox/134.0","","Firefox","134.0","Windows","10.0","https://app.prolific.com/","en-US,en;q=0.5","60fe08ddc8e72aef56771482","679edb085803f58d6bbd31ca","679edf585a3632dbd83c4e98","","464","<img id='swapped' src='G_1.jpg' height='90'> <img id='swapped' src='G_7.jpg' height='90'> <img src='G_9.jpg' height='90'> <img src='G_5.jpg' height='90'> <img src='G_3.jpg' height='90'>","1","Learning example 0","",""
"","","","","","html-button-response","50","222471","0.0-29.0","12","1","2025-02-02 02:58:54","bc01a2b6f61d06f6604adb8657495020","76.218.23.63","Mozilla/5.0 (Windows NT 10.0; Win64; x64; rv:134.0) Gecko/20100101 Firefox/134.0","","Firefox","134.0","Windows","10.0","https://app.prolific.com/","en-US,en;q=0.5","60fe08ddc8e72aef56771482","679edb085803f58d6bbd31ca","679edf585a3632dbd83c4e98","","null","<img  src='G_1.jpg' height='90'> <img  src='G_7.jpg' height='90'> <img src='G_9.jpg' height='90'> <img src='G_5.jpg' height='90'> <img src='G_3.jpg' height='90'>","null","Learning example 0","",""
"","","","","","html-button-response","51","222876","0.0-30.0","12","1","2025-02-02 02:58:54","bc01a2b6f61d06f6604adb8657495020","76.218.23.63","Mozilla/5.0 (Windows NT 10.0; Win64; x64; rv:134.0) Gecko/20100101 Firefox/134.0","","Firefox","134.0","Windows","10.0","https://app.prolific.com/","en-US,en;q=0.5","60fe08ddc8e72aef56771482","679edb085803f58d6bbd31ca","679edf585a3632dbd83c4e98","","null","<img  src='G_1.jpg' height='90'> <img id='selected'  src='G_7.jpg' height='90'> <img src='G_9.jpg' height='90'> <img src='G_5.jpg' height='90'> <img src='G_3.jpg' height='90'>","null","Learning example 0","",""
"","","","","","html-button-response","52","223196","0.0-31.0","12","1","2025-02-02 02:58:54","bc01a2b6f61d06f6604adb8657495020","76.218.23.63","Mozilla/5.0 (Windows NT 10.0; Win64; x64; rv:134.0) Gecko/20100101 Firefox/134.0","","Firefox","134.0","Windows","10.0","https://app.prolific.com/","en-US,en;q=0.5","60fe08ddc8e72aef56771482","679edb085803f58d6bbd31ca","679edf585a3632dbd83c4e98","","null","<img  src='G_1.jpg' height='90'> <img id='selected'  src='G_7.jpg' height='90'> <img id='selected' src='G_9.jpg' height='90'> <img src='G_5.jpg' height='90'> <img src='G_3.jpg' height='90'>","null","Learning example 0","",""
"","","","","","html-button-response","53","223511","0.0-32.0","12","1","2025-02-02 02:58:54","bc01a2b6f61d06f6604adb8657495020","76.218.23.63","Mozilla/5.0 (Windows NT 10.0; Win64; x64; rv:134.0) Gecko/20100101 Firefox/134.0","","Firefox","134.0","Windows","10.0","https://app.prolific.com/","en-US,en;q=0.5","60fe08ddc8e72aef56771482","679edb085803f58d6bbd31ca","679edf585a3632dbd83c4e98","","null","<img  src='G_1.jpg' height='90'> <img id='selected'  src='G_7.jpg' height='90'> <img id='selected' src='G_9.jpg' height='90'> <img src='G_5.jpg' height='90'> <img src='G_3.jpg' height='90'>","null","Learning example 0","",""
"","","","","","html-button-response","54","224154","0.0-33.0-0.0-0.0","12","1","2025-02-02 02:58:54","bc01a2b6f61d06f6604adb8657495020","76.218.23.63","Mozilla/5.0 (Windows NT 10.0; Win64; x64; rv:134.0) Gecko/20100101 Firefox/134.0","","Firefox","134.0","Windows","10.0","https://app.prolific.com/","en-US,en;q=0.5","60fe08ddc8e72aef56771482","679edb085803f58d6bbd31ca","679edf585a3632dbd83c4e98","","640","<img  src='G_1.jpg' height='90'> <img id='selected'  src='G_7.jpg' height='90'> <img id='selected' src='G_9.jpg' height='90'> <img src='G_5.jpg' height='90'> <img src='G_3.jpg' height='90'>","1","Learning example 0","",""
"","","","","","html-button-response","55","224677","0.0-33.1-0.1-0.1","12","1","2025-02-02 02:58:54","bc01a2b6f61d06f6604adb8657495020","76.218.23.63","Mozilla/5.0 (Windows NT 10.0; Win64; x64; rv:134.0) Gecko/20100101 Firefox/134.0","","Firefox","134.0","Windows","10.0","https://app.prolific.com/","en-US,en;q=0.5","60fe08ddc8e72aef56771482","679edb085803f58d6bbd31ca","679edf585a3632dbd83c4e98","","520","<img  src='G_1.jpg' height='90'> <img id='selected'  src='G_7.jpg' height='90'> <img id='selected' src='G_9.jpg' height='90'> <img src='G_5.jpg' height='90'> <img src='G_3.jpg' height='90'>","2","Learning example 0","",""
"","","","","","html-button-response","56","224890","0.0-34.0","12","1","2025-02-02 02:58:54","bc01a2b6f61d06f6604adb8657495020","76.218.23.63","Mozilla/5.0 (Windows NT 10.0; Win64; x64; rv:134.0) Gecko/20100101 Firefox/134.0","","Firefox","134.0","Windows","10.0","https://app.prolific.com/","en-US,en;q=0.5","60fe08ddc8e72aef56771482","679edb085803f58d6bbd31ca","679edf585a3632dbd83c4e98","","null","<img  src='G_1.jpg' height='90'> <img   src='G_7.jpg' height='90'> <img  src='G_9.jpg' height='90'> <img src='G_5.jpg' height='90'> <img src='G_3.jpg' height='90'>","null","Learning example 0","",""
"","","","","","html-button-response","57","225295","0.0-35.0","12","1","2025-02-02 02:58:54","bc01a2b6f61d06f6604adb8657495020","76.218.23.63","Mozilla/5.0 (Windows NT 10.0; Win64; x64; rv:134.0) Gecko/20100101 Firefox/134.0","","Firefox","134.0","Windows","10.0","https://app.prolific.com/","en-US,en;q=0.5","60fe08ddc8e72aef56771482","679edb085803f58d6bbd31ca","679edf585a3632dbd83c4e98","","null","<img  src='G_1.jpg' height='90'> <img   src='G_7.jpg' height='90'> <img id='selected'  src='G_9.jpg' height='90'> <img src='G_5.jpg' height='90'> <img src='G_3.jpg' height='90'>","null","Learning example 0","",""
"","","","","","html-button-response","58","225611","0.0-36.0","12","1","2025-02-02 02:58:54","bc01a2b6f61d06f6604adb8657495020","76.218.23.63","Mozilla/5.0 (Windows NT 10.0; Win64; x64; rv:134.0) Gecko/20100101 Firefox/134.0","","Firefox","134.0","Windows","10.0","https://app.prolific.com/","en-US,en;q=0.5","60fe08ddc8e72aef56771482","679edb085803f58d6bbd31ca","679edf585a3632dbd83c4e98","","null","<img  src='G_1.jpg' height='90'> <img   src='G_7.jpg' height='90'> <img id='selected'  src='G_9.jpg' height='90'> <img id='selected' src='G_5.jpg' height='90'> <img src='G_3.jpg' height='90'>","null","Learning example 0","",""
"","","","","","html-button-response","59","225896","0.0-37.0","12","1","2025-02-02 02:58:54","bc01a2b6f61d06f6604adb8657495020","76.218.23.63","Mozilla/5.0 (Windows NT 10.0; Win64; x64; rv:134.0) Gecko/20100101 Firefox/134.0","","Firefox","134.0","Windows","10.0","https://app.prolific.com/","en-US,en;q=0.5","60fe08ddc8e72aef56771482","679edb085803f58d6bbd31ca","679edf585a3632dbd83c4e98","","283","<img  src='G_1.jpg' height='90'> <img   src='G_7.jpg' height='90'> <img id='selected'  src='G_9.jpg' height='90'> <img id='selected' src='G_5.jpg' height='90'> <img src='G_3.jpg' height='90'>","2","Learning example 0","",""
"","","","","","html-button-response","60","226611","0.0-38.0-0.0-0.0","12","1","2025-02-02 02:58:54","bc01a2b6f61d06f6604adb8657495020","76.218.23.63","Mozilla/5.0 (Windows NT 10.0; Win64; x64; rv:134.0) Gecko/20100101 Firefox/134.0","","Firefox","134.0","Windows","10.0","https://app.prolific.com/","en-US,en;q=0.5","60fe08ddc8e72aef56771482","679edb085803f58d6bbd31ca","679edf585a3632dbd83c4e98","","711","<img  src='G_1.jpg' height='90'> <img   src='G_7.jpg' height='90'> <img id='selected'  src='G_9.jpg' height='90'> <img id='selected' src='G_5.jpg' height='90'> <img src='G_3.jpg' height='90'>","3","Learning example 0","",""
"","","","","","html-button-response","61","226815","0.0-39.0","12","1","2025-02-02 02:58:54","bc01a2b6f61d06f6604adb8657495020","76.218.23.63","Mozilla/5.0 (Windows NT 10.0; Win64; x64; rv:134.0) Gecko/20100101 Firefox/134.0","","Firefox","134.0","Windows","10.0","https://app.prolific.com/","en-US,en;q=0.5","60fe08ddc8e72aef56771482","679edb085803f58d6bbd31ca","679edf585a3632dbd83c4e98","","null","<img  src='G_1.jpg' height='90'> <img   src='G_7.jpg' height='90'> <img   src='G_9.jpg' height='90'> <img  src='G_5.jpg' height='90'> <img src='G_3.jpg' height='90'>","null","Learning example 0","",""
"","","","","","html-button-response","62","227219","0.0-40.0","12","1","2025-02-02 02:58:54","bc01a2b6f61d06f6604adb8657495020","76.218.23.63","Mozilla/5.0 (Windows NT 10.0; Win64; x64; rv:134.0) Gecko/20100101 Firefox/134.0","","Firefox","134.0","Windows","10.0","https://app.prolific.com/","en-US,en;q=0.5","60fe08ddc8e72aef56771482","679edb085803f58d6bbd31ca","679edf585a3632dbd83c4e98","","null","<img  src='G_1.jpg' height='90'> <img   src='G_7.jpg' height='90'> <img   src='G_9.jpg' height='90'> <img id='selected'  src='G_5.jpg' height='90'> <img src='G_3.jpg' height='90'>","null","Learning example 0","",""
"","","","","","html-button-response","63","227534","0.0-41.0","12","1","2025-02-02 02:58:54","bc01a2b6f61d06f6604adb8657495020","76.218.23.63","Mozilla/5.0 (Windows NT 10.0; Win64; x64; rv:134.0) Gecko/20100101 Firefox/134.0","","Firefox","134.0","Windows","10.0","https://app.prolific.com/","en-US,en;q=0.5","60fe08ddc8e72aef56771482","679edb085803f58d6bbd31ca","679edf585a3632dbd83c4e98","","null","<img  src='G_1.jpg' height='90'> <img   src='G_7.jpg' height='90'> <img   src='G_9.jpg' height='90'> <img id='selected'  src='G_5.jpg' height='90'> <img id='selected' src='G_3.jpg' height='90'>","null","Learning example 0","",""
"","","","","","html-button-response","64","227849","0.0-42.0","12","1","2025-02-02 02:58:54","bc01a2b6f61d06f6604adb8657495020","76.218.23.63","Mozilla/5.0 (Windows NT 10.0; Win64; x64; rv:134.0) Gecko/20100101 Firefox/134.0","","Firefox","134.0","Windows","10.0","https://app.prolific.com/","en-US,en;q=0.5","60fe08ddc8e72aef56771482","679edb085803f58d6bbd31ca","679edf585a3632dbd83c4e98","","null","<img  src='G_1.jpg' height='90'> <img   src='G_7.jpg' height='90'> <img   src='G_9.jpg' height='90'> <img id='selected'  src='G_5.jpg' height='90'> <img id='selected' src='G_3.jpg' height='90'>","null","Learning example 0","",""
"","","","","","html-button-response","65","228432","0.0-43.0-0.0-0.0","12","1","2025-02-02 02:58:54","bc01a2b6f61d06f6604adb8657495020","76.218.23.63","Mozilla/5.0 (Windows NT 10.0; Win64; x64; rv:134.0) Gecko/20100101 Firefox/134.0","","Firefox","134.0","Windows","10.0","https://app.prolific.com/","en-US,en;q=0.5","60fe08ddc8e72aef56771482","679edb085803f58d6bbd31ca","679edf585a3632dbd83c4e98","","579","<img  src='G_1.jpg' height='90'> <img   src='G_7.jpg' height='90'> <img   src='G_9.jpg' height='90'> <img id='selected'  src='G_5.jpg' height='90'> <img id='selected' src='G_3.jpg' height='90'>","4","Learning example 0","",""
"","","","","","html-button-response","66","231130","0.0-43.1-0.1-0.1","12","1","2025-02-02 02:58:54","bc01a2b6f61d06f6604adb8657495020","76.218.23.63","Mozilla/5.0 (Windows NT 10.0; Win64; x64; rv:134.0) Gecko/20100101 Firefox/134.0","","Firefox","134.0","Windows","10.0","https://app.prolific.com/","en-US,en;q=0.5","60fe08ddc8e72aef56771482","679edb085803f58d6bbd31ca","679edf585a3632dbd83c4e98","","2695","<img  src='G_1.jpg' height='90'> <img   src='G_7.jpg' height='90'> <img   src='G_9.jpg' height='90'> <img id='selected'  src='G_5.jpg' height='90'> <img id='selected' src='G_3.jpg' height='90'>","3","Learning example 0","",""
"","","","","","html-button-response","67","231341","0.0-44.0","12","1","2025-02-02 02:58:54","bc01a2b6f61d06f6604adb8657495020","76.218.23.63","Mozilla/5.0 (Windows NT 10.0; Win64; x64; rv:134.0) Gecko/20100101 Firefox/134.0","","Firefox","134.0","Windows","10.0","https://app.prolific.com/","en-US,en;q=0.5","60fe08ddc8e72aef56771482","679edb085803f58d6bbd31ca","679edf585a3632dbd83c4e98","","null","<img  src='G_1.jpg' height='90'> <img   src='G_7.jpg' height='90'> <img   src='G_9.jpg' height='90'> <img   src='G_5.jpg' height='90'> <img  src='G_3.jpg' height='90'>","null","Learning example 0","",""
"","","","","","html-keyboard-response","68","237461","0.0-45.0","12","1","2025-02-02 02:58:54","bc01a2b6f61d06f6604adb8657495020","76.218.23.63","Mozilla/5.0 (Windows NT 10.0; Win64; x64; rv:134.0) Gecko/20100101 Firefox/134.0","","Firefox","134.0","Windows","10.0","https://app.prolific.com/","en-US,en;q=0.5","60fe08ddc8e72aef56771482","679edb085803f58d6bbd31ca","679edf585a3632dbd83c4e98","","6116","[""Final order was 1,2,3,4,5. The initial order was 2,1,3,4,5.<br>It took 1 swaps to sort it correctly with Omgne Sort. <br><br>Press Enter to continue.""]","enter","","",""
"","","","","","html-keyboard-response","69","243130","0.0-46.0","12","1","2025-02-02 02:58:54","bc01a2b6f61d06f6604adb8657495020","76.218.23.63","Mozilla/5.0 (Windows NT 10.0; Win64; x64; rv:134.0) Gecko/20100101 Firefox/134.0","","Firefox","134.0","Windows","10.0","https://app.prolific.com/","en-US,en;q=0.5","60fe08ddc8e72aef56771482","679edb085803f58d6bbd31ca","679edf585a3632dbd83c4e98","","5668","[""Example 2<br><br>You will watch Omnge Sort in action. Try to identify any patterns in the comparisons made by this method. <br><br>Press Enter to continue.""]","enter","","",""
"","","","","","html-keyboard-response","70","243640","0.0-47.0","12","1","2025-02-02 02:58:54","bc01a2b6f61d06f6604adb8657495020","76.218.23.63","Mozilla/5.0 (Windows NT 10.0; Win64; x64; rv:134.0) Gecko/20100101 Firefox/134.0","","Firefox","134.0","Windows","10.0","https://app.prolific.com/","en-US,en;q=0.5","60fe08ddc8e72aef56771482","679edb085803f58d6bbd31ca","679edf585a3632dbd83c4e98","","null","<img id='selected' src='G_2.jpg' height='90'> <img src='G_3.jpg' height='90'> <img src='G_5.jpg' height='90'> <img src='G_6.jpg' height='90'> <img src='G_8.jpg' height='90'> <img src='G_7.jpg' height='90'> <img src='G_1.jpg' height='90'> <img src='G_4.jpg' height='90'>","null","Animation1","",""
"","","","","","html-keyboard-response","71","244155","0.0-48.0","12","1","2025-02-02 02:58:54","bc01a2b6f61d06f6604adb8657495020","76.218.23.63","Mozilla/5.0 (Windows NT 10.0; Win64; x64; rv:134.0) Gecko/20100101 Firefox/134.0","","Firefox","134.0","Windows","10.0","https://app.prolific.com/","en-US,en;q=0.5","60fe08ddc8e72aef56771482","679edb085803f58d6bbd31ca","679edf585a3632dbd83c4e98","","null","<img id='selected' src='G_2.jpg' height='90'> <img id='selected' src='G_3.jpg' height='90'> <img src='G_5.jpg' height='90'> <img src='G_6.jpg' height='90'> <img src='G_8.jpg' height='90'> <img src='G_7.jpg' height='90'> <img src='G_1.jpg' height='90'> <img src='G_4.jpg' height='90'>","null","Animation1","",""
"","","","","","html-keyboard-response","72","244664","0.0-49.0","12","1","2025-02-02 02:58:54","bc01a2b6f61d06f6604adb8657495020","76.218.23.63","Mozilla/5.0 (Windows NT 10.0; Win64; x64; rv:134.0) Gecko/20100101 Firefox/134.0","","Firefox","134.0","Windows","10.0","https://app.prolific.com/","en-US,en;q=0.5","60fe08ddc8e72aef56771482","679edb085803f58d6bbd31ca","679edf585a3632dbd83c4e98","","null","<img id='selected' src='G_2.jpg' height='90'> <img id='selected' src='G_3.jpg' height='90'> <img src='G_5.jpg' height='90'> <img src='G_6.jpg' height='90'> <img src='G_8.jpg' height='90'> <img src='G_7.jpg' height='90'> <img src='G_1.jpg' height='90'> <img src='G_4.jpg' height='90'>","null","Animation1","",""
"","","","","","html-keyboard-response","73","244979","0.0-50.0","12","1","2025-02-02 02:58:54","bc01a2b6f61d06f6604adb8657495020","76.218.23.63","Mozilla/5.0 (Windows NT 10.0; Win64; x64; rv:134.0) Gecko/20100101 Firefox/134.0","","Firefox","134.0","Windows","10.0","https://app.prolific.com/","en-US,en;q=0.5","60fe08ddc8e72aef56771482","679edb085803f58d6bbd31ca","679edf585a3632dbd83c4e98","","null","<img  src='G_2.jpg' height='90'> <img  src='G_3.jpg' height='90'> <img src='G_5.jpg' height='90'> <img src='G_6.jpg' height='90'> <img src='G_8.jpg' height='90'> <img src='G_7.jpg' height='90'> <img src='G_1.jpg' height='90'> <img src='G_4.jpg' height='90'>","null","Animation1","",""
"","","","","","html-keyboard-response","74","245489","0.0-51.0","12","1","2025-02-02 02:58:54","bc01a2b6f61d06f6604adb8657495020","76.218.23.63","Mozilla/5.0 (Windows NT 10.0; Win64; x64; rv:134.0) Gecko/20100101 Firefox/134.0","","Firefox","134.0","Windows","10.0","https://app.prolific.com/","en-US,en;q=0.5","60fe08ddc8e72aef56771482","679edb085803f58d6bbd31ca","679edf585a3632dbd83c4e98","","null","<img  src='G_2.jpg' height='90'> <img id='selected'  src='G_3.jpg' height='90'> <img src='G_5.jpg' height='90'> <img src='G_6.jpg' height='90'> <img src='G_8.jpg' height='90'> <img src='G_7.jpg' height='90'> <img src='G_1.jpg' height='90'> <img src='G_4.jpg' height='90'>","null","Animation1","",""
"","","","","","html-keyboard-response","75","245998","0.0-52.0","12","1","2025-02-02 02:58:54","bc01a2b6f61d06f6604adb8657495020","76.218.23.63","Mozilla/5.0 (Windows NT 10.0; Win64; x64; rv:134.0) Gecko/20100101 Firefox/134.0","","Firefox","134.0","Windows","10.0","https://app.prolific.com/","en-US,en;q=0.5","60fe08ddc8e72aef56771482","679edb085803f58d6bbd31ca","679edf585a3632dbd83c4e98","","null","<img  src='G_2.jpg' height='90'> <img id='selected'  src='G_3.jpg' height='90'> <img id='selected' src='G_5.jpg' height='90'> <img src='G_6.jpg' height='90'> <img src='G_8.jpg' height='90'> <img src='G_7.jpg' height='90'> <img src='G_1.jpg' height='90'> <img src='G_4.jpg' height='90'>","null","Animation1","",""
"","","","","","html-keyboard-response","76","246508","0.0-53.0","12","1","2025-02-02 02:58:54","bc01a2b6f61d06f6604adb8657495020","76.218.23.63","Mozilla/5.0 (Windows NT 10.0; Win64; x64; rv:134.0) Gecko/20100101 Firefox/134.0","","Firefox","134.0","Windows","10.0","https://app.prolific.com/","en-US,en;q=0.5","60fe08ddc8e72aef56771482","679edb085803f58d6bbd31ca","679edf585a3632dbd83c4e98","","null","<img  src='G_2.jpg' height='90'> <img id='swapped' src='G_5.jpg' height='90'> <img id='swapped'  src='G_3.jpg' height='90'> <img src='G_6.jpg' height='90'> <img src='G_8.jpg' height='90'> <img src='G_7.jpg' height='90'> <img src='G_1.jpg' height='90'> <img src='G_4.jpg' height='90'>","null","Animation1","",""
"","","","","","html-keyboard-response","77","246823","0.0-54.0","12","1","2025-02-02 02:58:54","bc01a2b6f61d06f6604adb8657495020","76.218.23.63","Mozilla/5.0 (Windows NT 10.0; Win64; x64; rv:134.0) Gecko/20100101 Firefox/134.0","","Firefox","134.0","Windows","10.0","https://app.prolific.com/","en-US,en;q=0.5","60fe08ddc8e72aef56771482","679edb085803f58d6bbd31ca","679edf585a3632dbd83c4e98","","null","<img  src='G_2.jpg' height='90'> <img  src='G_5.jpg' height='90'> <img   src='G_3.jpg' height='90'> <img src='G_6.jpg' height='90'> <img src='G_8.jpg' height='90'> <img src='G_7.jpg' height='90'> <img src='G_1.jpg' height='90'> <img src='G_4.jpg' height='90'>","null","Animation1","",""
"","","","","","html-keyboard-response","78","247333","0.0-55.0","12","1","2025-02-02 02:58:54","bc01a2b6f61d06f6604adb8657495020","76.218.23.63","Mozilla/5.0 (Windows NT 10.0; Win64; x64; rv:134.0) Gecko/20100101 Firefox/134.0","","Firefox","134.0","Windows","10.0","https://app.prolific.com/","en-US,en;q=0.5","60fe08ddc8e72aef56771482","679edb085803f58d6bbd31ca","679edf585a3632dbd83c4e98","","null","<img id='selected'  src='G_2.jpg' height='90'> <img  src='G_5.jpg' height='90'> <img   src='G_3.jpg' height='90'> <img src='G_6.jpg' height='90'> <img src='G_8.jpg' height='90'> <img src='G_7.jpg' height='90'> <img src='G_1.jpg' height='90'> <img src='G_4.jpg' height='90'>","null","Animation1","",""
"","","","","","html-keyboard-response","79","247843","0.0-56.0","12","1","2025-02-02 02:58:54","bc01a2b6f61d06f6604adb8657495020","76.218.23.63","Mozilla/5.0 (Windows NT 10.0; Win64; x64; rv:134.0) Gecko/20100101 Firefox/134.0","","Firefox","134.0","Windows","10.0","https://app.prolific.com/","en-US,en;q=0.5","60fe08ddc8e72aef56771482","679edb085803f58d6bbd31ca","679edf585a3632dbd83c4e98","","null","<img id='selected'  src='G_2.jpg' height='90'> <img id='selected'  src='G_5.jpg' height='90'> <img   src='G_3.jpg' height='90'> <img src='G_6.jpg' height='90'> <img src='G_8.jpg' height='90'> <img src='G_7.jpg' height='90'> <img src='G_1.jpg' height='90'> <img src='G_4.jpg' height='90'>","null","Animation1","",""
"","","","","","html-keyboard-response","80","248359","0.0-57.0","12","1","2025-02-02 02:58:54","bc01a2b6f61d06f6604adb8657495020","76.218.23.63","Mozilla/5.0 (Windows NT 10.0; Win64; x64; rv:134.0) Gecko/20100101 Firefox/134.0","","Firefox","134.0","Windows","10.0","https://app.prolific.com/","en-US,en;q=0.5","60fe08ddc8e72aef56771482","679edb085803f58d6bbd31ca","679edf585a3632dbd83c4e98","","null","<img id='swapped'  src='G_5.jpg' height='90'> <img id='swapped'  src='G_2.jpg' height='90'> <img   src='G_3.jpg' height='90'> <img src='G_6.jpg' height='90'> <img src='G_8.jpg' height='90'> <img src='G_7.jpg' height='90'> <img src='G_1.jpg' height='90'> <img src='G_4.jpg' height='90'>","null","Animation1","",""
"","","","","","html-keyboard-response","81","248664","0.0-58.0","12","1","2025-02-02 02:58:54","bc01a2b6f61d06f6604adb8657495020","76.218.23.63","Mozilla/5.0 (Windows NT 10.0; Win64; x64; rv:134.0) Gecko/20100101 Firefox/134.0","","Firefox","134.0","Windows","10.0","https://app.prolific.com/","en-US,en;q=0.5","60fe08ddc8e72aef56771482","679edb085803f58d6bbd31ca","679edf585a3632dbd83c4e98","","null","<img   src='G_5.jpg' height='90'> <img   src='G_2.jpg' height='90'> <img   src='G_3.jpg' height='90'> <img src='G_6.jpg' height='90'> <img src='G_8.jpg' height='90'> <img src='G_7.jpg' height='90'> <img src='G_1.jpg' height='90'> <img src='G_4.jpg' height='90'>","null","Animation1","",""
"","","","","","html-keyboard-response","82","249174","0.0-59.0","12","1","2025-02-02 02:58:54","bc01a2b6f61d06f6604adb8657495020","76.218.23.63","Mozilla/5.0 (Windows NT 10.0; Win64; x64; rv:134.0) Gecko/20100101 Firefox/134.0","","Firefox","134.0","Windows","10.0","https://app.prolific.com/","en-US,en;q=0.5","60fe08ddc8e72aef56771482","679edb085803f58d6bbd31ca","679edf585a3632dbd83c4e98","","null","<img   src='G_5.jpg' height='90'> <img   src='G_2.jpg' height='90'> <img id='selected'   src='G_3.jpg' height='90'> <img src='G_6.jpg' height='90'> <img src='G_8.jpg' height='90'> <img src='G_7.jpg' height='90'> <img src='G_1.jpg' height='90'> <img src='G_4.jpg' height='90'>","null","Animation1","",""
"","","","","","html-keyboard-response","83","249678","0.0-60.0","12","1","2025-02-02 02:58:54","bc01a2b6f61d06f6604adb8657495020","76.218.23.63","Mozilla/5.0 (Windows NT 10.0; Win64; x64; rv:134.0) Gecko/20100101 Firefox/134.0","","Firefox","134.0","Windows","10.0","https://app.prolific.com/","en-US,en;q=0.5","60fe08ddc8e72aef56771482","679edb085803f58d6bbd31ca","679edf585a3632dbd83c4e98","","null","<img   src='G_5.jpg' height='90'> <img   src='G_2.jpg' height='90'> <img id='selected'   src='G_3.jpg' height='90'> <img id='selected' src='G_6.jpg' height='90'> <img src='G_8.jpg' height='90'> <img src='G_7.jpg' height='90'> <img src='G_1.jpg' height='90'> <img src='G_4.jpg' height='90'>","null","Animation1","",""
"","","","","","html-keyboard-response","84","250184","0.0-61.0","12","1","2025-02-02 02:58:54","bc01a2b6f61d06f6604adb8657495020","76.218.23.63","Mozilla/5.0 (Windows NT 10.0; Win64; x64; rv:134.0) Gecko/20100101 Firefox/134.0","","Firefox","134.0","Windows","10.0","https://app.prolific.com/","en-US,en;q=0.5","60fe08ddc8e72aef56771482","679edb085803f58d6bbd31ca","679edf585a3632dbd83c4e98","","null","<img   src='G_5.jpg' height='90'> <img   src='G_2.jpg' height='90'> <img id='swapped' src='G_6.jpg' height='90'> <img id='swapped'   src='G_3.jpg' height='90'> <img src='G_8.jpg' height='90'> <img src='G_7.jpg' height='90'> <img src='G_1.jpg' height='90'> <img src='G_4.jpg' height='90'>","null","Animation1","",""
"","","","","","html-keyboard-response","85","250494","0.0-62.0","12","1","2025-02-02 02:58:54","bc01a2b6f61d06f6604adb8657495020","76.218.23.63","Mozilla/5.0 (Windows NT 10.0; Win64; x64; rv:134.0) Gecko/20100101 Firefox/134.0","","Firefox","134.0","Windows","10.0","https://app.prolific.com/","en-US,en;q=0.5","60fe08ddc8e72aef56771482","679edb085803f58d6bbd31ca","679edf585a3632dbd83c4e98","","null","<img   src='G_5.jpg' height='90'> <img   src='G_2.jpg' height='90'> <img  src='G_6.jpg' height='90'> <img    src='G_3.jpg' height='90'> <img src='G_8.jpg' height='90'> <img src='G_7.jpg' height='90'> <img src='G_1.jpg' height='90'> <img src='G_4.jpg' height='90'>","null","Animation1","",""
"","","","","","html-keyboard-response","86","251008","0.0-63.0","12","1","2025-02-02 02:58:54","bc01a2b6f61d06f6604adb8657495020","76.218.23.63","Mozilla/5.0 (Windows NT 10.0; Win64; x64; rv:134.0) Gecko/20100101 Firefox/134.0","","Firefox","134.0","Windows","10.0","https://app.prolific.com/","en-US,en;q=0.5","60fe08ddc8e72aef56771482","679edb085803f58d6bbd31ca","679edf585a3632dbd83c4e98","","null","<img   src='G_5.jpg' height='90'> <img id='selected'   src='G_2.jpg' height='90'> <img  src='G_6.jpg' height='90'> <img    src='G_3.jpg' height='90'> <img src='G_8.jpg' height='90'> <img src='G_7.jpg' height='90'> <img src='G_1.jpg' height='90'> <img src='G_4.jpg' height='90'>","null","Animation1","",""
"","","","","","html-keyboard-response","87","251523","0.0-64.0","12","1","2025-02-02 02:58:54","bc01a2b6f61d06f6604adb8657495020","76.218.23.63","Mozilla/5.0 (Windows NT 10.0; Win64; x64; rv:134.0) Gecko/20100101 Firefox/134.0","","Firefox","134.0","Windows","10.0","https://app.prolific.com/","en-US,en;q=0.5","60fe08ddc8e72aef56771482","679edb085803f58d6bbd31ca","679edf585a3632dbd83c4e98","","null","<img   src='G_5.jpg' height='90'> <img id='selected'   src='G_2.jpg' height='90'> <img id='selected'  src='G_6.jpg' height='90'> <img    src='G_3.jpg' height='90'> <img src='G_8.jpg' height='90'> <img src='G_7.jpg' height='90'> <img src='G_1.jpg' height='90'> <img src='G_4.jpg' height='90'>","null","Animation1","",""
"","","","","","html-keyboard-response","88","252037","0.0-65.0","12","1","2025-02-02 02:58:54","bc01a2b6f61d06f6604adb8657495020","76.218.23.63","Mozilla/5.0 (Windows NT 10.0; Win64; x64; rv:134.0) Gecko/20100101 Firefox/134.0","","Firefox","134.0","Windows","10.0","https://app.prolific.com/","en-US,en;q=0.5","60fe08ddc8e72aef56771482","679edb085803f58d6bbd31ca","679edf585a3632dbd83c4e98","","null","<img   src='G_5.jpg' height='90'> <img id='swapped'  src='G_6.jpg' height='90'> <img id='swapped'   src='G_2.jpg' height='90'> <img    src='G_3.jpg' height='90'> <img src='G_8.jpg' height='90'> <img src='G_7.jpg' height='90'> <img src='G_1.jpg' height='90'> <img src='G_4.jpg' height='90'>","null","Animation1","",""
"","","","","","html-keyboard-response","89","252348","0.0-66.0","12","1","2025-02-02 02:58:54","bc01a2b6f61d06f6604adb8657495020","76.218.23.63","Mozilla/5.0 (Windows NT 10.0; Win64; x64; rv:134.0) Gecko/20100101 Firefox/134.0","","Firefox","134.0","Windows","10.0","https://app.prolific.com/","en-US,en;q=0.5","60fe08ddc8e72aef56771482","679edb085803f58d6bbd31ca","679edf585a3632dbd83c4e98","","null","<img   src='G_5.jpg' height='90'> <img   src='G_6.jpg' height='90'> <img    src='G_2.jpg' height='90'> <img    src='G_3.jpg' height='90'> <img src='G_8.jpg' height='90'> <img src='G_7.jpg' height='90'> <img src='G_1.jpg' height='90'> <img src='G_4.jpg' height='90'>","null","Animation1","",""
"","","","","","html-keyboard-response","90","252858","0.0-67.0","12","1","2025-02-02 02:58:54","bc01a2b6f61d06f6604adb8657495020","76.218.23.63","Mozilla/5.0 (Windows NT 10.0; Win64; x64; rv:134.0) Gecko/20100101 Firefox/134.0","","Firefox","134.0","Windows","10.0","https://app.prolific.com/","en-US,en;q=0.5","60fe08ddc8e72aef56771482","679edb085803f58d6bbd31ca","679edf585a3632dbd83c4e98","","null","<img id='selected'   src='G_5.jpg' height='90'> <img   src='G_6.jpg' height='90'> <img    src='G_2.jpg' height='90'> <img    src='G_3.jpg' height='90'> <img src='G_8.jpg' height='90'> <img src='G_7.jpg' height='90'> <img src='G_1.jpg' height='90'> <img src='G_4.jpg' height='90'>","null","Animation1","",""
"","","","","","html-keyboard-response","91","253367","0.0-68.0","12","1","2025-02-02 02:58:54","bc01a2b6f61d06f6604adb8657495020","76.218.23.63","Mozilla/5.0 (Windows NT 10.0; Win64; x64; rv:134.0) Gecko/20100101 Firefox/134.0","","Firefox","134.0","Windows","10.0","https://app.prolific.com/","en-US,en;q=0.5","60fe08ddc8e72aef56771482","679edb085803f58d6bbd31ca","679edf585a3632dbd83c4e98","","null","<img id='selected'   src='G_5.jpg' height='90'> <img id='selected'   src='G_6.jpg' height='90'> <img    src='G_2.jpg' height='90'> <img    src='G_3.jpg' height='90'> <img src='G_8.jpg' height='90'> <img src='G_7.jpg' height='90'> <img src='G_1.jpg' height='90'> <img src='G_4.jpg' height='90'>","null","Animation1","",""
"","","","","","html-keyboard-response","92","253882","0.0-69.0","12","1","2025-02-02 02:58:54","bc01a2b6f61d06f6604adb8657495020","76.218.23.63","Mozilla/5.0 (Windows NT 10.0; Win64; x64; rv:134.0) Gecko/20100101 Firefox/134.0","","Firefox","134.0","Windows","10.0","https://app.prolific.com/","en-US,en;q=0.5","60fe08ddc8e72aef56771482","679edb085803f58d6bbd31ca","679edf585a3632dbd83c4e98","","null","<img id='swapped'   src='G_6.jpg' height='90'> <img id='swapped'   src='G_5.jpg' height='90'> <img    src='G_2.jpg' height='90'> <img    src='G_3.jpg' height='90'> <img src='G_8.jpg' height='90'> <img src='G_7.jpg' height='90'> <img src='G_1.jpg' height='90'> <img src='G_4.jpg' height='90'>","null","Animation1","",""
"","","","","","html-keyboard-response","93","254191","0.0-70.0","12","1","2025-02-02 02:58:54","bc01a2b6f61d06f6604adb8657495020","76.218.23.63","Mozilla/5.0 (Windows NT 10.0; Win64; x64; rv:134.0) Gecko/20100101 Firefox/134.0","","Firefox","134.0","Windows","10.0","https://app.prolific.com/","en-US,en;q=0.5","60fe08ddc8e72aef56771482","679edb085803f58d6bbd31ca","679edf585a3632dbd83c4e98","","null","<img    src='G_6.jpg' height='90'> <img    src='G_5.jpg' height='90'> <img    src='G_2.jpg' height='90'> <img    src='G_3.jpg' height='90'> <img src='G_8.jpg' height='90'> <img src='G_7.jpg' height='90'> <img src='G_1.jpg' height='90'> <img src='G_4.jpg' height='90'>","null","Animation1","",""
"","","","","","html-keyboard-response","94","254696","0.0-71.0","12","1","2025-02-02 02:58:54","bc01a2b6f61d06f6604adb8657495020","76.218.23.63","Mozilla/5.0 (Windows NT 10.0; Win64; x64; rv:134.0) Gecko/20100101 Firefox/134.0","","Firefox","134.0","Windows","10.0","https://app.prolific.com/","en-US,en;q=0.5","60fe08ddc8e72aef56771482","679edb085803f58d6bbd31ca","679edf585a3632dbd83c4e98","","null","<img    src='G_6.jpg' height='90'> <img    src='G_5.jpg' height='90'> <img    src='G_2.jpg' height='90'> <img id='selected'    src='G_3.jpg' height='90'> <img src='G_8.jpg' height='90'> <img src='G_7.jpg' height='90'> <img src='G_1.jpg' height='90'> <img src='G_4.jpg' height='90'>","null","Animation1","",""
"","","","","","html-keyboard-response","95","255206","0.0-72.0","12","1","2025-02-02 02:58:54","bc01a2b6f61d06f6604adb8657495020","76.218.23.63","Mozilla/5.0 (Windows NT 10.0; Win64; x64; rv:134.0) Gecko/20100101 Firefox/134.0","","Firefox","134.0","Windows","10.0","https://app.prolific.com/","en-US,en;q=0.5","60fe08ddc8e72aef56771482","679edb085803f58d6bbd31ca","679edf585a3632dbd83c4e98","","null","<img    src='G_6.jpg' height='90'> <img    src='G_5.jpg' height='90'> <img    src='G_2.jpg' height='90'> <img id='selected'    src='G_3.jpg' height='90'> <img id='selected' src='G_8.jpg' height='90'> <img src='G_7.jpg' height='90'> <img src='G_1.jpg' height='90'> <img src='G_4.jpg' height='90'>","null","Animation1","",""
"","","","","","html-keyboard-response","96","255720","0.0-73.0","12","1","2025-02-02 02:58:54","bc01a2b6f61d06f6604adb8657495020","76.218.23.63","Mozilla/5.0 (Windows NT 10.0; Win64; x64; rv:134.0) Gecko/20100101 Firefox/134.0","","Firefox","134.0","Windows","10.0","https://app.prolific.com/","en-US,en;q=0.5","60fe08ddc8e72aef56771482","679edb085803f58d6bbd31ca","679edf585a3632dbd83c4e98","","null","<img    src='G_6.jpg' height='90'> <img    src='G_5.jpg' height='90'> <img    src='G_2.jpg' height='90'> <img id='swapped' src='G_8.jpg' height='90'> <img id='swapped'    src='G_3.jpg' height='90'> <img src='G_7.jpg' height='90'> <img src='G_1.jpg' height='90'> <img src='G_4.jpg' height='90'>","null","Animation1","",""
"","","","","","html-keyboard-response","97","256035","0.0-74.0","12","1","2025-02-02 02:58:54","bc01a2b6f61d06f6604adb8657495020","76.218.23.63","Mozilla/5.0 (Windows NT 10.0; Win64; x64; rv:134.0) Gecko/20100101 Firefox/134.0","","Firefox","134.0","Windows","10.0","https://app.prolific.com/","en-US,en;q=0.5","60fe08ddc8e72aef56771482","679edb085803f58d6bbd31ca","679edf585a3632dbd83c4e98","","null","<img    src='G_6.jpg' height='90'> <img    src='G_5.jpg' height='90'> <img    src='G_2.jpg' height='90'> <img  src='G_8.jpg' height='90'> <img     src='G_3.jpg' height='90'> <img src='G_7.jpg' height='90'> <img src='G_1.jpg' height='90'> <img src='G_4.jpg' height='90'>","null","Animation1","",""
"","","","","","html-keyboard-response","98","256544","0.0-75.0","12","1","2025-02-02 02:58:54","bc01a2b6f61d06f6604adb8657495020","76.218.23.63","Mozilla/5.0 (Windows NT 10.0; Win64; x64; rv:134.0) Gecko/20100101 Firefox/134.0","","Firefox","134.0","Windows","10.0","https://app.prolific.com/","en-US,en;q=0.5","60fe08ddc8e72aef56771482","679edb085803f58d6bbd31ca","679edf585a3632dbd83c4e98","","null","<img    src='G_6.jpg' height='90'> <img    src='G_5.jpg' height='90'> <img id='selected'    src='G_2.jpg' height='90'> <img  src='G_8.jpg' height='90'> <img     src='G_3.jpg' height='90'> <img src='G_7.jpg' height='90'> <img src='G_1.jpg' height='90'> <img src='G_4.jpg' height='90'>","null","Animation1","",""
"","","","","","html-keyboard-response","99","257054","0.0-76.0","12","1","2025-02-02 02:58:54","bc01a2b6f61d06f6604adb8657495020","76.218.23.63","Mozilla/5.0 (Windows NT 10.0; Win64; x64; rv:134.0) Gecko/20100101 Firefox/134.0","","Firefox","134.0","Windows","10.0","https://app.prolific.com/","en-US,en;q=0.5","60fe08ddc8e72aef56771482","679edb085803f58d6bbd31ca","679edf585a3632dbd83c4e98","","null","<img    src='G_6.jpg' height='90'> <img    src='G_5.jpg' height='90'> <img id='selected'    src='G_2.jpg' height='90'> <img id='selected'  src='G_8.jpg' height='90'> <img     src='G_3.jpg' height='90'> <img src='G_7.jpg' height='90'> <img src='G_1.jpg' height='90'> <img src='G_4.jpg' height='90'>","null","Animation1","",""
"","","","","","html-keyboard-response","100","257564","0.0-77.0","12","1","2025-02-02 02:58:54","bc01a2b6f61d06f6604adb8657495020","76.218.23.63","Mozilla/5.0 (Windows NT 10.0; Win64; x64; rv:134.0) Gecko/20100101 Firefox/134.0","","Firefox","134.0","Windows","10.0","https://app.prolific.com/","en-US,en;q=0.5","60fe08ddc8e72aef56771482","679edb085803f58d6bbd31ca","679edf585a3632dbd83c4e98","","null","<img    src='G_6.jpg' height='90'> <img    src='G_5.jpg' height='90'> <img id='swapped'  src='G_8.jpg' height='90'> <img id='swapped'    src='G_2.jpg' height='90'> <img     src='G_3.jpg' height='90'> <img src='G_7.jpg' height='90'> <img src='G_1.jpg' height='90'> <img src='G_4.jpg' height='90'>","null","Animation1","",""
"","","","","","html-keyboard-response","101","257879","0.0-78.0","12","1","2025-02-02 02:58:54","bc01a2b6f61d06f6604adb8657495020","76.218.23.63","Mozilla/5.0 (Windows NT 10.0; Win64; x64; rv:134.0) Gecko/20100101 Firefox/134.0","","Firefox","134.0","Windows","10.0","https://app.prolific.com/","en-US,en;q=0.5","60fe08ddc8e72aef56771482","679edb085803f58d6bbd31ca","679edf585a3632dbd83c4e98","","null","<img    src='G_6.jpg' height='90'> <img    src='G_5.jpg' height='90'> <img   src='G_8.jpg' height='90'> <img     src='G_2.jpg' height='90'> <img     src='G_3.jpg' height='90'> <img src='G_7.jpg' height='90'> <img src='G_1.jpg' height='90'> <img src='G_4.jpg' height='90'>","null","Animation1","",""
"","","","","","html-keyboard-response","102","258388","0.0-79.0","12","1","2025-02-02 02:58:54","bc01a2b6f61d06f6604adb8657495020","76.218.23.63","Mozilla/5.0 (Windows NT 10.0; Win64; x64; rv:134.0) Gecko/20100101 Firefox/134.0","","Firefox","134.0","Windows","10.0","https://app.prolific.com/","en-US,en;q=0.5","60fe08ddc8e72aef56771482","679edb085803f58d6bbd31ca","679edf585a3632dbd83c4e98","","null","<img    src='G_6.jpg' height='90'> <img id='selected'    src='G_5.jpg' height='90'> <img   src='G_8.jpg' height='90'> <img     src='G_2.jpg' height='90'> <img     src='G_3.jpg' height='90'> <img src='G_7.jpg' height='90'> <img src='G_1.jpg' height='90'> <img src='G_4.jpg' height='90'>","null","Animation1","",""
"","","","","","html-keyboard-response","103","258899","0.0-80.0","12","1","2025-02-02 02:58:54","bc01a2b6f61d06f6604adb8657495020","76.218.23.63","Mozilla/5.0 (Windows NT 10.0; Win64; x64; rv:134.0) Gecko/20100101 Firefox/134.0","","Firefox","134.0","Windows","10.0","https://app.prolific.com/","en-US,en;q=0.5","60fe08ddc8e72aef56771482","679edb085803f58d6bbd31ca","679edf585a3632dbd83c4e98","","null","<img    src='G_6.jpg' height='90'> <img id='selected'    src='G_5.jpg' height='90'> <img id='selected'   src='G_8.jpg' height='90'> <img     src='G_2.jpg' height='90'> <img     src='G_3.jpg' height='90'> <img src='G_7.jpg' height='90'> <img src='G_1.jpg' height='90'> <img src='G_4.jpg' height='90'>","null","Animation1","",""
"","","","","","html-keyboard-response","104","259415","0.0-81.0","12","1","2025-02-02 02:58:54","bc01a2b6f61d06f6604adb8657495020","76.218.23.63","Mozilla/5.0 (Windows NT 10.0; Win64; x64; rv:134.0) Gecko/20100101 Firefox/134.0","","Firefox","134.0","Windows","10.0","https://app.prolific.com/","en-US,en;q=0.5","60fe08ddc8e72aef56771482","679edb085803f58d6bbd31ca","679edf585a3632dbd83c4e98","","null","<img    src='G_6.jpg' height='90'> <img id='swapped'   src='G_8.jpg' height='90'> <img id='swapped'    src='G_5.jpg' height='90'> <img     src='G_2.jpg' height='90'> <img     src='G_3.jpg' height='90'> <img src='G_7.jpg' height='90'> <img src='G_1.jpg' height='90'> <img src='G_4.jpg' height='90'>","null","Animation1","",""
"","","","","","html-keyboard-response","105","259732","0.0-82.0","12","1","2025-02-02 02:58:54","bc01a2b6f61d06f6604adb8657495020","76.218.23.63","Mozilla/5.0 (Windows NT 10.0; Win64; x64; rv:134.0) Gecko/20100101 Firefox/134.0","","Firefox","134.0","Windows","10.0","https://app.prolific.com/","en-US,en;q=0.5","60fe08ddc8e72aef56771482","679edb085803f58d6bbd31ca","679edf585a3632dbd83c4e98","","null","<img    src='G_6.jpg' height='90'> <img    src='G_8.jpg' height='90'> <img     src='G_5.jpg' height='90'> <img     src='G_2.jpg' height='90'> <img     src='G_3.jpg' height='90'> <img src='G_7.jpg' height='90'> <img src='G_1.jpg' height='90'> <img src='G_4.jpg' height='90'>","null","Animation1","",""
"","","","","","html-keyboard-response","106","260237","0.0-83.0","12","1","2025-02-02 02:58:54","bc01a2b6f61d06f6604adb8657495020","76.218.23.63","Mozilla/5.0 (Windows NT 10.0; Win64; x64; rv:134.0) Gecko/20100101 Firefox/134.0","","Firefox","134.0","Windows","10.0","https://app.prolific.com/","en-US,en;q=0.5","60fe08ddc8e72aef56771482","679edb085803f58d6bbd31ca","679edf585a3632dbd83c4e98","","null","<img id='selected'    src='G_6.jpg' height='90'> <img    src='G_8.jpg' height='90'> <img     src='G_5.jpg' height='90'> <img     src='G_2.jpg' height='90'> <img     src='G_3.jpg' height='90'> <img src='G_7.jpg' height='90'> <img src='G_1.jpg' height='90'> <img src='G_4.jpg' height='90'>","null","Animation1","",""
"","","","","","html-keyboard-response","107","260751","0.0-84.0","12","1","2025-02-02 02:58:54","bc01a2b6f61d06f6604adb8657495020","76.218.23.63","Mozilla/5.0 (Windows NT 10.0; Win64; x64; rv:134.0) Gecko/20100101 Firefox/134.0","","Firefox","134.0","Windows","10.0","https://app.prolific.com/","en-US,en;q=0.5","60fe08ddc8e72aef56771482","679edb085803f58d6bbd31ca","679edf585a3632dbd83c4e98","","null","<img id='selected'    src='G_6.jpg' height='90'> <img id='selected'    src='G_8.jpg' height='90'> <img     src='G_5.jpg' height='90'> <img     src='G_2.jpg' height='90'> <img     src='G_3.jpg' height='90'> <img src='G_7.jpg' height='90'> <img src='G_1.jpg' height='90'> <img src='G_4.jpg' height='90'>","null","Animation1","",""
"","","","","","html-keyboard-response","108","261262","0.0-85.0","12","1","2025-02-02 02:58:54","bc01a2b6f61d06f6604adb8657495020","76.218.23.63","Mozilla/5.0 (Windows NT 10.0; Win64; x64; rv:134.0) Gecko/20100101 Firefox/134.0","","Firefox","134.0","Windows","10.0","https://app.prolific.com/","en-US,en;q=0.5","60fe08ddc8e72aef56771482","679edb085803f58d6bbd31ca","679edf585a3632dbd83c4e98","","null","<img id='selected'    src='G_6.jpg' height='90'> <img id='selected'    src='G_8.jpg' height='90'> <img     src='G_5.jpg' height='90'> <img     src='G_2.jpg' height='90'> <img     src='G_3.jpg' height='90'> <img src='G_7.jpg' height='90'> <img src='G_1.jpg' height='90'> <img src='G_4.jpg' height='90'>","null","Animation1","",""
"","","","","","html-keyboard-response","109","261576","0.0-86.0","12","1","2025-02-02 02:58:54","bc01a2b6f61d06f6604adb8657495020","76.218.23.63","Mozilla/5.0 (Windows NT 10.0; Win64; x64; rv:134.0) Gecko/20100101 Firefox/134.0","","Firefox","134.0","Windows","10.0","https://app.prolific.com/","en-US,en;q=0.5","60fe08ddc8e72aef56771482","679edb085803f58d6bbd31ca","679edf585a3632dbd83c4e98","","null","<img     src='G_6.jpg' height='90'> <img     src='G_8.jpg' height='90'> <img     src='G_5.jpg' height='90'> <img     src='G_2.jpg' height='90'> <img     src='G_3.jpg' height='90'> <img src='G_7.jpg' height='90'> <img src='G_1.jpg' height='90'> <img src='G_4.jpg' height='90'>","null","Animation1","",""
"","","","","","html-keyboard-response","110","262086","0.0-87.0","12","1","2025-02-02 02:58:54","bc01a2b6f61d06f6604adb8657495020","76.218.23.63","Mozilla/5.0 (Windows NT 10.0; Win64; x64; rv:134.0) Gecko/20100101 Firefox/134.0","","Firefox","134.0","Windows","10.0","https://app.prolific.com/","en-US,en;q=0.5","60fe08ddc8e72aef56771482","679edb085803f58d6bbd31ca","679edf585a3632dbd83c4e98","","null","<img     src='G_6.jpg' height='90'> <img     src='G_8.jpg' height='90'> <img     src='G_5.jpg' height='90'> <img     src='G_2.jpg' height='90'> <img id='selected'     src='G_3.jpg' height='90'> <img src='G_7.jpg' height='90'> <img src='G_1.jpg' height='90'> <img src='G_4.jpg' height='90'>","null","Animation1","",""
"","","","","","html-keyboard-response","111","262601","0.0-88.0","12","1","2025-02-02 02:58:54","bc01a2b6f61d06f6604adb8657495020","76.218.23.63","Mozilla/5.0 (Windows NT 10.0; Win64; x64; rv:134.0) Gecko/20100101 Firefox/134.0","","Firefox","134.0","Windows","10.0","https://app.prolific.com/","en-US,en;q=0.5","60fe08ddc8e72aef56771482","679edb085803f58d6bbd31ca","679edf585a3632dbd83c4e98","","null","<img     src='G_6.jpg' height='90'> <img     src='G_8.jpg' height='90'> <img     src='G_5.jpg' height='90'> <img     src='G_2.jpg' height='90'> <img id='selected'     src='G_3.jpg' height='90'> <img id='selected' src='G_7.jpg' height='90'> <img src='G_1.jpg' height='90'> <img src='G_4.jpg' height='90'>","null","Animation1","",""
"","","","","","html-keyboard-response","112","263110","0.0-89.0","12","1","2025-02-02 02:58:54","bc01a2b6f61d06f6604adb8657495020","76.218.23.63","Mozilla/5.0 (Windows NT 10.0; Win64; x64; rv:134.0) Gecko/20100101 Firefox/134.0","","Firefox","134.0","Windows","10.0","https://app.prolific.com/","en-US,en;q=0.5","60fe08ddc8e72aef56771482","679edb085803f58d6bbd31ca","679edf585a3632dbd83c4e98","","null","<img     src='G_6.jpg' height='90'> <img     src='G_8.jpg' height='90'> <img     src='G_5.jpg' height='90'> <img     src='G_2.jpg' height='90'> <img id='swapped' src='G_7.jpg' height='90'> <img id='swapped'     src='G_3.jpg' height='90'> <img src='G_1.jpg' height='90'> <img src='G_4.jpg' height='90'>","null","Animation1","",""
"","","","","","html-keyboard-response","113","263423","0.0-90.0","12","1","2025-02-02 02:58:54","bc01a2b6f61d06f6604adb8657495020","76.218.23.63","Mozilla/5.0 (Windows NT 10.0; Win64; x64; rv:134.0) Gecko/20100101 Firefox/134.0","","Firefox","134.0","Windows","10.0","https://app.prolific.com/","en-US,en;q=0.5","60fe08ddc8e72aef56771482","679edb085803f58d6bbd31ca","679edf585a3632dbd83c4e98","","null","<img     src='G_6.jpg' height='90'> <img     src='G_8.jpg' height='90'> <img     src='G_5.jpg' height='90'> <img     src='G_2.jpg' height='90'> <img  src='G_7.jpg' height='90'> <img      src='G_3.jpg' height='90'> <img src='G_1.jpg' height='90'> <img src='G_4.jpg' height='90'>","null","Animation1","",""
"","","","","","html-keyboard-response","114","263933","0.0-91.0","12","1","2025-02-02 02:58:54","bc01a2b6f61d06f6604adb8657495020","76.218.23.63","Mozilla/5.0 (Windows NT 10.0; Win64; x64; rv:134.0) Gecko/20100101 Firefox/134.0","","Firefox","134.0","Windows","10.0","https://app.prolific.com/","en-US,en;q=0.5","60fe08ddc8e72aef56771482","679edb085803f58d6bbd31ca","679edf585a3632dbd83c4e98","","null","<img     src='G_6.jpg' height='90'> <img     src='G_8.jpg' height='90'> <img     src='G_5.jpg' height='90'> <img id='selected'     src='G_2.jpg' height='90'> <img  src='G_7.jpg' height='90'> <img      src='G_3.jpg' height='90'> <img src='G_1.jpg' height='90'> <img src='G_4.jpg' height='90'>","null","Animation1","",""
"","","","","","html-keyboard-response","115","264443","0.0-92.0","12","1","2025-02-02 02:58:54","bc01a2b6f61d06f6604adb8657495020","76.218.23.63","Mozilla/5.0 (Windows NT 10.0; Win64; x64; rv:134.0) Gecko/20100101 Firefox/134.0","","Firefox","134.0","Windows","10.0","https://app.prolific.com/","en-US,en;q=0.5","60fe08ddc8e72aef56771482","679edb085803f58d6bbd31ca","679edf585a3632dbd83c4e98","","null","<img     src='G_6.jpg' height='90'> <img     src='G_8.jpg' height='90'> <img     src='G_5.jpg' height='90'> <img id='selected'     src='G_2.jpg' height='90'> <img id='selected'  src='G_7.jpg' height='90'> <img      src='G_3.jpg' height='90'> <img src='G_1.jpg' height='90'> <img src='G_4.jpg' height='90'>","null","Animation1","",""
"","","","","","html-keyboard-response","116","264952","0.0-93.0","12","1","2025-02-02 02:58:54","bc01a2b6f61d06f6604adb8657495020","76.218.23.63","Mozilla/5.0 (Windows NT 10.0; Win64; x64; rv:134.0) Gecko/20100101 Firefox/134.0","","Firefox","134.0","Windows","10.0","https://app.prolific.com/","en-US,en;q=0.5","60fe08ddc8e72aef56771482","679edb085803f58d6bbd31ca","679edf585a3632dbd83c4e98","","null","<img     src='G_6.jpg' height='90'> <img     src='G_8.jpg' height='90'> <img     src='G_5.jpg' height='90'> <img id='selected'     src='G_2.jpg' height='90'> <img id='selected'  src='G_7.jpg' height='90'> <img      src='G_3.jpg' height='90'> <img src='G_1.jpg' height='90'> <img src='G_4.jpg' height='90'>","null","Animation1","",""
"","","","","","html-keyboard-response","117","265264","0.0-94.0","12","1","2025-02-02 02:58:54","bc01a2b6f61d06f6604adb8657495020","76.218.23.63","Mozilla/5.0 (Windows NT 10.0; Win64; x64; rv:134.0) Gecko/20100101 Firefox/134.0","","Firefox","134.0","Windows","10.0","https://app.prolific.com/","en-US,en;q=0.5","60fe08ddc8e72aef56771482","679edb085803f58d6bbd31ca","679edf585a3632dbd83c4e98","","null","<img     src='G_6.jpg' height='90'> <img     src='G_8.jpg' height='90'> <img     src='G_5.jpg' height='90'> <img      src='G_2.jpg' height='90'> <img   src='G_7.jpg' height='90'> <img      src='G_3.jpg' height='90'> <img src='G_1.jpg' height='90'> <img src='G_4.jpg' height='90'>","null","Animation1","",""
"","","","","","html-keyboard-response","118","265774","0.0-95.0","12","1","2025-02-02 02:58:54","bc01a2b6f61d06f6604adb8657495020","76.218.23.63","Mozilla/5.0 (Windows NT 10.0; Win64; x64; rv:134.0) Gecko/20100101 Firefox/134.0","","Firefox","134.0","Windows","10.0","https://app.prolific.com/","en-US,en;q=0.5","60fe08ddc8e72aef56771482","679edb085803f58d6bbd31ca","679edf585a3632dbd83c4e98","","null","<img     src='G_6.jpg' height='90'> <img     src='G_8.jpg' height='90'> <img     src='G_5.jpg' height='90'> <img      src='G_2.jpg' height='90'> <img   src='G_7.jpg' height='90'> <img id='selected'      src='G_3.jpg' height='90'> <img src='G_1.jpg' height='90'> <img src='G_4.jpg' height='90'>","null","Animation1","",""
"","","","","","html-keyboard-response","119","266279","0.0-96.0","12","1","2025-02-02 02:58:54","bc01a2b6f61d06f6604adb8657495020","76.218.23.63","Mozilla/5.0 (Windows NT 10.0; Win64; x64; rv:134.0) Gecko/20100101 Firefox/134.0","","Firefox","134.0","Windows","10.0","https://app.prolific.com/","en-US,en;q=0.5","60fe08ddc8e72aef56771482","679edb085803f58d6bbd31ca","679edf585a3632dbd83c4e98","","null","<img     src='G_6.jpg' height='90'> <img     src='G_8.jpg' height='90'> <img     src='G_5.jpg' height='90'> <img      src='G_2.jpg' height='90'> <img   src='G_7.jpg' height='90'> <img id='selected'      src='G_3.jpg' height='90'> <img id='selected' src='G_1.jpg' height='90'> <img src='G_4.jpg' height='90'>","null","Animation1","",""
"","","","","","html-keyboard-response","120","266783","0.0-97.0","12","1","2025-02-02 02:58:54","bc01a2b6f61d06f6604adb8657495020","76.218.23.63","Mozilla/5.0 (Windows NT 10.0; Win64; x64; rv:134.0) Gecko/20100101 Firefox/134.0","","Firefox","134.0","Windows","10.0","https://app.prolific.com/","en-US,en;q=0.5","60fe08ddc8e72aef56771482","679edb085803f58d6bbd31ca","679edf585a3632dbd83c4e98","","null","<img     src='G_6.jpg' height='90'> <img     src='G_8.jpg' height='90'> <img     src='G_5.jpg' height='90'> <img      src='G_2.jpg' height='90'> <img   src='G_7.jpg' height='90'> <img id='selected'      src='G_3.jpg' height='90'> <img id='selected' src='G_1.jpg' height='90'> <img src='G_4.jpg' height='90'>","null","Animation1","",""
"","","","","","html-keyboard-response","121","267094","0.0-98.0","12","1","2025-02-02 02:58:54","bc01a2b6f61d06f6604adb8657495020","76.218.23.63","Mozilla/5.0 (Windows NT 10.0; Win64; x64; rv:134.0) Gecko/20100101 Firefox/134.0","","Firefox","134.0","Windows","10.0","https://app.prolific.com/","en-US,en;q=0.5","60fe08ddc8e72aef56771482","679edb085803f58d6bbd31ca","679edf585a3632dbd83c4e98","","null","<img     src='G_6.jpg' height='90'> <img     src='G_8.jpg' height='90'> <img     src='G_5.jpg' height='90'> <img      src='G_2.jpg' height='90'> <img   src='G_7.jpg' height='90'> <img       src='G_3.jpg' height='90'> <img  src='G_1.jpg' height='90'> <img src='G_4.jpg' height='90'>","null","Animation1","",""
"","","","","","html-keyboard-response","122","267598","0.0-99.0","12","1","2025-02-02 02:58:54","bc01a2b6f61d06f6604adb8657495020","76.218.23.63","Mozilla/5.0 (Windows NT 10.0; Win64; x64; rv:134.0) Gecko/20100101 Firefox/134.0","","Firefox","134.0","Windows","10.0","https://app.prolific.com/","en-US,en;q=0.5","60fe08ddc8e72aef56771482","679edb085803f58d6bbd31ca","679edf585a3632dbd83c4e98","","null","<img     src='G_6.jpg' height='90'> <img     src='G_8.jpg' height='90'> <img     src='G_5.jpg' height='90'> <img      src='G_2.jpg' height='90'> <img   src='G_7.jpg' height='90'> <img       src='G_3.jpg' height='90'> <img id='selected'  src='G_1.jpg' height='90'> <img src='G_4.jpg' height='90'>","null","Animation1","",""
"","","","","","html-keyboard-response","123","268108","0.0-100.0","12","1","2025-02-02 02:58:54","bc01a2b6f61d06f6604adb8657495020","76.218.23.63","Mozilla/5.0 (Windows NT 10.0; Win64; x64; rv:134.0) Gecko/20100101 Firefox/134.0","","Firefox","134.0","Windows","10.0","https://app.prolific.com/","en-US,en;q=0.5","60fe08ddc8e72aef56771482","679edb085803f58d6bbd31ca","679edf585a3632dbd83c4e98","","null","<img     src='G_6.jpg' height='90'> <img     src='G_8.jpg' height='90'> <img     src='G_5.jpg' height='90'> <img      src='G_2.jpg' height='90'> <img   src='G_7.jpg' height='90'> <img       src='G_3.jpg' height='90'> <img id='selected'  src='G_1.jpg' height='90'> <img id='selected' src='G_4.jpg' height='90'>","null","Animation1","",""
"","","","","","html-keyboard-response","124","268612","0.0-101.0","12","1","2025-02-02 02:58:54","bc01a2b6f61d06f6604adb8657495020","76.218.23.63","Mozilla/5.0 (Windows NT 10.0; Win64; x64; rv:134.0) Gecko/20100101 Firefox/134.0","","Firefox","134.0","Windows","10.0","https://app.prolific.com/","en-US,en;q=0.5","60fe08ddc8e72aef56771482","679edb085803f58d6bbd31ca","679edf585a3632dbd83c4e98","","null","<img     src='G_6.jpg' height='90'> <img     src='G_8.jpg' height='90'> <img     src='G_5.jpg' height='90'> <img      src='G_2.jpg' height='90'> <img   src='G_7.jpg' height='90'> <img       src='G_3.jpg' height='90'> <img id='swapped' src='G_4.jpg' height='90'> <img id='swapped'  src='G_1.jpg' height='90'>","null","Animation1","",""
"","","","","","html-keyboard-response","125","268917","0.0-102.0","12","1","2025-02-02 02:58:54","bc01a2b6f61d06f6604adb8657495020","76.218.23.63","Mozilla/5.0 (Windows NT 10.0; Win64; x64; rv:134.0) Gecko/20100101 Firefox/134.0","","Firefox","134.0","Windows","10.0","https://app.prolific.com/","en-US,en;q=0.5","60fe08ddc8e72aef56771482","679edb085803f58d6bbd31ca","679edf585a3632dbd83c4e98","","null","<img     src='G_6.jpg' height='90'> <img     src='G_8.jpg' height='90'> <img     src='G_5.jpg' height='90'> <img      src='G_2.jpg' height='90'> <img   src='G_7.jpg' height='90'> <img       src='G_3.jpg' height='90'> <img  src='G_4.jpg' height='90'> <img   src='G_1.jpg' height='90'>","null","Animation1","",""
"","","","","","html-keyboard-response","126","269432","0.0-103.0","12","1","2025-02-02 02:58:54","bc01a2b6f61d06f6604adb8657495020","76.218.23.63","Mozilla/5.0 (Windows NT 10.0; Win64; x64; rv:134.0) Gecko/20100101 Firefox/134.0","","Firefox","134.0","Windows","10.0","https://app.prolific.com/","en-US,en;q=0.5","60fe08ddc8e72aef56771482","679edb085803f58d6bbd31ca","679edf585a3632dbd83c4e98","","null","<img     src='G_6.jpg' height='90'> <img     src='G_8.jpg' height='90'> <img     src='G_5.jpg' height='90'> <img      src='G_2.jpg' height='90'> <img   src='G_7.jpg' height='90'> <img id='selected'       src='G_3.jpg' height='90'> <img  src='G_4.jpg' height='90'> <img   src='G_1.jpg' height='90'>","null","Animation1","",""
"","","","","","html-keyboard-response","127","269947","0.0-104.0","12","1","2025-02-02 02:58:54","bc01a2b6f61d06f6604adb8657495020","76.218.23.63","Mozilla/5.0 (Windows NT 10.0; Win64; x64; rv:134.0) Gecko/20100101 Firefox/134.0","","Firefox","134.0","Windows","10.0","https://app.prolific.com/","en-US,en;q=0.5","60fe08ddc8e72aef56771482","679edb085803f58d6bbd31ca","679edf585a3632dbd83c4e98","","null","<img     src='G_6.jpg' height='90'> <img     src='G_8.jpg' height='90'> <img     src='G_5.jpg' height='90'> <img      src='G_2.jpg' height='90'> <img   src='G_7.jpg' height='90'> <img id='selected'       src='G_3.jpg' height='90'> <img id='selected'  src='G_4.jpg' height='90'> <img   src='G_1.jpg' height='90'>","null","Animation1","",""
"","","","","","html-keyboard-response","128","270455","0.0-105.0","12","1","2025-02-02 02:58:54","bc01a2b6f61d06f6604adb8657495020","76.218.23.63","Mozilla/5.0 (Windows NT 10.0; Win64; x64; rv:134.0) Gecko/20100101 Firefox/134.0","","Firefox","134.0","Windows","10.0","https://app.prolific.com/","en-US,en;q=0.5","60fe08ddc8e72aef56771482","679edb085803f58d6bbd31ca","679edf585a3632dbd83c4e98","","null","<img     src='G_6.jpg' height='90'> <img     src='G_8.jpg' height='90'> <img     src='G_5.jpg' height='90'> <img      src='G_2.jpg' height='90'> <img   src='G_7.jpg' height='90'> <img id='selected'       src='G_3.jpg' height='90'> <img id='selected'  src='G_4.jpg' height='90'> <img   src='G_1.jpg' height='90'>","null","Animation1","",""
"","","","","","html-keyboard-response","129","270770","0.0-106.0","12","1","2025-02-02 02:58:54","bc01a2b6f61d06f6604adb8657495020","76.218.23.63","Mozilla/5.0 (Windows NT 10.0; Win64; x64; rv:134.0) Gecko/20100101 Firefox/134.0","","Firefox","134.0","Windows","10.0","https://app.prolific.com/","en-US,en;q=0.5","60fe08ddc8e72aef56771482","679edb085803f58d6bbd31ca","679edf585a3632dbd83c4e98","","null","<img     src='G_6.jpg' height='90'> <img     src='G_8.jpg' height='90'> <img     src='G_5.jpg' height='90'> <img      src='G_2.jpg' height='90'> <img   src='G_7.jpg' height='90'> <img        src='G_3.jpg' height='90'> <img   src='G_4.jpg' height='90'> <img   src='G_1.jpg' height='90'>","null","Animation1","",""
"","","","","","html-keyboard-response","130","273703","0.0-107.0","12","1","2025-02-02 02:58:54","bc01a2b6f61d06f6604adb8657495020","76.218.23.63","Mozilla/5.0 (Windows NT 10.0; Win64; x64; rv:134.0) Gecko/20100101 Firefox/134.0","","Firefox","134.0","Windows","10.0","https://app.prolific.com/","en-US,en;q=0.5","60fe08ddc8e72aef56771482","679edb085803f58d6bbd31ca","679edf585a3632dbd83c4e98","","2930","[""Did you notice any patterns? <br><br>Press Enter to watch that example again and follow the steps of Omgne Sort.""]","enter","","",""
"","","","","","html-button-response","131","274113","0.0-108.0","12","1","2025-02-02 02:58:54","bc01a2b6f61d06f6604adb8657495020","76.218.23.63","Mozilla/5.0 (Windows NT 10.0; Win64; x64; rv:134.0) Gecko/20100101 Firefox/134.0","","Firefox","134.0","Windows","10.0","https://app.prolific.com/","en-US,en;q=0.5","60fe08ddc8e72aef56771482","679edb085803f58d6bbd31ca","679edf585a3632dbd83c4e98","","null","<img id='selected' src='G_2.jpg' height='90'> <img src='G_3.jpg' height='90'> <img src='G_5.jpg' height='90'> <img src='G_6.jpg' height='90'> <img src='G_8.jpg' height='90'> <img src='G_7.jpg' height='90'> <img src='G_1.jpg' height='90'> <img src='G_4.jpg' height='90'>","null","Learning example 1","",""
"","","","","","html-button-response","132","274424","0.0-109.0","12","1","2025-02-02 02:58:54","bc01a2b6f61d06f6604adb8657495020","76.218.23.63","Mozilla/5.0 (Windows NT 10.0; Win64; x64; rv:134.0) Gecko/20100101 Firefox/134.0","","Firefox","134.0","Windows","10.0","https://app.prolific.com/","en-US,en;q=0.5","60fe08ddc8e72aef56771482","679edb085803f58d6bbd31ca","679edf585a3632dbd83c4e98","","null","<img id='selected' src='G_2.jpg' height='90'> <img id='selected' src='G_3.jpg' height='90'> <img src='G_5.jpg' height='90'> <img src='G_6.jpg' height='90'> <img src='G_8.jpg' height='90'> <img src='G_7.jpg' height='90'> <img src='G_1.jpg' height='90'> <img src='G_4.jpg' height='90'>","null","Learning example 1","",""
"","","","","","html-button-response","133","274728","0.0-110.0","12","1","2025-02-02 02:58:54","bc01a2b6f61d06f6604adb8657495020","76.218.23.63","Mozilla/5.0 (Windows NT 10.0; Win64; x64; rv:134.0) Gecko/20100101 Firefox/134.0","","Firefox","134.0","Windows","10.0","https://app.prolific.com/","en-US,en;q=0.5","60fe08ddc8e72aef56771482","679edb085803f58d6bbd31ca","679edf585a3632dbd83c4e98","","null","<img id='selected' src='G_2.jpg' height='90'> <img id='selected' src='G_3.jpg' height='90'> <img src='G_5.jpg' height='90'> <img src='G_6.jpg' height='90'> <img src='G_8.jpg' height='90'> <img src='G_7.jpg' height='90'> <img src='G_1.jpg' height='90'> <img src='G_4.jpg' height='90'>","null","Learning example 1","",""
"","","","","","html-button-response","134","277352","0.0-111.0-0.0-0.0","12","1","2025-02-02 02:58:54","bc01a2b6f61d06f6604adb8657495020","76.218.23.63","Mozilla/5.0 (Windows NT 10.0; Win64; x64; rv:134.0) Gecko/20100101 Firefox/134.0","","Firefox","134.0","Windows","10.0","https://app.prolific.com/","en-US,en;q=0.5","60fe08ddc8e72aef56771482","679edb085803f58d6bbd31ca","679edf585a3632dbd83c4e98","","2619","<img id='selected' src='G_2.jpg' height='90'> <img id='selected' src='G_3.jpg' height='90'> <img src='G_5.jpg' height='90'> <img src='G_6.jpg' height='90'> <img src='G_8.jpg' height='90'> <img src='G_7.jpg' height='90'> <img src='G_1.jpg' height='90'> <img src='G_4.jpg' height='90'>","0","Learning example 1","",""
"","","","","","html-button-response","135","277859","0.0-111.1-0.1-0.1","12","1","2025-02-02 02:58:54","bc01a2b6f61d06f6604adb8657495020","76.218.23.63","Mozilla/5.0 (Windows NT 10.0; Win64; x64; rv:134.0) Gecko/20100101 Firefox/134.0","","Firefox","134.0","Windows","10.0","https://app.prolific.com/","en-US,en;q=0.5","60fe08ddc8e72aef56771482","679edb085803f58d6bbd31ca","679edf585a3632dbd83c4e98","","501","<img id='selected' src='G_2.jpg' height='90'> <img id='selected' src='G_3.jpg' height='90'> <img src='G_5.jpg' height='90'> <img src='G_6.jpg' height='90'> <img src='G_8.jpg' height='90'> <img src='G_7.jpg' height='90'> <img src='G_1.jpg' height='90'> <img src='G_4.jpg' height='90'>","1","Learning example 1","",""
"","","","","","html-button-response","136","278078","0.0-112.0","12","1","2025-02-02 02:58:54","bc01a2b6f61d06f6604adb8657495020","76.218.23.63","Mozilla/5.0 (Windows NT 10.0; Win64; x64; rv:134.0) Gecko/20100101 Firefox/134.0","","Firefox","134.0","Windows","10.0","https://app.prolific.com/","en-US,en;q=0.5","60fe08ddc8e72aef56771482","679edb085803f58d6bbd31ca","679edf585a3632dbd83c4e98","","null","<img  src='G_2.jpg' height='90'> <img  src='G_3.jpg' height='90'> <img src='G_5.jpg' height='90'> <img src='G_6.jpg' height='90'> <img src='G_8.jpg' height='90'> <img src='G_7.jpg' height='90'> <img src='G_1.jpg' height='90'> <img src='G_4.jpg' height='90'>","null","Learning example 1","",""
"","","","","","html-button-response","137","278482","0.0-113.0","12","1","2025-02-02 02:58:54","bc01a2b6f61d06f6604adb8657495020","76.218.23.63","Mozilla/5.0 (Windows NT 10.0; Win64; x64; rv:134.0) Gecko/20100101 Firefox/134.0","","Firefox","134.0","Windows","10.0","https://app.prolific.com/","en-US,en;q=0.5","60fe08ddc8e72aef56771482","679edb085803f58d6bbd31ca","679edf585a3632dbd83c4e98","","null","<img  src='G_2.jpg' height='90'> <img id='selected'  src='G_3.jpg' height='90'> <img src='G_5.jpg' height='90'> <img src='G_6.jpg' height='90'> <img src='G_8.jpg' height='90'> <img src='G_7.jpg' height='90'> <img src='G_1.jpg' height='90'> <img src='G_4.jpg' height='90'>","null","Learning example 1","",""
"","","","","","html-button-response","138","278797","0.0-114.0","12","1","2025-02-02 02:58:54","bc01a2b6f61d06f6604adb8657495020","76.218.23.63","Mozilla/5.0 (Windows NT 10.0; Win64; x64; rv:134.0) Gecko/20100101 Firefox/134.0","","Firefox","134.0","Windows","10.0","https://app.prolific.com/","en-US,en;q=0.5","60fe08ddc8e72aef56771482","679edb085803f58d6bbd31ca","679edf585a3632dbd83c4e98","","null","<img  src='G_2.jpg' height='90'> <img id='selected'  src='G_3.jpg' height='90'> <img id='selected' src='G_5.jpg' height='90'> <img src='G_6.jpg' height='90'> <img src='G_8.jpg' height='90'> <img src='G_7.jpg' height='90'> <img src='G_1.jpg' height='90'> <img src='G_4.jpg' height='90'>","null","Learning example 1","",""
"","","","","","html-button-response","139","279106","0.0-115.0","12","1","2025-02-02 02:58:54","bc01a2b6f61d06f6604adb8657495020","76.218.23.63","Mozilla/5.0 (Windows NT 10.0; Win64; x64; rv:134.0) Gecko/20100101 Firefox/134.0","","Firefox","134.0","Windows","10.0","https://app.prolific.com/","en-US,en;q=0.5","60fe08ddc8e72aef56771482","679edb085803f58d6bbd31ca","679edf585a3632dbd83c4e98","","null","<img  src='G_2.jpg' height='90'> <img id='swapped' src='G_5.jpg' height='90'> <img id='swapped'  src='G_3.jpg' height='90'> <img src='G_6.jpg' height='90'> <img src='G_8.jpg' height='90'> <img src='G_7.jpg' height='90'> <img src='G_1.jpg' height='90'> <img src='G_4.jpg' height='90'>","null","Learning example 1","",""
"","","","","","html-button-response","140","279845","0.0-116.0-0.0-0.0","12","1","2025-02-02 02:58:54","bc01a2b6f61d06f6604adb8657495020","76.218.23.63","Mozilla/5.0 (Windows NT 10.0; Win64; x64; rv:134.0) Gecko/20100101 Firefox/134.0","","Firefox","134.0","Windows","10.0","https://app.prolific.com/","en-US,en;q=0.5","60fe08ddc8e72aef56771482","679edb085803f58d6bbd31ca","679edf585a3632dbd83c4e98","","733","<img  src='G_2.jpg' height='90'> <img id='swapped' src='G_5.jpg' height='90'> <img id='swapped'  src='G_3.jpg' height='90'> <img src='G_6.jpg' height='90'> <img src='G_8.jpg' height='90'> <img src='G_7.jpg' height='90'> <img src='G_1.jpg' height='90'> <img src='G_4.jpg' height='90'>","1","Learning example 1","",""
"","","","","","html-button-response","141","280322","0.0-116.1-0.1-0.1","12","1","2025-02-02 02:58:54","bc01a2b6f61d06f6604adb8657495020","76.218.23.63","Mozilla/5.0 (Windows NT 10.0; Win64; x64; rv:134.0) Gecko/20100101 Firefox/134.0","","Firefox","134.0","Windows","10.0","https://app.prolific.com/","en-US,en;q=0.5","60fe08ddc8e72aef56771482","679edb085803f58d6bbd31ca","679edf585a3632dbd83c4e98","","472","<img  src='G_2.jpg' height='90'> <img id='swapped' src='G_5.jpg' height='90'> <img id='swapped'  src='G_3.jpg' height='90'> <img src='G_6.jpg' height='90'> <img src='G_8.jpg' height='90'> <img src='G_7.jpg' height='90'> <img src='G_1.jpg' height='90'> <img src='G_4.jpg' height='90'>","2","Learning example 1","",""
"","","","","","html-button-response","142","280541","0.0-117.0","12","1","2025-02-02 02:58:54","bc01a2b6f61d06f6604adb8657495020","76.218.23.63","Mozilla/5.0 (Windows NT 10.0; Win64; x64; rv:134.0) Gecko/20100101 Firefox/134.0","","Firefox","134.0","Windows","10.0","https://app.prolific.com/","en-US,en;q=0.5","60fe08ddc8e72aef56771482","679edb085803f58d6bbd31ca","679edf585a3632dbd83c4e98","","null","<img  src='G_2.jpg' height='90'> <img  src='G_5.jpg' height='90'> <img   src='G_3.jpg' height='90'> <img src='G_6.jpg' height='90'> <img src='G_8.jpg' height='90'> <img src='G_7.jpg' height='90'> <img src='G_1.jpg' height='90'> <img src='G_4.jpg' height='90'>","null","Learning example 1","",""
"","","","","","html-button-response","143","280945","0.0-118.0","12","1","2025-02-02 02:58:54","bc01a2b6f61d06f6604adb8657495020","76.218.23.63","Mozilla/5.0 (Windows NT 10.0; Win64; x64; rv:134.0) Gecko/20100101 Firefox/134.0","","Firefox","134.0","Windows","10.0","https://app.prolific.com/","en-US,en;q=0.5","60fe08ddc8e72aef56771482","679edb085803f58d6bbd31ca","679edf585a3632dbd83c4e98","","null","<img id='selected'  src='G_2.jpg' height='90'> <img  src='G_5.jpg' height='90'> <img   src='G_3.jpg' height='90'> <img src='G_6.jpg' height='90'> <img src='G_8.jpg' height='90'> <img src='G_7.jpg' height='90'> <img src='G_1.jpg' height='90'> <img src='G_4.jpg' height='90'>","null","Learning example 1","",""
"","","","","","html-button-response","144","281250","0.0-119.0","12","1","2025-02-02 02:58:54","bc01a2b6f61d06f6604adb8657495020","76.218.23.63","Mozilla/5.0 (Windows NT 10.0; Win64; x64; rv:134.0) Gecko/20100101 Firefox/134.0","","Firefox","134.0","Windows","10.0","https://app.prolific.com/","en-US,en;q=0.5","60fe08ddc8e72aef56771482","679edb085803f58d6bbd31ca","679edf585a3632dbd83c4e98","","null","<img id='selected'  src='G_2.jpg' height='90'> <img id='selected'  src='G_5.jpg' height='90'> <img   src='G_3.jpg' height='90'> <img src='G_6.jpg' height='90'> <img src='G_8.jpg' height='90'> <img src='G_7.jpg' height='90'> <img src='G_1.jpg' height='90'> <img src='G_4.jpg' height='90'>","null","Learning example 1","",""
"","","","","","html-button-response","145","281555","0.0-120.0","12","1","2025-02-02 02:58:54","bc01a2b6f61d06f6604adb8657495020","76.218.23.63","Mozilla/5.0 (Windows NT 10.0; Win64; x64; rv:134.0) Gecko/20100101 Firefox/134.0","","Firefox","134.0","Windows","10.0","https://app.prolific.com/","en-US,en;q=0.5","60fe08ddc8e72aef56771482","679edb085803f58d6bbd31ca","679edf585a3632dbd83c4e98","","null","<img id='swapped'  src='G_5.jpg' height='90'> <img id='swapped'  src='G_2.jpg' height='90'> <img   src='G_3.jpg' height='90'> <img src='G_6.jpg' height='90'> <img src='G_8.jpg' height='90'> <img src='G_7.jpg' height='90'> <img src='G_1.jpg' height='90'> <img src='G_4.jpg' height='90'>","null","Learning example 1","",""
"","","","","","html-button-response","146","282476","0.0-121.0-0.0-0.0","12","1","2025-02-02 02:58:54","bc01a2b6f61d06f6604adb8657495020","76.218.23.63","Mozilla/5.0 (Windows NT 10.0; Win64; x64; rv:134.0) Gecko/20100101 Firefox/134.0","","Firefox","134.0","Windows","10.0","https://app.prolific.com/","en-US,en;q=0.5","60fe08ddc8e72aef56771482","679edb085803f58d6bbd31ca","679edf585a3632dbd83c4e98","","916","<img id='swapped'  src='G_5.jpg' height='90'> <img id='swapped'  src='G_2.jpg' height='90'> <img   src='G_3.jpg' height='90'> <img src='G_6.jpg' height='90'> <img src='G_8.jpg' height='90'> <img src='G_7.jpg' height='90'> <img src='G_1.jpg' height='90'> <img src='G_4.jpg' height='90'>","0","Learning example 1","",""
"","","","","","html-button-response","147","282996","0.0-121.1-0.1-0.1","12","1","2025-02-02 02:58:54","bc01a2b6f61d06f6604adb8657495020","76.218.23.63","Mozilla/5.0 (Windows NT 10.0; Win64; x64; rv:134.0) Gecko/20100101 Firefox/134.0","","Firefox","134.0","Windows","10.0","https://app.prolific.com/","en-US,en;q=0.5","60fe08ddc8e72aef56771482","679edb085803f58d6bbd31ca","679edf585a3632dbd83c4e98","","514","<img id='swapped'  src='G_5.jpg' height='90'> <img id='swapped'  src='G_2.jpg' height='90'> <img   src='G_3.jpg' height='90'> <img src='G_6.jpg' height='90'> <img src='G_8.jpg' height='90'> <img src='G_7.jpg' height='90'> <img src='G_1.jpg' height='90'> <img src='G_4.jpg' height='90'>","1","Learning example 1","",""
"","","","","","html-button-response","148","283210","0.0-122.0","12","1","2025-02-02 02:58:54","bc01a2b6f61d06f6604adb8657495020","76.218.23.63","Mozilla/5.0 (Windows NT 10.0; Win64; x64; rv:134.0) Gecko/20100101 Firefox/134.0","","Firefox","134.0","Windows","10.0","https://app.prolific.com/","en-US,en;q=0.5","60fe08ddc8e72aef56771482","679edb085803f58d6bbd31ca","679edf585a3632dbd83c4e98","","null","<img   src='G_5.jpg' height='90'> <img   src='G_2.jpg' height='90'> <img   src='G_3.jpg' height='90'> <img src='G_6.jpg' height='90'> <img src='G_8.jpg' height='90'> <img src='G_7.jpg' height='90'> <img src='G_1.jpg' height='90'> <img src='G_4.jpg' height='90'>","null","Learning example 1","",""
"","","","","","html-button-response","149","283619","0.0-123.0","12","1","2025-02-02 02:58:54","bc01a2b6f61d06f6604adb8657495020","76.218.23.63","Mozilla/5.0 (Windows NT 10.0; Win64; x64; rv:134.0) Gecko/20100101 Firefox/134.0","","Firefox","134.0","Windows","10.0","https://app.prolific.com/","en-US,en;q=0.5","60fe08ddc8e72aef56771482","679edb085803f58d6bbd31ca","679edf585a3632dbd83c4e98","","null","<img   src='G_5.jpg' height='90'> <img   src='G_2.jpg' height='90'> <img id='selected'   src='G_3.jpg' height='90'> <img src='G_6.jpg' height='90'> <img src='G_8.jpg' height='90'> <img src='G_7.jpg' height='90'> <img src='G_1.jpg' height='90'> <img src='G_4.jpg' height='90'>","null","Learning example 1","",""
"","","","","","html-button-response","150","283939","0.0-124.0","12","1","2025-02-02 02:58:54","bc01a2b6f61d06f6604adb8657495020","76.218.23.63","Mozilla/5.0 (Windows NT 10.0; Win64; x64; rv:134.0) Gecko/20100101 Firefox/134.0","","Firefox","134.0","Windows","10.0","https://app.prolific.com/","en-US,en;q=0.5","60fe08ddc8e72aef56771482","679edb085803f58d6bbd31ca","679edf585a3632dbd83c4e98","","null","<img   src='G_5.jpg' height='90'> <img   src='G_2.jpg' height='90'> <img id='selected'   src='G_3.jpg' height='90'> <img id='selected' src='G_6.jpg' height='90'> <img src='G_8.jpg' height='90'> <img src='G_7.jpg' height='90'> <img src='G_1.jpg' height='90'> <img src='G_4.jpg' height='90'>","null","Learning example 1","",""
"","","","","","html-button-response","151","284249","0.0-125.0","12","1","2025-02-02 02:58:54","bc01a2b6f61d06f6604adb8657495020","76.218.23.63","Mozilla/5.0 (Windows NT 10.0; Win64; x64; rv:134.0) Gecko/20100101 Firefox/134.0","","Firefox","134.0","Windows","10.0","https://app.prolific.com/","en-US,en;q=0.5","60fe08ddc8e72aef56771482","679edb085803f58d6bbd31ca","679edf585a3632dbd83c4e98","","null","<img   src='G_5.jpg' height='90'> <img   src='G_2.jpg' height='90'> <img id='swapped' src='G_6.jpg' height='90'> <img id='swapped'   src='G_3.jpg' height='90'> <img src='G_8.jpg' height='90'> <img src='G_7.jpg' height='90'> <img src='G_1.jpg' height='90'> <img src='G_4.jpg' height='90'>","null","Learning example 1","",""
"","","","","","html-button-response","152","284887","0.0-126.0-0.0-0.0","12","1","2025-02-02 02:58:54","bc01a2b6f61d06f6604adb8657495020","76.218.23.63","Mozilla/5.0 (Windows NT 10.0; Win64; x64; rv:134.0) Gecko/20100101 Firefox/134.0","","Firefox","134.0","Windows","10.0","https://app.prolific.com/","en-US,en;q=0.5","60fe08ddc8e72aef56771482","679edb085803f58d6bbd31ca","679edf585a3632dbd83c4e98","","634","<img   src='G_5.jpg' height='90'> <img   src='G_2.jpg' height='90'> <img id='swapped' src='G_6.jpg' height='90'> <img id='swapped'   src='G_3.jpg' height='90'> <img src='G_8.jpg' height='90'> <img src='G_7.jpg' height='90'> <img src='G_1.jpg' height='90'> <img src='G_4.jpg' height='90'>","2","Learning example 1","",""
"","","","","","html-button-response","153","285308","0.0-126.1-0.1-0.1","12","1","2025-02-02 02:58:54","bc01a2b6f61d06f6604adb8657495020","76.218.23.63","Mozilla/5.0 (Windows NT 10.0; Win64; x64; rv:134.0) Gecko/20100101 Firefox/134.0","","Firefox","134.0","Windows","10.0","https://app.prolific.com/","en-US,en;q=0.5","60fe08ddc8e72aef56771482","679edb085803f58d6bbd31ca","679edf585a3632dbd83c4e98","","416","<img   src='G_5.jpg' height='90'> <img   src='G_2.jpg' height='90'> <img id='swapped' src='G_6.jpg' height='90'> <img id='swapped'   src='G_3.jpg' height='90'> <img src='G_8.jpg' height='90'> <img src='G_7.jpg' height='90'> <img src='G_1.jpg' height='90'> <img src='G_4.jpg' height='90'>","3","Learning example 1","",""
