"success","timeout","failed_images","failed_audio","failed_video","trial_type","trial_index","time_elapsed","internal_node_id","run_id","condition","recorded_at","source_code_version","ip","user_agent","device","browser","browser_version","platform","platform_version","referer","accept_language","PROLIFIC_PID","STUDY_ID","SESSION_ID","view_history","rt","stimulus","response","phase","question_order","presented_choices"
"true","false","[]","[]","[]","preload","0","132","0.0-0.0","13","1","2025-02-02 02:59:28","bc01a2b6f61d06f6604adb8657495020","69.249.128.209","Mozilla/5.0 (Windows NT 10.0; Win64; x64) AppleWebKit/537.36 (KHTML, like Gecko) Chrome/132.0.0.0 Safari/537.36","WebKit","Chrome","132.0.0.0","Windows","10.0","https://app.prolific.com/","en-US,en;q=0.9","6442842843aab883445d6708","679edb085803f58d6bbd31ca","679edf70b8700caeeac4201c","","","","","","",""
"","","","","","instructions","1","38382","0.0-1.0","13","1","2025-02-02 02:59:28","bc01a2b6f61d06f6604adb8657495020","69.249.128.209","Mozilla/5.0 (Windows NT 10.0; Win64; x64) AppleWebKit/537.36 (KHTML, like Gecko) Chrome/132.0.0.0 Safari/537.36","WebKit","Chrome","132.0.0.0","Windows","10.0","https://app.prolific.com/","en-US,en;q=0.9","6442842843aab883445d6708","679edb085803f58d6bbd31ca","679edf70b8700caeeac4201c","[{""page_index"":0,""viewing_time"":38248}]","38249","","","","",""
"","","","","","html-keyboard-response","2","38891","0.0-2.0","13","1","2025-02-02 02:59:28","bc01a2b6f61d06f6604adb8657495020","69.249.128.209","Mozilla/5.0 (Windows NT 10.0; Win64; x64) AppleWebKit/537.36 (KHTML, like Gecko) Chrome/132.0.0.0 Safari/537.36","WebKit","Chrome","132.0.0.0","Windows","10.0","https://app.prolific.com/","en-US,en;q=0.9","6442842843aab883445d6708","679edb085803f58d6bbd31ca","679edf70b8700caeeac4201c","","null","<p> + <p/>","null","","",""
"","","","","","instructions","3","74182","0.0-3.0","13","1","2025-02-02 02:59:28","bc01a2b6f61d06f6604adb8657495020","69.249.128.209","Mozilla/5.0 (Windows NT 10.0; Win64; x64) AppleWebKit/537.36 (KHTML, like Gecko) Chrome/132.0.0.0 Safari/537.36","WebKit","Chrome","132.0.0.0","Windows","10.0","https://app.prolific.com/","en-US,en;q=0.9","6442842843aab883445d6708","679edb085803f58d6bbd31ca","679edf70b8700caeeac4201c","[{""page_index"":0,""viewing_time"":3642},{""page_index"":1,""viewing_time"":9938},{""page_index"":2,""viewing_time"":7045},{""page_index"":3,""viewing_time"":4172},{""page_index"":4,""viewing_time"":10494}]","35290","","","","",""
"","","","","","html-button-response","4","85466","0.0-4.0-0.0-0.0","13","1","2025-02-02 02:59:28","bc01a2b6f61d06f6604adb8657495020","69.249.128.209","Mozilla/5.0 (Windows NT 10.0; Win64; x64) AppleWebKit/537.36 (KHTML, like Gecko) Chrome/132.0.0.0 Safari/537.36","WebKit","Chrome","132.0.0.0","Windows","10.0","https://app.prolific.com/","en-US,en;q=0.9","6442842843aab883445d6708","679edb085803f58d6bbd31ca","679edf70b8700caeeac4201c","","11282","","1","Intro Trial","",""
"","","","","","html-button-response","5","86117","0.0-4.1-0.1-0.1","13","1","2025-02-02 02:59:28","bc01a2b6f61d06f6604adb8657495020","69.249.128.209","Mozilla/5.0 (Windows NT 10.0; Win64; x64) AppleWebKit/537.36 (KHTML, like Gecko) Chrome/132.0.0.0 Safari/537.36","WebKit","Chrome","132.0.0.0","Windows","10.0","https://app.prolific.com/","en-US,en;q=0.9","6442842843aab883445d6708","679edb085803f58d6bbd31ca","679edf70b8700caeeac4201c","","649","","2","Intro Trial","",""
"","","","","","html-button-response","6","89950","0.0-4.2-0.2-0.2","13","1","2025-02-02 02:59:28","bc01a2b6f61d06f6604adb8657495020","69.249.128.209","Mozilla/5.0 (Windows NT 10.0; Win64; x64) AppleWebKit/537.36 (KHTML, like Gecko) Chrome/132.0.0.0 Safari/537.36","WebKit","Chrome","132.0.0.0","Windows","10.0","https://app.prolific.com/","en-US,en;q=0.9","6442842843aab883445d6708","679edb085803f58d6bbd31ca","679edf70b8700caeeac4201c","","3832","","0","Intro Trial","",""
"","","","","","html-button-response","7","91119","0.0-4.3-0.3-0.3","13","1","2025-02-02 02:59:28","bc01a2b6f61d06f6604adb8657495020","69.249.128.209","Mozilla/5.0 (Windows NT 10.0; Win64; x64) AppleWebKit/537.36 (KHTML, like Gecko) Chrome/132.0.0.0 Safari/537.36","WebKit","Chrome","132.0.0.0","Windows","10.0","https://app.prolific.com/","en-US,en;q=0.9","6442842843aab883445d6708","679edb085803f58d6bbd31ca","679edf70b8700caeeac4201c","","1167","","1","Intro Trial","",""
"","","","","","html-button-response","8","92228","0.0-4.4-0.4-0.4","13","1","2025-02-02 02:59:28","bc01a2b6f61d06f6604adb8657495020","69.249.128.209","Mozilla/5.0 (Windows NT 10.0; Win64; x64) AppleWebKit/537.36 (KHTML, like Gecko) Chrome/132.0.0.0 Safari/537.36","WebKit","Chrome","132.0.0.0","Windows","10.0","https://app.prolific.com/","en-US,en;q=0.9","6442842843aab883445d6708","679edb085803f58d6bbd31ca","679edf70b8700caeeac4201c","","1108","","1","Intro Trial","",""
"","","","","","html-button-response","9","92557","0.0-4.5-0.5-0.5","13","1","2025-02-02 02:59:28","bc01a2b6f61d06f6604adb8657495020","69.249.128.209","Mozilla/5.0 (Windows NT 10.0; Win64; x64) AppleWebKit/537.36 (KHTML, like Gecko) Chrome/132.0.0.0 Safari/537.36","WebKit","Chrome","132.0.0.0","Windows","10.0","https://app.prolific.com/","en-US,en;q=0.9","6442842843aab883445d6708","679edb085803f58d6bbd31ca","679edf70b8700caeeac4201c","","328","","2","Intro Trial","",""
"","","","","","html-button-response","10","93299","0.0-4.6-0.6-0.6","13","1","2025-02-02 02:59:28","bc01a2b6f61d06f6604adb8657495020","69.249.128.209","Mozilla/5.0 (Windows NT 10.0; Win64; x64) AppleWebKit/537.36 (KHTML, like Gecko) Chrome/132.0.0.0 Safari/537.36","WebKit","Chrome","132.0.0.0","Windows","10.0","https://app.prolific.com/","en-US,en;q=0.9","6442842843aab883445d6708","679edb085803f58d6bbd31ca","679edf70b8700caeeac4201c","","740","","2","Intro Trial","",""
"","","","","","html-button-response","11","93584","0.0-4.7-0.7-0.7","13","1","2025-02-02 02:59:28","bc01a2b6f61d06f6604adb8657495020","69.249.128.209","Mozilla/5.0 (Windows NT 10.0; Win64; x64) AppleWebKit/537.36 (KHTML, like Gecko) Chrome/132.0.0.0 Safari/537.36","WebKit","Chrome","132.0.0.0","Windows","10.0","https://app.prolific.com/","en-US,en;q=0.9","6442842843aab883445d6708","679edb085803f58d6bbd31ca","679edf70b8700caeeac4201c","","284","","3","Intro Trial","",""
"","","","","","html-button-response","12","94665","0.0-4.8-0.8-0.8","13","1","2025-02-02 02:59:28","bc01a2b6f61d06f6604adb8657495020","69.249.128.209","Mozilla/5.0 (Windows NT 10.0; Win64; x64) AppleWebKit/537.36 (KHTML, like Gecko) Chrome/132.0.0.0 Safari/537.36","WebKit","Chrome","132.0.0.0","Windows","10.0","https://app.prolific.com/","en-US,en;q=0.9","6442842843aab883445d6708","679edb085803f58d6bbd31ca","679edf70b8700caeeac4201c","","1080","","4","Intro Trial","",""
"","","","","","html-button-response","13","94936","0.0-4.9-0.9-0.9","13","1","2025-02-02 02:59:28","bc01a2b6f61d06f6604adb8657495020","69.249.128.209","Mozilla/5.0 (Windows NT 10.0; Win64; x64) AppleWebKit/537.36 (KHTML, like Gecko) Chrome/132.0.0.0 Safari/537.36","WebKit","Chrome","132.0.0.0","Windows","10.0","https://app.prolific.com/","en-US,en;q=0.9","6442842843aab883445d6708","679edb085803f58d6bbd31ca","679edf70b8700caeeac4201c","","269","","3","Intro Trial","",""
"","","","","","html-button-response","14","95992","0.0-4.10-0.10-0.10","13","1","2025-02-02 02:59:28","bc01a2b6f61d06f6604adb8657495020","69.249.128.209","Mozilla/5.0 (Windows NT 10.0; Win64; x64) AppleWebKit/537.36 (KHTML, like Gecko) Chrome/132.0.0.0 Safari/537.36","WebKit","Chrome","132.0.0.0","Windows","10.0","https://app.prolific.com/","en-US,en;q=0.9","6442842843aab883445d6708","679edb085803f58d6bbd31ca","679edf70b8700caeeac4201c","","1055","","3","Intro Trial","",""
"","","","","","html-button-response","15","96312","0.0-4.11-0.11-0.11","13","1","2025-02-02 02:59:28","bc01a2b6f61d06f6604adb8657495020","69.249.128.209","Mozilla/5.0 (Windows NT 10.0; Win64; x64) AppleWebKit/537.36 (KHTML, like Gecko) Chrome/132.0.0.0 Safari/537.36","WebKit","Chrome","132.0.0.0","Windows","10.0","https://app.prolific.com/","en-US,en;q=0.9","6442842843aab883445d6708","679edb085803f58d6bbd31ca","679edf70b8700caeeac4201c","","319","","2","Intro Trial","",""
"","","","","","html-button-response","16","97084","0.0-4.12-0.12-0.12","13","1","2025-02-02 02:59:28","bc01a2b6f61d06f6604adb8657495020","69.249.128.209","Mozilla/5.0 (Windows NT 10.0; Win64; x64) AppleWebKit/537.36 (KHTML, like Gecko) Chrome/132.0.0.0 Safari/537.36","WebKit","Chrome","132.0.0.0","Windows","10.0","https://app.prolific.com/","en-US,en;q=0.9","6442842843aab883445d6708","679edb085803f58d6bbd31ca","679edf70b8700caeeac4201c","","771","","2","Intro Trial","",""
"","","","","","html-button-response","17","97378","0.0-4.13-0.13-0.13","13","1","2025-02-02 02:59:28","bc01a2b6f61d06f6604adb8657495020","69.249.128.209","Mozilla/5.0 (Windows NT 10.0; Win64; x64) AppleWebKit/537.36 (KHTML, like Gecko) Chrome/132.0.0.0 Safari/537.36","WebKit","Chrome","132.0.0.0","Windows","10.0","https://app.prolific.com/","en-US,en;q=0.9","6442842843aab883445d6708","679edb085803f58d6bbd31ca","679edf70b8700caeeac4201c","","293","","1","Intro Trial","",""
"","","","","","html-button-response","18","98796","0.0-4.14-0.14-0.14","13","1","2025-02-02 02:59:28","bc01a2b6f61d06f6604adb8657495020","69.249.128.209","Mozilla/5.0 (Windows NT 10.0; Win64; x64) AppleWebKit/537.36 (KHTML, like Gecko) Chrome/132.0.0.0 Safari/537.36","WebKit","Chrome","132.0.0.0","Windows","10.0","https://app.prolific.com/","en-US,en;q=0.9","6442842843aab883445d6708","679edb085803f58d6bbd31ca","679edf70b8700caeeac4201c","","1416","","0","Intro Trial","",""
"","","","","","html-button-response","19","99099","0.0-4.15-0.15-0.15","13","1","2025-02-02 02:59:28","bc01a2b6f61d06f6604adb8657495020","69.249.128.209","Mozilla/5.0 (Windows NT 10.0; Win64; x64) AppleWebKit/537.36 (KHTML, like Gecko) Chrome/132.0.0.0 Safari/537.36","WebKit","Chrome","132.0.0.0","Windows","10.0","https://app.prolific.com/","en-US,en;q=0.9","6442842843aab883445d6708","679edb085803f58d6bbd31ca","679edf70b8700caeeac4201c","","302","","1","Intro Trial","",""
"","","","","","html-button-response","20","113221","0.0-4.16-0.16-0.16","13","1","2025-02-02 02:59:28","bc01a2b6f61d06f6604adb8657495020","69.249.128.209","Mozilla/5.0 (Windows NT 10.0; Win64; x64) AppleWebKit/537.36 (KHTML, like Gecko) Chrome/132.0.0.0 Safari/537.36","WebKit","Chrome","132.0.0.0","Windows","10.0","https://app.prolific.com/","en-US,en;q=0.9","6442842843aab883445d6708","679edb085803f58d6bbd31ca","679edf70b8700caeeac4201c","","14120","","4","Intro Trial","",""
"","","","","","html-button-response","21","113605","0.0-4.17-0.17-0.17","13","1","2025-02-02 02:59:28","bc01a2b6f61d06f6604adb8657495020","69.249.128.209","Mozilla/5.0 (Windows NT 10.0; Win64; x64) AppleWebKit/537.36 (KHTML, like Gecko) Chrome/132.0.0.0 Safari/537.36","WebKit","Chrome","132.0.0.0","Windows","10.0","https://app.prolific.com/","en-US,en;q=0.9","6442842843aab883445d6708","679edb085803f58d6bbd31ca","679edf70b8700caeeac4201c","","383","","3","Intro Trial","",""
"","","","","","html-button-response","22","115141","0.0-4.18-0.18-0.18","13","1","2025-02-02 02:59:28","bc01a2b6f61d06f6604adb8657495020","69.249.128.209","Mozilla/5.0 (Windows NT 10.0; Win64; x64) AppleWebKit/537.36 (KHTML, like Gecko) Chrome/132.0.0.0 Safari/537.36","WebKit","Chrome","132.0.0.0","Windows","10.0","https://app.prolific.com/","en-US,en;q=0.9","6442842843aab883445d6708","679edb085803f58d6bbd31ca","679edf70b8700caeeac4201c","","1534","","2","Intro Trial","",""
"","","","","","html-button-response","23","116478","0.0-4.19-0.19-0.19","13","1","2025-02-02 02:59:28","bc01a2b6f61d06f6604adb8657495020","69.249.128.209","Mozilla/5.0 (Windows NT 10.0; Win64; x64) AppleWebKit/537.36 (KHTML, like Gecko) Chrome/132.0.0.0 Safari/537.36","WebKit","Chrome","132.0.0.0","Windows","10.0","https://app.prolific.com/","en-US,en;q=0.9","6442842843aab883445d6708","679edb085803f58d6bbd31ca","679edf70b8700caeeac4201c","","1335","","1","Intro Trial","",""
"","","","","","html-button-response","24","117152","0.0-4.20-0.20-0.20","13","1","2025-02-02 02:59:28","bc01a2b6f61d06f6604adb8657495020","69.249.128.209","Mozilla/5.0 (Windows NT 10.0; Win64; x64) AppleWebKit/537.36 (KHTML, like Gecko) Chrome/132.0.0.0 Safari/537.36","WebKit","Chrome","132.0.0.0","Windows","10.0","https://app.prolific.com/","en-US,en;q=0.9","6442842843aab883445d6708","679edb085803f58d6bbd31ca","679edf70b8700caeeac4201c","","673","","2","Intro Trial","",""
"","","","","","html-button-response","25","117595","0.0-4.21-0.21-0.21","13","1","2025-02-02 02:59:28","bc01a2b6f61d06f6604adb8657495020","69.249.128.209","Mozilla/5.0 (Windows NT 10.0; Win64; x64) AppleWebKit/537.36 (KHTML, like Gecko) Chrome/132.0.0.0 Safari/537.36","WebKit","Chrome","132.0.0.0","Windows","10.0","https://app.prolific.com/","en-US,en;q=0.9","6442842843aab883445d6708","679edb085803f58d6bbd31ca","679edf70b8700caeeac4201c","","442","","3","Intro Trial","",""
"","","","","","html-button-response","26","118544","0.0-4.22-0.22-0.22","13","1","2025-02-02 02:59:28","bc01a2b6f61d06f6604adb8657495020","69.249.128.209","Mozilla/5.0 (Windows NT 10.0; Win64; x64) AppleWebKit/537.36 (KHTML, like Gecko) Chrome/132.0.0.0 Safari/537.36","WebKit","Chrome","132.0.0.0","Windows","10.0","https://app.prolific.com/","en-US,en;q=0.9","6442842843aab883445d6708","679edb085803f58d6bbd31ca","679edf70b8700caeeac4201c","","947","","0","Intro Trial","",""
"","","","","","html-button-response","27","118902","0.0-4.23-0.23-0.23","13","1","2025-02-02 02:59:28","bc01a2b6f61d06f6604adb8657495020","69.249.128.209","Mozilla/5.0 (Windows NT 10.0; Win64; x64) AppleWebKit/537.36 (KHTML, like Gecko) Chrome/132.0.0.0 Safari/537.36","WebKit","Chrome","132.0.0.0","Windows","10.0","https://app.prolific.com/","en-US,en;q=0.9","6442842843aab883445d6708","679edb085803f58d6bbd31ca","679edf70b8700caeeac4201c","","357","","1","Intro Trial","",""
"","","","","","html-button-response","28","119445","0.0-4.24-0.24-0.24","13","1","2025-02-02 02:59:28","bc01a2b6f61d06f6604adb8657495020","69.249.128.209","Mozilla/5.0 (Windows NT 10.0; Win64; x64) AppleWebKit/537.36 (KHTML, like Gecko) Chrome/132.0.0.0 Safari/537.36","WebKit","Chrome","132.0.0.0","Windows","10.0","https://app.prolific.com/","en-US,en;q=0.9","6442842843aab883445d6708","679edb085803f58d6bbd31ca","679edf70b8700caeeac4201c","","542","","1","Intro Trial","",""
"","","","","","html-button-response","29","119729","0.0-4.25-0.25-0.25","13","1","2025-02-02 02:59:28","bc01a2b6f61d06f6604adb8657495020","69.249.128.209","Mozilla/5.0 (Windows NT 10.0; Win64; x64) AppleWebKit/537.36 (KHTML, like Gecko) Chrome/132.0.0.0 Safari/537.36","WebKit","Chrome","132.0.0.0","Windows","10.0","https://app.prolific.com/","en-US,en;q=0.9","6442842843aab883445d6708","679edb085803f58d6bbd31ca","679edf70b8700caeeac4201c","","283","","0","Intro Trial","",""
"","","","","","html-button-response","30","121179","0.0-4.26-0.26-0.26","13","1","2025-02-02 02:59:28","bc01a2b6f61d06f6604adb8657495020","69.249.128.209","Mozilla/5.0 (Windows NT 10.0; Win64; x64) AppleWebKit/537.36 (KHTML, like Gecko) Chrome/132.0.0.0 Safari/537.36","WebKit","Chrome","132.0.0.0","Windows","10.0","https://app.prolific.com/","en-US,en;q=0.9","6442842843aab883445d6708","679edb085803f58d6bbd31ca","679edf70b8700caeeac4201c","","1448","","5","Intro Trial","",""
"","","","","","html-keyboard-response","31","130946","0.0-5.0","13","1","2025-02-02 02:59:28","bc01a2b6f61d06f6604adb8657495020","69.249.128.209","Mozilla/5.0 (Windows NT 10.0; Win64; x64) AppleWebKit/537.36 (KHTML, like Gecko) Chrome/132.0.0.0 Safari/537.36","WebKit","Chrome","132.0.0.0","Windows","10.0","https://app.prolific.com/","en-US,en;q=0.9","6442842843aab883445d6708","679edb085803f58d6bbd31ca","679edf70b8700caeeac4201c","","9765","[""You sorted correctly by using the balance 13 times. <br><br> <img src='G_5.jpg' height='90'><img src='G_2.jpg' height='90'><img src='G_3.jpg' height='90'><img src='G_1.jpg' height='90'><img src='G_4.jpg' height='90'><br><br> Your final order is 1,2,3,4,5<br><br><br>Omgne Sort in this game will allow you to sort correctly by using the balance 8 times. Press Enter to learn it!""]","enter","","",""
"","","","","","html-keyboard-response","32","135815","0.0-6.0","13","1","2025-02-02 02:59:28","bc01a2b6f61d06f6604adb8657495020","69.249.128.209","Mozilla/5.0 (Windows NT 10.0; Win64; x64) AppleWebKit/537.36 (KHTML, like Gecko) Chrome/132.0.0.0 Safari/537.36","WebKit","Chrome","132.0.0.0","Windows","10.0","https://app.prolific.com/","en-US,en;q=0.9","6442842843aab883445d6708","679edb085803f58d6bbd31ca","679edf70b8700caeeac4201c","","4868","<p>Welcome to the learning phase! <br><br> You will learn by six examples. The following learning trials will not be used to calculate your performance. <br><br> Press Enter to continue.<p/>","enter","","",""
"","","","","","html-keyboard-response","33","140562","0.0-7.0","13","1","2025-02-02 02:59:28","bc01a2b6f61d06f6604adb8657495020","69.249.128.209","Mozilla/5.0 (Windows NT 10.0; Win64; x64) AppleWebKit/537.36 (KHTML, like Gecko) Chrome/132.0.0.0 Safari/537.36","WebKit","Chrome","132.0.0.0","Windows","10.0","https://app.prolific.com/","en-US,en;q=0.9","6442842843aab883445d6708","679edb085803f58d6bbd31ca","679edf70b8700caeeac4201c","","4746","[""Example 1<br><br>You will watch Omnge Sort in action. Try to identify any patterns in the comparisons made by this method. <br><br>Press Enter to continue.""]","enter","","",""
"","","","","","html-keyboard-response","34","141068","0.0-8.0","13","1","2025-02-02 02:59:28","bc01a2b6f61d06f6604adb8657495020","69.249.128.209","Mozilla/5.0 (Windows NT 10.0; Win64; x64) AppleWebKit/537.36 (KHTML, like Gecko) Chrome/132.0.0.0 Safari/537.36","WebKit","Chrome","132.0.0.0","Windows","10.0","https://app.prolific.com/","en-US,en;q=0.9","6442842843aab883445d6708","679edb085803f58d6bbd31ca","679edf70b8700caeeac4201c","","null","<img id='selected' src='G_3.jpg' height='90'> <img src='G_5.jpg' height='90'> <img src='G_7.jpg' height='90'> <img src='G_1.jpg' height='90'> <img src='G_9.jpg' height='90'>","null","Animation0","",""
"","","","","","html-keyboard-response","35","141570","0.0-9.0","13","1","2025-02-02 02:59:28","bc01a2b6f61d06f6604adb8657495020","69.249.128.209","Mozilla/5.0 (Windows NT 10.0; Win64; x64) AppleWebKit/537.36 (KHTML, like Gecko) Chrome/132.0.0.0 Safari/537.36","WebKit","Chrome","132.0.0.0","Windows","10.0","https://app.prolific.com/","en-US,en;q=0.9","6442842843aab883445d6708","679edb085803f58d6bbd31ca","679edf70b8700caeeac4201c","","null","<img id='selected' src='G_3.jpg' height='90'> <img id='selected' src='G_5.jpg' height='90'> <img src='G_7.jpg' height='90'> <img src='G_1.jpg' height='90'> <img src='G_9.jpg' height='90'>","null","Animation0","",""
"","","","","","html-keyboard-response","36","142073","0.0-10.0","13","1","2025-02-02 02:59:28","bc01a2b6f61d06f6604adb8657495020","69.249.128.209","Mozilla/5.0 (Windows NT 10.0; Win64; x64) AppleWebKit/537.36 (KHTML, like Gecko) Chrome/132.0.0.0 Safari/537.36","WebKit","Chrome","132.0.0.0","Windows","10.0","https://app.prolific.com/","en-US,en;q=0.9","6442842843aab883445d6708","679edb085803f58d6bbd31ca","679edf70b8700caeeac4201c","","null","<img id='swapped' src='G_5.jpg' height='90'> <img id='swapped' src='G_3.jpg' height='90'> <img src='G_7.jpg' height='90'> <img src='G_1.jpg' height='90'> <img src='G_9.jpg' height='90'>","null","Animation0","",""
"","","","","","html-keyboard-response","37","142377","0.0-11.0","13","1","2025-02-02 02:59:28","bc01a2b6f61d06f6604adb8657495020","69.249.128.209","Mozilla/5.0 (Windows NT 10.0; Win64; x64) AppleWebKit/537.36 (KHTML, like Gecko) Chrome/132.0.0.0 Safari/537.36","WebKit","Chrome","132.0.0.0","Windows","10.0","https://app.prolific.com/","en-US,en;q=0.9","6442842843aab883445d6708","679edb085803f58d6bbd31ca","679edf70b8700caeeac4201c","","null","<img  src='G_5.jpg' height='90'> <img  src='G_3.jpg' height='90'> <img src='G_7.jpg' height='90'> <img src='G_1.jpg' height='90'> <img src='G_9.jpg' height='90'>","null","Animation0","",""
"","","","","","html-keyboard-response","38","142892","0.0-12.0","13","1","2025-02-02 02:59:28","bc01a2b6f61d06f6604adb8657495020","69.249.128.209","Mozilla/5.0 (Windows NT 10.0; Win64; x64) AppleWebKit/537.36 (KHTML, like Gecko) Chrome/132.0.0.0 Safari/537.36","WebKit","Chrome","132.0.0.0","Windows","10.0","https://app.prolific.com/","en-US,en;q=0.9","6442842843aab883445d6708","679edb085803f58d6bbd31ca","679edf70b8700caeeac4201c","","null","<img  src='G_5.jpg' height='90'> <img id='selected'  src='G_3.jpg' height='90'> <img src='G_7.jpg' height='90'> <img src='G_1.jpg' height='90'> <img src='G_9.jpg' height='90'>","null","Animation0","",""
"","","","","","html-keyboard-response","39","143397","0.0-13.0","13","1","2025-02-02 02:59:28","bc01a2b6f61d06f6604adb8657495020","69.249.128.209","Mozilla/5.0 (Windows NT 10.0; Win64; x64) AppleWebKit/537.36 (KHTML, like Gecko) Chrome/132.0.0.0 Safari/537.36","WebKit","Chrome","132.0.0.0","Windows","10.0","https://app.prolific.com/","en-US,en;q=0.9","6442842843aab883445d6708","679edb085803f58d6bbd31ca","679edf70b8700caeeac4201c","","null","<img  src='G_5.jpg' height='90'> <img id='selected'  src='G_3.jpg' height='90'> <img id='selected' src='G_7.jpg' height='90'> <img src='G_1.jpg' height='90'> <img src='G_9.jpg' height='90'>","null","Animation0","",""
"","","","","","html-keyboard-response","40","143912","0.0-14.0","13","1","2025-02-02 02:59:28","bc01a2b6f61d06f6604adb8657495020","69.249.128.209","Mozilla/5.0 (Windows NT 10.0; Win64; x64) AppleWebKit/537.36 (KHTML, like Gecko) Chrome/132.0.0.0 Safari/537.36","WebKit","Chrome","132.0.0.0","Windows","10.0","https://app.prolific.com/","en-US,en;q=0.9","6442842843aab883445d6708","679edb085803f58d6bbd31ca","679edf70b8700caeeac4201c","","null","<img  src='G_5.jpg' height='90'> <img id='selected'  src='G_3.jpg' height='90'> <img id='selected' src='G_7.jpg' height='90'> <img src='G_1.jpg' height='90'> <img src='G_9.jpg' height='90'>","null","Animation0","",""
"","","","","","html-keyboard-response","41","144222","0.0-15.0","13","1","2025-02-02 02:59:28","bc01a2b6f61d06f6604adb8657495020","69.249.128.209","Mozilla/5.0 (Windows NT 10.0; Win64; x64) AppleWebKit/537.36 (KHTML, like Gecko) Chrome/132.0.0.0 Safari/537.36","WebKit","Chrome","132.0.0.0","Windows","10.0","https://app.prolific.com/","en-US,en;q=0.9","6442842843aab883445d6708","679edb085803f58d6bbd31ca","679edf70b8700caeeac4201c","","null","<img  src='G_5.jpg' height='90'> <img   src='G_3.jpg' height='90'> <img  src='G_7.jpg' height='90'> <img src='G_1.jpg' height='90'> <img src='G_9.jpg' height='90'>","null","Animation0","",""
"","","","","","html-keyboard-response","42","144735","0.0-16.0","13","1","2025-02-02 02:59:28","bc01a2b6f61d06f6604adb8657495020","69.249.128.209","Mozilla/5.0 (Windows NT 10.0; Win64; x64) AppleWebKit/537.36 (KHTML, like Gecko) Chrome/132.0.0.0 Safari/537.36","WebKit","Chrome","132.0.0.0","Windows","10.0","https://app.prolific.com/","en-US,en;q=0.9","6442842843aab883445d6708","679edb085803f58d6bbd31ca","679edf70b8700caeeac4201c","","null","<img  src='G_5.jpg' height='90'> <img   src='G_3.jpg' height='90'> <img id='selected'  src='G_7.jpg' height='90'> <img src='G_1.jpg' height='90'> <img src='G_9.jpg' height='90'>","null","Animation0","",""
"","","","","","html-keyboard-response","43","145250","0.0-17.0","13","1","2025-02-02 02:59:28","bc01a2b6f61d06f6604adb8657495020","69.249.128.209","Mozilla/5.0 (Windows NT 10.0; Win64; x64) AppleWebKit/537.36 (KHTML, like Gecko) Chrome/132.0.0.0 Safari/537.36","WebKit","Chrome","132.0.0.0","Windows","10.0","https://app.prolific.com/","en-US,en;q=0.9","6442842843aab883445d6708","679edb085803f58d6bbd31ca","679edf70b8700caeeac4201c","","null","<img  src='G_5.jpg' height='90'> <img   src='G_3.jpg' height='90'> <img id='selected'  src='G_7.jpg' height='90'> <img id='selected' src='G_1.jpg' height='90'> <img src='G_9.jpg' height='90'>","null","Animation0","",""
"","","","","","html-keyboard-response","44","145766","0.0-18.0","13","1","2025-02-02 02:59:28","bc01a2b6f61d06f6604adb8657495020","69.249.128.209","Mozilla/5.0 (Windows NT 10.0; Win64; x64) AppleWebKit/537.36 (KHTML, like Gecko) Chrome/132.0.0.0 Safari/537.36","WebKit","Chrome","132.0.0.0","Windows","10.0","https://app.prolific.com/","en-US,en;q=0.9","6442842843aab883445d6708","679edb085803f58d6bbd31ca","679edf70b8700caeeac4201c","","null","<img  src='G_5.jpg' height='90'> <img   src='G_3.jpg' height='90'> <img id='selected'  src='G_7.jpg' height='90'> <img id='selected' src='G_1.jpg' height='90'> <img src='G_9.jpg' height='90'>","null","Animation0","",""
"","","","","","html-keyboard-response","45","146077","0.0-19.0","13","1","2025-02-02 02:59:28","bc01a2b6f61d06f6604adb8657495020","69.249.128.209","Mozilla/5.0 (Windows NT 10.0; Win64; x64) AppleWebKit/537.36 (KHTML, like Gecko) Chrome/132.0.0.0 Safari/537.36","WebKit","Chrome","132.0.0.0","Windows","10.0","https://app.prolific.com/","en-US,en;q=0.9","6442842843aab883445d6708","679edb085803f58d6bbd31ca","679edf70b8700caeeac4201c","","null","<img  src='G_5.jpg' height='90'> <img   src='G_3.jpg' height='90'> <img   src='G_7.jpg' height='90'> <img  src='G_1.jpg' height='90'> <img src='G_9.jpg' height='90'>","null","Animation0","",""
"","","","","","html-keyboard-response","46","146589","0.0-20.0","13","1","2025-02-02 02:59:28","bc01a2b6f61d06f6604adb8657495020","69.249.128.209","Mozilla/5.0 (Windows NT 10.0; Win64; x64) AppleWebKit/537.36 (KHTML, like Gecko) Chrome/132.0.0.0 Safari/537.36","WebKit","Chrome","132.0.0.0","Windows","10.0","https://app.prolific.com/","en-US,en;q=0.9","6442842843aab883445d6708","679edb085803f58d6bbd31ca","679edf70b8700caeeac4201c","","null","<img  src='G_5.jpg' height='90'> <img   src='G_3.jpg' height='90'> <img   src='G_7.jpg' height='90'> <img id='selected'  src='G_1.jpg' height='90'> <img src='G_9.jpg' height='90'>","null","Animation0","",""
"","","","","","html-keyboard-response","47","147101","0.0-21.0","13","1","2025-02-02 02:59:28","bc01a2b6f61d06f6604adb8657495020","69.249.128.209","Mozilla/5.0 (Windows NT 10.0; Win64; x64) AppleWebKit/537.36 (KHTML, like Gecko) Chrome/132.0.0.0 Safari/537.36","WebKit","Chrome","132.0.0.0","Windows","10.0","https://app.prolific.com/","en-US,en;q=0.9","6442842843aab883445d6708","679edb085803f58d6bbd31ca","679edf70b8700caeeac4201c","","null","<img  src='G_5.jpg' height='90'> <img   src='G_3.jpg' height='90'> <img   src='G_7.jpg' height='90'> <img id='selected'  src='G_1.jpg' height='90'> <img id='selected' src='G_9.jpg' height='90'>","null","Animation0","",""
"","","","","","html-keyboard-response","48","147612","0.0-22.0","13","1","2025-02-02 02:59:28","bc01a2b6f61d06f6604adb8657495020","69.249.128.209","Mozilla/5.0 (Windows NT 10.0; Win64; x64) AppleWebKit/537.36 (KHTML, like Gecko) Chrome/132.0.0.0 Safari/537.36","WebKit","Chrome","132.0.0.0","Windows","10.0","https://app.prolific.com/","en-US,en;q=0.9","6442842843aab883445d6708","679edb085803f58d6bbd31ca","679edf70b8700caeeac4201c","","null","<img  src='G_5.jpg' height='90'> <img   src='G_3.jpg' height='90'> <img   src='G_7.jpg' height='90'> <img id='selected'  src='G_1.jpg' height='90'> <img id='selected' src='G_9.jpg' height='90'>","null","Animation0","",""
"","","","","","html-keyboard-response","49","147922","0.0-23.0","13","1","2025-02-02 02:59:28","bc01a2b6f61d06f6604adb8657495020","69.249.128.209","Mozilla/5.0 (Windows NT 10.0; Win64; x64) AppleWebKit/537.36 (KHTML, like Gecko) Chrome/132.0.0.0 Safari/537.36","WebKit","Chrome","132.0.0.0","Windows","10.0","https://app.prolific.com/","en-US,en;q=0.9","6442842843aab883445d6708","679edb085803f58d6bbd31ca","679edf70b8700caeeac4201c","","null","<img  src='G_5.jpg' height='90'> <img   src='G_3.jpg' height='90'> <img   src='G_7.jpg' height='90'> <img   src='G_1.jpg' height='90'> <img  src='G_9.jpg' height='90'>","null","Animation0","",""
"","","","","","html-keyboard-response","50","154390","0.0-24.0","13","1","2025-02-02 02:59:28","bc01a2b6f61d06f6604adb8657495020","69.249.128.209","Mozilla/5.0 (Windows NT 10.0; Win64; x64) AppleWebKit/537.36 (KHTML, like Gecko) Chrome/132.0.0.0 Safari/537.36","WebKit","Chrome","132.0.0.0","Windows","10.0","https://app.prolific.com/","en-US,en;q=0.9","6442842843aab883445d6708","679edb085803f58d6bbd31ca","679edf70b8700caeeac4201c","","6466","[""Did you notice any patterns? <br><br>Press Enter to watch that example again and follow the steps of Omgne Sort.""]","enter","","",""
"","","","","","html-button-response","51","154807","0.0-25.0","13","1","2025-02-02 02:59:28","bc01a2b6f61d06f6604adb8657495020","69.249.128.209","Mozilla/5.0 (Windows NT 10.0; Win64; x64) AppleWebKit/537.36 (KHTML, like Gecko) Chrome/132.0.0.0 Safari/537.36","WebKit","Chrome","132.0.0.0","Windows","10.0","https://app.prolific.com/","en-US,en;q=0.9","6442842843aab883445d6708","679edb085803f58d6bbd31ca","679edf70b8700caeeac4201c","","null","<img id='selected' src='G_3.jpg' height='90'> <img src='G_5.jpg' height='90'> <img src='G_7.jpg' height='90'> <img src='G_1.jpg' height='90'> <img src='G_9.jpg' height='90'>","null","Learning example 0","",""
"","","","","","html-button-response","52","155121","0.0-26.0","13","1","2025-02-02 02:59:28","bc01a2b6f61d06f6604adb8657495020","69.249.128.209","Mozilla/5.0 (Windows NT 10.0; Win64; x64) AppleWebKit/537.36 (KHTML, like Gecko) Chrome/132.0.0.0 Safari/537.36","WebKit","Chrome","132.0.0.0","Windows","10.0","https://app.prolific.com/","en-US,en;q=0.9","6442842843aab883445d6708","679edb085803f58d6bbd31ca","679edf70b8700caeeac4201c","","null","<img id='selected' src='G_3.jpg' height='90'> <img id='selected' src='G_5.jpg' height='90'> <img src='G_7.jpg' height='90'> <img src='G_1.jpg' height='90'> <img src='G_9.jpg' height='90'>","null","Learning example 0","",""
"","","","","","html-button-response","53","155436","0.0-27.0","13","1","2025-02-02 02:59:28","bc01a2b6f61d06f6604adb8657495020","69.249.128.209","Mozilla/5.0 (Windows NT 10.0; Win64; x64) AppleWebKit/537.36 (KHTML, like Gecko) Chrome/132.0.0.0 Safari/537.36","WebKit","Chrome","132.0.0.0","Windows","10.0","https://app.prolific.com/","en-US,en;q=0.9","6442842843aab883445d6708","679edb085803f58d6bbd31ca","679edf70b8700caeeac4201c","","null","<img id='swapped' src='G_5.jpg' height='90'> <img id='swapped' src='G_3.jpg' height='90'> <img src='G_7.jpg' height='90'> <img src='G_1.jpg' height='90'> <img src='G_9.jpg' height='90'>","null","Learning example 0","",""
"","","","","","html-button-response","54","169976","0.0-28.0-0.0-0.0","13","1","2025-02-02 02:59:28","bc01a2b6f61d06f6604adb8657495020","69.249.128.209","Mozilla/5.0 (Windows NT 10.0; Win64; x64) AppleWebKit/537.36 (KHTML, like Gecko) Chrome/132.0.0.0 Safari/537.36","WebKit","Chrome","132.0.0.0","Windows","10.0","https://app.prolific.com/","en-US,en;q=0.9","6442842843aab883445d6708","679edb085803f58d6bbd31ca","679edf70b8700caeeac4201c","","14538","<img id='swapped' src='G_5.jpg' height='90'> <img id='swapped' src='G_3.jpg' height='90'> <img src='G_7.jpg' height='90'> <img src='G_1.jpg' height='90'> <img src='G_9.jpg' height='90'>","1","Learning example 0","",""
"","","","","","html-button-response","55","170374","0.0-28.1-0.1-0.1","13","1","2025-02-02 02:59:28","bc01a2b6f61d06f6604adb8657495020","69.249.128.209","Mozilla/5.0 (Windows NT 10.0; Win64; x64) AppleWebKit/537.36 (KHTML, like Gecko) Chrome/132.0.0.0 Safari/537.36","WebKit","Chrome","132.0.0.0","Windows","10.0","https://app.prolific.com/","en-US,en;q=0.9","6442842843aab883445d6708","679edb085803f58d6bbd31ca","679edf70b8700caeeac4201c","","397","<img id='swapped' src='G_5.jpg' height='90'> <img id='swapped' src='G_3.jpg' height='90'> <img src='G_7.jpg' height='90'> <img src='G_1.jpg' height='90'> <img src='G_9.jpg' height='90'>","0","Learning example 0","",""
"","","","","","html-button-response","56","170577","0.0-29.0","13","1","2025-02-02 02:59:28","bc01a2b6f61d06f6604adb8657495020","69.249.128.209","Mozilla/5.0 (Windows NT 10.0; Win64; x64) AppleWebKit/537.36 (KHTML, like Gecko) Chrome/132.0.0.0 Safari/537.36","WebKit","Chrome","132.0.0.0","Windows","10.0","https://app.prolific.com/","en-US,en;q=0.9","6442842843aab883445d6708","679edb085803f58d6bbd31ca","679edf70b8700caeeac4201c","","null","<img  src='G_5.jpg' height='90'> <img  src='G_3.jpg' height='90'> <img src='G_7.jpg' height='90'> <img src='G_1.jpg' height='90'> <img src='G_9.jpg' height='90'>","null","Learning example 0","",""
"","","","","","html-button-response","57","170984","0.0-30.0","13","1","2025-02-02 02:59:28","bc01a2b6f61d06f6604adb8657495020","69.249.128.209","Mozilla/5.0 (Windows NT 10.0; Win64; x64) AppleWebKit/537.36 (KHTML, like Gecko) Chrome/132.0.0.0 Safari/537.36","WebKit","Chrome","132.0.0.0","Windows","10.0","https://app.prolific.com/","en-US,en;q=0.9","6442842843aab883445d6708","679edb085803f58d6bbd31ca","679edf70b8700caeeac4201c","","null","<img  src='G_5.jpg' height='90'> <img id='selected'  src='G_3.jpg' height='90'> <img src='G_7.jpg' height='90'> <img src='G_1.jpg' height='90'> <img src='G_9.jpg' height='90'>","null","Learning example 0","",""
"","","","","","html-button-response","58","171295","0.0-31.0","13","1","2025-02-02 02:59:28","bc01a2b6f61d06f6604adb8657495020","69.249.128.209","Mozilla/5.0 (Windows NT 10.0; Win64; x64) AppleWebKit/537.36 (KHTML, like Gecko) Chrome/132.0.0.0 Safari/537.36","WebKit","Chrome","132.0.0.0","Windows","10.0","https://app.prolific.com/","en-US,en;q=0.9","6442842843aab883445d6708","679edb085803f58d6bbd31ca","679edf70b8700caeeac4201c","","null","<img  src='G_5.jpg' height='90'> <img id='selected'  src='G_3.jpg' height='90'> <img id='selected' src='G_7.jpg' height='90'> <img src='G_1.jpg' height='90'> <img src='G_9.jpg' height='90'>","null","Learning example 0","",""
"","","","","","html-button-response","59","171605","0.0-32.0","13","1","2025-02-02 02:59:28","bc01a2b6f61d06f6604adb8657495020","69.249.128.209","Mozilla/5.0 (Windows NT 10.0; Win64; x64) AppleWebKit/537.36 (KHTML, like Gecko) Chrome/132.0.0.0 Safari/537.36","WebKit","Chrome","132.0.0.0","Windows","10.0","https://app.prolific.com/","en-US,en;q=0.9","6442842843aab883445d6708","679edb085803f58d6bbd31ca","679edf70b8700caeeac4201c","","null","<img  src='G_5.jpg' height='90'> <img id='selected'  src='G_3.jpg' height='90'> <img id='selected' src='G_7.jpg' height='90'> <img src='G_1.jpg' height='90'> <img src='G_9.jpg' height='90'>","null","Learning example 0","",""
"","","","","","html-button-response","60","173944","0.0-33.0-0.0-0.0","13","1","2025-02-02 02:59:28","bc01a2b6f61d06f6604adb8657495020","69.249.128.209","Mozilla/5.0 (Windows NT 10.0; Win64; x64) AppleWebKit/537.36 (KHTML, like Gecko) Chrome/132.0.0.0 Safari/537.36","WebKit","Chrome","132.0.0.0","Windows","10.0","https://app.prolific.com/","en-US,en;q=0.9","6442842843aab883445d6708","679edb085803f58d6bbd31ca","679edf70b8700caeeac4201c","","2337","<img  src='G_5.jpg' height='90'> <img id='selected'  src='G_3.jpg' height='90'> <img id='selected' src='G_7.jpg' height='90'> <img src='G_1.jpg' height='90'> <img src='G_9.jpg' height='90'>","1","Learning example 0","",""
"","","","","","html-button-response","61","174545","0.0-33.1-0.1-0.1","13","1","2025-02-02 02:59:28","bc01a2b6f61d06f6604adb8657495020","69.249.128.209","Mozilla/5.0 (Windows NT 10.0; Win64; x64) AppleWebKit/537.36 (KHTML, like Gecko) Chrome/132.0.0.0 Safari/537.36","WebKit","Chrome","132.0.0.0","Windows","10.0","https://app.prolific.com/","en-US,en;q=0.9","6442842843aab883445d6708","679edb085803f58d6bbd31ca","679edf70b8700caeeac4201c","","598","<img  src='G_5.jpg' height='90'> <img id='selected'  src='G_3.jpg' height='90'> <img id='selected' src='G_7.jpg' height='90'> <img src='G_1.jpg' height='90'> <img src='G_9.jpg' height='90'>","2","Learning example 0","",""
"","","","","","html-button-response","62","174748","0.0-34.0","13","1","2025-02-02 02:59:28","bc01a2b6f61d06f6604adb8657495020","69.249.128.209","Mozilla/5.0 (Windows NT 10.0; Win64; x64) AppleWebKit/537.36 (KHTML, like Gecko) Chrome/132.0.0.0 Safari/537.36","WebKit","Chrome","132.0.0.0","Windows","10.0","https://app.prolific.com/","en-US,en;q=0.9","6442842843aab883445d6708","679edb085803f58d6bbd31ca","679edf70b8700caeeac4201c","","null","<img  src='G_5.jpg' height='90'> <img   src='G_3.jpg' height='90'> <img  src='G_7.jpg' height='90'> <img src='G_1.jpg' height='90'> <img src='G_9.jpg' height='90'>","null","Learning example 0","",""
"","","","","","html-button-response","63","175155","0.0-35.0","13","1","2025-02-02 02:59:28","bc01a2b6f61d06f6604adb8657495020","69.249.128.209","Mozilla/5.0 (Windows NT 10.0; Win64; x64) AppleWebKit/537.36 (KHTML, like Gecko) Chrome/132.0.0.0 Safari/537.36","WebKit","Chrome","132.0.0.0","Windows","10.0","https://app.prolific.com/","en-US,en;q=0.9","6442842843aab883445d6708","679edb085803f58d6bbd31ca","679edf70b8700caeeac4201c","","null","<img  src='G_5.jpg' height='90'> <img   src='G_3.jpg' height='90'> <img id='selected'  src='G_7.jpg' height='90'> <img src='G_1.jpg' height='90'> <img src='G_9.jpg' height='90'>","null","Learning example 0","",""
"","","","","","html-button-response","64","175466","0.0-36.0","13","1","2025-02-02 02:59:28","bc01a2b6f61d06f6604adb8657495020","69.249.128.209","Mozilla/5.0 (Windows NT 10.0; Win64; x64) AppleWebKit/537.36 (KHTML, like Gecko) Chrome/132.0.0.0 Safari/537.36","WebKit","Chrome","132.0.0.0","Windows","10.0","https://app.prolific.com/","en-US,en;q=0.9","6442842843aab883445d6708","679edb085803f58d6bbd31ca","679edf70b8700caeeac4201c","","null","<img  src='G_5.jpg' height='90'> <img   src='G_3.jpg' height='90'> <img id='selected'  src='G_7.jpg' height='90'> <img id='selected' src='G_1.jpg' height='90'> <img src='G_9.jpg' height='90'>","null","Learning example 0","",""
"","","","","","html-button-response","65","175777","0.0-37.0","13","1","2025-02-02 02:59:28","bc01a2b6f61d06f6604adb8657495020","69.249.128.209","Mozilla/5.0 (Windows NT 10.0; Win64; x64) AppleWebKit/537.36 (KHTML, like Gecko) Chrome/132.0.0.0 Safari/537.36","WebKit","Chrome","132.0.0.0","Windows","10.0","https://app.prolific.com/","en-US,en;q=0.9","6442842843aab883445d6708","679edb085803f58d6bbd31ca","679edf70b8700caeeac4201c","","null","<img  src='G_5.jpg' height='90'> <img   src='G_3.jpg' height='90'> <img id='selected'  src='G_7.jpg' height='90'> <img id='selected' src='G_1.jpg' height='90'> <img src='G_9.jpg' height='90'>","null","Learning example 0","",""
"","","","","","html-button-response","66","176636","0.0-38.0-0.0-0.0","13","1","2025-02-02 02:59:28","bc01a2b6f61d06f6604adb8657495020","69.249.128.209","Mozilla/5.0 (Windows NT 10.0; Win64; x64) AppleWebKit/537.36 (KHTML, like Gecko) Chrome/132.0.0.0 Safari/537.36","WebKit","Chrome","132.0.0.0","Windows","10.0","https://app.prolific.com/","en-US,en;q=0.9","6442842843aab883445d6708","679edb085803f58d6bbd31ca","679edf70b8700caeeac4201c","","856","<img  src='G_5.jpg' height='90'> <img   src='G_3.jpg' height='90'> <img id='selected'  src='G_7.jpg' height='90'> <img id='selected' src='G_1.jpg' height='90'> <img src='G_9.jpg' height='90'>","2","Learning example 0","",""
"","","","","","html-button-response","67","178062","0.0-38.1-0.1-0.1","13","1","2025-02-02 02:59:28","bc01a2b6f61d06f6604adb8657495020","69.249.128.209","Mozilla/5.0 (Windows NT 10.0; Win64; x64) AppleWebKit/537.36 (KHTML, like Gecko) Chrome/132.0.0.0 Safari/537.36","WebKit","Chrome","132.0.0.0","Windows","10.0","https://app.prolific.com/","en-US,en;q=0.9","6442842843aab883445d6708","679edb085803f58d6bbd31ca","679edf70b8700caeeac4201c","","1424","<img  src='G_5.jpg' height='90'> <img   src='G_3.jpg' height='90'> <img id='selected'  src='G_7.jpg' height='90'> <img id='selected' src='G_1.jpg' height='90'> <img src='G_9.jpg' height='90'>","3","Learning example 0","",""
"","","","","","html-button-response","68","178265","0.0-39.0","13","1","2025-02-02 02:59:28","bc01a2b6f61d06f6604adb8657495020","69.249.128.209","Mozilla/5.0 (Windows NT 10.0; Win64; x64) AppleWebKit/537.36 (KHTML, like Gecko) Chrome/132.0.0.0 Safari/537.36","WebKit","Chrome","132.0.0.0","Windows","10.0","https://app.prolific.com/","en-US,en;q=0.9","6442842843aab883445d6708","679edb085803f58d6bbd31ca","679edf70b8700caeeac4201c","","null","<img  src='G_5.jpg' height='90'> <img   src='G_3.jpg' height='90'> <img   src='G_7.jpg' height='90'> <img  src='G_1.jpg' height='90'> <img src='G_9.jpg' height='90'>","null","Learning example 0","",""
"","","","","","html-button-response","69","178673","0.0-40.0","13","1","2025-02-02 02:59:28","bc01a2b6f61d06f6604adb8657495020","69.249.128.209","Mozilla/5.0 (Windows NT 10.0; Win64; x64) AppleWebKit/537.36 (KHTML, like Gecko) Chrome/132.0.0.0 Safari/537.36","WebKit","Chrome","132.0.0.0","Windows","10.0","https://app.prolific.com/","en-US,en;q=0.9","6442842843aab883445d6708","679edb085803f58d6bbd31ca","679edf70b8700caeeac4201c","","null","<img  src='G_5.jpg' height='90'> <img   src='G_3.jpg' height='90'> <img   src='G_7.jpg' height='90'> <img id='selected'  src='G_1.jpg' height='90'> <img src='G_9.jpg' height='90'>","null","Learning example 0","",""
"","","","","","html-button-response","70","178985","0.0-41.0","13","1","2025-02-02 02:59:28","bc01a2b6f61d06f6604adb8657495020","69.249.128.209","Mozilla/5.0 (Windows NT 10.0; Win64; x64) AppleWebKit/537.36 (KHTML, like Gecko) Chrome/132.0.0.0 Safari/537.36","WebKit","Chrome","132.0.0.0","Windows","10.0","https://app.prolific.com/","en-US,en;q=0.9","6442842843aab883445d6708","679edb085803f58d6bbd31ca","679edf70b8700caeeac4201c","","null","<img  src='G_5.jpg' height='90'> <img   src='G_3.jpg' height='90'> <img   src='G_7.jpg' height='90'> <img id='selected'  src='G_1.jpg' height='90'> <img id='selected' src='G_9.jpg' height='90'>","null","Learning example 0","",""
"","","","","","html-button-response","71","179287","0.0-42.0","13","1","2025-02-02 02:59:28","bc01a2b6f61d06f6604adb8657495020","69.249.128.209","Mozilla/5.0 (Windows NT 10.0; Win64; x64) AppleWebKit/537.36 (KHTML, like Gecko) Chrome/132.0.0.0 Safari/537.36","WebKit","Chrome","132.0.0.0","Windows","10.0","https://app.prolific.com/","en-US,en;q=0.9","6442842843aab883445d6708","679edb085803f58d6bbd31ca","679edf70b8700caeeac4201c","","null","<img  src='G_5.jpg' height='90'> <img   src='G_3.jpg' height='90'> <img   src='G_7.jpg' height='90'> <img id='selected'  src='G_1.jpg' height='90'> <img id='selected' src='G_9.jpg' height='90'>","null","Learning example 0","",""
"","","","","","html-button-response","72","179843","0.0-43.0-0.0-0.0","13","1","2025-02-02 02:59:28","bc01a2b6f61d06f6604adb8657495020","69.249.128.209","Mozilla/5.0 (Windows NT 10.0; Win64; x64) AppleWebKit/537.36 (KHTML, like Gecko) Chrome/132.0.0.0 Safari/537.36","WebKit","Chrome","132.0.0.0","Windows","10.0","https://app.prolific.com/","en-US,en;q=0.9","6442842843aab883445d6708","679edb085803f58d6bbd31ca","679edf70b8700caeeac4201c","","554","<img  src='G_5.jpg' height='90'> <img   src='G_3.jpg' height='90'> <img   src='G_7.jpg' height='90'> <img id='selected'  src='G_1.jpg' height='90'> <img id='selected' src='G_9.jpg' height='90'>","3","Learning example 0","",""
"","","","","","html-button-response","73","182275","0.0-43.1-0.1-0.1","13","1","2025-02-02 02:59:28","bc01a2b6f61d06f6604adb8657495020","69.249.128.209","Mozilla/5.0 (Windows NT 10.0; Win64; x64) AppleWebKit/537.36 (KHTML, like Gecko) Chrome/132.0.0.0 Safari/537.36","WebKit","Chrome","132.0.0.0","Windows","10.0","https://app.prolific.com/","en-US,en;q=0.9","6442842843aab883445d6708","679edb085803f58d6bbd31ca","679edf70b8700caeeac4201c","","2429","<img  src='G_5.jpg' height='90'> <img   src='G_3.jpg' height='90'> <img   src='G_7.jpg' height='90'> <img id='selected'  src='G_1.jpg' height='90'> <img id='selected' src='G_9.jpg' height='90'>","4","Learning example 0","",""
"","","","","","html-button-response","74","182478","0.0-44.0","13","1","2025-02-02 02:59:28","bc01a2b6f61d06f6604adb8657495020","69.249.128.209","Mozilla/5.0 (Windows NT 10.0; Win64; x64) AppleWebKit/537.36 (KHTML, like Gecko) Chrome/132.0.0.0 Safari/537.36","WebKit","Chrome","132.0.0.0","Windows","10.0","https://app.prolific.com/","en-US,en;q=0.9","6442842843aab883445d6708","679edb085803f58d6bbd31ca","679edf70b8700caeeac4201c","","null","<img  src='G_5.jpg' height='90'> <img   src='G_3.jpg' height='90'> <img   src='G_7.jpg' height='90'> <img   src='G_1.jpg' height='90'> <img  src='G_9.jpg' height='90'>","null","Learning example 0","",""
"","","","","","html-keyboard-response","75","191287","0.0-45.0","13","1","2025-02-02 02:59:28","bc01a2b6f61d06f6604adb8657495020","69.249.128.209","Mozilla/5.0 (Windows NT 10.0; Win64; x64) AppleWebKit/537.36 (KHTML, like Gecko) Chrome/132.0.0.0 Safari/537.36","WebKit","Chrome","132.0.0.0","Windows","10.0","https://app.prolific.com/","en-US,en;q=0.9","6442842843aab883445d6708","679edb085803f58d6bbd31ca","679edf70b8700caeeac4201c","","8808","[""Final order was 1,2,3,4,5. The initial order was 2,1,3,4,5.<br>It took 1 swaps to sort it correctly with Omgne Sort. <br><br>Press Enter to continue.""]","enter","","",""
"","","","","","html-keyboard-response","76","197989","0.0-46.0","13","1","2025-02-02 02:59:28","bc01a2b6f61d06f6604adb8657495020","69.249.128.209","Mozilla/5.0 (Windows NT 10.0; Win64; x64) AppleWebKit/537.36 (KHTML, like Gecko) Chrome/132.0.0.0 Safari/537.36","WebKit","Chrome","132.0.0.0","Windows","10.0","https://app.prolific.com/","en-US,en;q=0.9","6442842843aab883445d6708","679edb085803f58d6bbd31ca","679edf70b8700caeeac4201c","","6700","[""Example 2<br><br>You will watch Omnge Sort in action. Try to identify any patterns in the comparisons made by this method. <br><br>Press Enter to continue.""]","enter","","",""
"","","","","","html-keyboard-response","77","198495","0.0-47.0","13","1","2025-02-02 02:59:28","bc01a2b6f61d06f6604adb8657495020","69.249.128.209","Mozilla/5.0 (Windows NT 10.0; Win64; x64) AppleWebKit/537.36 (KHTML, like Gecko) Chrome/132.0.0.0 Safari/537.36","WebKit","Chrome","132.0.0.0","Windows","10.0","https://app.prolific.com/","en-US,en;q=0.9","6442842843aab883445d6708","679edb085803f58d6bbd31ca","679edf70b8700caeeac4201c","","null","<img id='selected' src='G_1.jpg' height='90'> <img src='G_3.jpg' height='90'> <img src='G_4.jpg' height='90'> <img src='G_2.jpg' height='90'> <img src='G_7.jpg' height='90'> <img src='G_5.jpg' height='90'> <img src='G_8.jpg' height='90'> <img src='G_6.jpg' height='90'>","null","Animation1","",""
"","","","","","html-keyboard-response","78","199009","0.0-48.0","13","1","2025-02-02 02:59:28","bc01a2b6f61d06f6604adb8657495020","69.249.128.209","Mozilla/5.0 (Windows NT 10.0; Win64; x64) AppleWebKit/537.36 (KHTML, like Gecko) Chrome/132.0.0.0 Safari/537.36","WebKit","Chrome","132.0.0.0","Windows","10.0","https://app.prolific.com/","en-US,en;q=0.9","6442842843aab883445d6708","679edb085803f58d6bbd31ca","679edf70b8700caeeac4201c","","null","<img id='selected' src='G_1.jpg' height='90'> <img id='selected' src='G_3.jpg' height='90'> <img src='G_4.jpg' height='90'> <img src='G_2.jpg' height='90'> <img src='G_7.jpg' height='90'> <img src='G_5.jpg' height='90'> <img src='G_8.jpg' height='90'> <img src='G_6.jpg' height='90'>","null","Animation1","",""
"","","","","","html-keyboard-response","79","199524","0.0-49.0","13","1","2025-02-02 02:59:28","bc01a2b6f61d06f6604adb8657495020","69.249.128.209","Mozilla/5.0 (Windows NT 10.0; Win64; x64) AppleWebKit/537.36 (KHTML, like Gecko) Chrome/132.0.0.0 Safari/537.36","WebKit","Chrome","132.0.0.0","Windows","10.0","https://app.prolific.com/","en-US,en;q=0.9","6442842843aab883445d6708","679edb085803f58d6bbd31ca","679edf70b8700caeeac4201c","","null","<img id='selected' src='G_1.jpg' height='90'> <img id='selected' src='G_3.jpg' height='90'> <img src='G_4.jpg' height='90'> <img src='G_2.jpg' height='90'> <img src='G_7.jpg' height='90'> <img src='G_5.jpg' height='90'> <img src='G_8.jpg' height='90'> <img src='G_6.jpg' height='90'>","null","Animation1","",""
"","","","","","html-keyboard-response","80","199833","0.0-50.0","13","1","2025-02-02 02:59:28","bc01a2b6f61d06f6604adb8657495020","69.249.128.209","Mozilla/5.0 (Windows NT 10.0; Win64; x64) AppleWebKit/537.36 (KHTML, like Gecko) Chrome/132.0.0.0 Safari/537.36","WebKit","Chrome","132.0.0.0","Windows","10.0","https://app.prolific.com/","en-US,en;q=0.9","6442842843aab883445d6708","679edb085803f58d6bbd31ca","679edf70b8700caeeac4201c","","null","<img  src='G_1.jpg' height='90'> <img  src='G_3.jpg' height='90'> <img src='G_4.jpg' height='90'> <img src='G_2.jpg' height='90'> <img src='G_7.jpg' height='90'> <img src='G_5.jpg' height='90'> <img src='G_8.jpg' height='90'> <img src='G_6.jpg' height='90'>","null","Animation1","",""
"","","","","","html-keyboard-response","81","200347","0.0-51.0","13","1","2025-02-02 02:59:28","bc01a2b6f61d06f6604adb8657495020","69.249.128.209","Mozilla/5.0 (Windows NT 10.0; Win64; x64) AppleWebKit/537.36 (KHTML, like Gecko) Chrome/132.0.0.0 Safari/537.36","WebKit","Chrome","132.0.0.0","Windows","10.0","https://app.prolific.com/","en-US,en;q=0.9","6442842843aab883445d6708","679edb085803f58d6bbd31ca","679edf70b8700caeeac4201c","","null","<img  src='G_1.jpg' height='90'> <img id='selected'  src='G_3.jpg' height='90'> <img src='G_4.jpg' height='90'> <img src='G_2.jpg' height='90'> <img src='G_7.jpg' height='90'> <img src='G_5.jpg' height='90'> <img src='G_8.jpg' height='90'> <img src='G_6.jpg' height='90'>","null","Animation1","",""
"","","","","","html-keyboard-response","82","200860","0.0-52.0","13","1","2025-02-02 02:59:28","bc01a2b6f61d06f6604adb8657495020","69.249.128.209","Mozilla/5.0 (Windows NT 10.0; Win64; x64) AppleWebKit/537.36 (KHTML, like Gecko) Chrome/132.0.0.0 Safari/537.36","WebKit","Chrome","132.0.0.0","Windows","10.0","https://app.prolific.com/","en-US,en;q=0.9","6442842843aab883445d6708","679edb085803f58d6bbd31ca","679edf70b8700caeeac4201c","","null","<img  src='G_1.jpg' height='90'> <img id='selected'  src='G_3.jpg' height='90'> <img id='selected' src='G_4.jpg' height='90'> <img src='G_2.jpg' height='90'> <img src='G_7.jpg' height='90'> <img src='G_5.jpg' height='90'> <img src='G_8.jpg' height='90'> <img src='G_6.jpg' height='90'>","null","Animation1","",""
"","","","","","html-keyboard-response","83","201374","0.0-53.0","13","1","2025-02-02 02:59:28","bc01a2b6f61d06f6604adb8657495020","69.249.128.209","Mozilla/5.0 (Windows NT 10.0; Win64; x64) AppleWebKit/537.36 (KHTML, like Gecko) Chrome/132.0.0.0 Safari/537.36","WebKit","Chrome","132.0.0.0","Windows","10.0","https://app.prolific.com/","en-US,en;q=0.9","6442842843aab883445d6708","679edb085803f58d6bbd31ca","679edf70b8700caeeac4201c","","null","<img  src='G_1.jpg' height='90'> <img id='swapped' src='G_4.jpg' height='90'> <img id='swapped'  src='G_3.jpg' height='90'> <img src='G_2.jpg' height='90'> <img src='G_7.jpg' height='90'> <img src='G_5.jpg' height='90'> <img src='G_8.jpg' height='90'> <img src='G_6.jpg' height='90'>","null","Animation1","",""
"","","","","","html-keyboard-response","84","201679","0.0-54.0","13","1","2025-02-02 02:59:28","bc01a2b6f61d06f6604adb8657495020","69.249.128.209","Mozilla/5.0 (Windows NT 10.0; Win64; x64) AppleWebKit/537.36 (KHTML, like Gecko) Chrome/132.0.0.0 Safari/537.36","WebKit","Chrome","132.0.0.0","Windows","10.0","https://app.prolific.com/","en-US,en;q=0.9","6442842843aab883445d6708","679edb085803f58d6bbd31ca","679edf70b8700caeeac4201c","","null","<img  src='G_1.jpg' height='90'> <img  src='G_4.jpg' height='90'> <img   src='G_3.jpg' height='90'> <img src='G_2.jpg' height='90'> <img src='G_7.jpg' height='90'> <img src='G_5.jpg' height='90'> <img src='G_8.jpg' height='90'> <img src='G_6.jpg' height='90'>","null","Animation1","",""
"","","","","","html-keyboard-response","85","202183","0.0-55.0","13","1","2025-02-02 02:59:28","bc01a2b6f61d06f6604adb8657495020","69.249.128.209","Mozilla/5.0 (Windows NT 10.0; Win64; x64) AppleWebKit/537.36 (KHTML, like Gecko) Chrome/132.0.0.0 Safari/537.36","WebKit","Chrome","132.0.0.0","Windows","10.0","https://app.prolific.com/","en-US,en;q=0.9","6442842843aab883445d6708","679edb085803f58d6bbd31ca","679edf70b8700caeeac4201c","","null","<img id='selected'  src='G_1.jpg' height='90'> <img  src='G_4.jpg' height='90'> <img   src='G_3.jpg' height='90'> <img src='G_2.jpg' height='90'> <img src='G_7.jpg' height='90'> <img src='G_5.jpg' height='90'> <img src='G_8.jpg' height='90'> <img src='G_6.jpg' height='90'>","null","Animation1","",""
"","","","","","html-keyboard-response","86","202697","0.0-56.0","13","1","2025-02-02 02:59:28","bc01a2b6f61d06f6604adb8657495020","69.249.128.209","Mozilla/5.0 (Windows NT 10.0; Win64; x64) AppleWebKit/537.36 (KHTML, like Gecko) Chrome/132.0.0.0 Safari/537.36","WebKit","Chrome","132.0.0.0","Windows","10.0","https://app.prolific.com/","en-US,en;q=0.9","6442842843aab883445d6708","679edb085803f58d6bbd31ca","679edf70b8700caeeac4201c","","null","<img id='selected'  src='G_1.jpg' height='90'> <img id='selected'  src='G_4.jpg' height='90'> <img   src='G_3.jpg' height='90'> <img src='G_2.jpg' height='90'> <img src='G_7.jpg' height='90'> <img src='G_5.jpg' height='90'> <img src='G_8.jpg' height='90'> <img src='G_6.jpg' height='90'>","null","Animation1","",""
"","","","","","html-keyboard-response","87","203213","0.0-57.0","13","1","2025-02-02 02:59:28","bc01a2b6f61d06f6604adb8657495020","69.249.128.209","Mozilla/5.0 (Windows NT 10.0; Win64; x64) AppleWebKit/537.36 (KHTML, like Gecko) Chrome/132.0.0.0 Safari/537.36","WebKit","Chrome","132.0.0.0","Windows","10.0","https://app.prolific.com/","en-US,en;q=0.9","6442842843aab883445d6708","679edb085803f58d6bbd31ca","679edf70b8700caeeac4201c","","null","<img id='swapped'  src='G_4.jpg' height='90'> <img id='swapped'  src='G_1.jpg' height='90'> <img   src='G_3.jpg' height='90'> <img src='G_2.jpg' height='90'> <img src='G_7.jpg' height='90'> <img src='G_5.jpg' height='90'> <img src='G_8.jpg' height='90'> <img src='G_6.jpg' height='90'>","null","Animation1","",""
"","","","","","html-keyboard-response","88","203526","0.0-58.0","13","1","2025-02-02 02:59:28","bc01a2b6f61d06f6604adb8657495020","69.249.128.209","Mozilla/5.0 (Windows NT 10.0; Win64; x64) AppleWebKit/537.36 (KHTML, like Gecko) Chrome/132.0.0.0 Safari/537.36","WebKit","Chrome","132.0.0.0","Windows","10.0","https://app.prolific.com/","en-US,en;q=0.9","6442842843aab883445d6708","679edb085803f58d6bbd31ca","679edf70b8700caeeac4201c","","null","<img   src='G_4.jpg' height='90'> <img   src='G_1.jpg' height='90'> <img   src='G_3.jpg' height='90'> <img src='G_2.jpg' height='90'> <img src='G_7.jpg' height='90'> <img src='G_5.jpg' height='90'> <img src='G_8.jpg' height='90'> <img src='G_6.jpg' height='90'>","null","Animation1","",""
"","","","","","html-keyboard-response","89","204031","0.0-59.0","13","1","2025-02-02 02:59:28","bc01a2b6f61d06f6604adb8657495020","69.249.128.209","Mozilla/5.0 (Windows NT 10.0; Win64; x64) AppleWebKit/537.36 (KHTML, like Gecko) Chrome/132.0.0.0 Safari/537.36","WebKit","Chrome","132.0.0.0","Windows","10.0","https://app.prolific.com/","en-US,en;q=0.9","6442842843aab883445d6708","679edb085803f58d6bbd31ca","679edf70b8700caeeac4201c","","null","<img   src='G_4.jpg' height='90'> <img   src='G_1.jpg' height='90'> <img id='selected'   src='G_3.jpg' height='90'> <img src='G_2.jpg' height='90'> <img src='G_7.jpg' height='90'> <img src='G_5.jpg' height='90'> <img src='G_8.jpg' height='90'> <img src='G_6.jpg' height='90'>","null","Animation1","",""
"","","","","","html-keyboard-response","90","204547","0.0-60.0","13","1","2025-02-02 02:59:28","bc01a2b6f61d06f6604adb8657495020","69.249.128.209","Mozilla/5.0 (Windows NT 10.0; Win64; x64) AppleWebKit/537.36 (KHTML, like Gecko) Chrome/132.0.0.0 Safari/537.36","WebKit","Chrome","132.0.0.0","Windows","10.0","https://app.prolific.com/","en-US,en;q=0.9","6442842843aab883445d6708","679edb085803f58d6bbd31ca","679edf70b8700caeeac4201c","","null","<img   src='G_4.jpg' height='90'> <img   src='G_1.jpg' height='90'> <img id='selected'   src='G_3.jpg' height='90'> <img id='selected' src='G_2.jpg' height='90'> <img src='G_7.jpg' height='90'> <img src='G_5.jpg' height='90'> <img src='G_8.jpg' height='90'> <img src='G_6.jpg' height='90'>","null","Animation1","",""
"","","","","","html-keyboard-response","91","205060","0.0-61.0","13","1","2025-02-02 02:59:28","bc01a2b6f61d06f6604adb8657495020","69.249.128.209","Mozilla/5.0 (Windows NT 10.0; Win64; x64) AppleWebKit/537.36 (KHTML, like Gecko) Chrome/132.0.0.0 Safari/537.36","WebKit","Chrome","132.0.0.0","Windows","10.0","https://app.prolific.com/","en-US,en;q=0.9","6442842843aab883445d6708","679edb085803f58d6bbd31ca","679edf70b8700caeeac4201c","","null","<img   src='G_4.jpg' height='90'> <img   src='G_1.jpg' height='90'> <img id='swapped' src='G_2.jpg' height='90'> <img id='swapped'   src='G_3.jpg' height='90'> <img src='G_7.jpg' height='90'> <img src='G_5.jpg' height='90'> <img src='G_8.jpg' height='90'> <img src='G_6.jpg' height='90'>","null","Animation1","",""
"","","","","","html-keyboard-response","92","205370","0.0-62.0","13","1","2025-02-02 02:59:28","bc01a2b6f61d06f6604adb8657495020","69.249.128.209","Mozilla/5.0 (Windows NT 10.0; Win64; x64) AppleWebKit/537.36 (KHTML, like Gecko) Chrome/132.0.0.0 Safari/537.36","WebKit","Chrome","132.0.0.0","Windows","10.0","https://app.prolific.com/","en-US,en;q=0.9","6442842843aab883445d6708","679edb085803f58d6bbd31ca","679edf70b8700caeeac4201c","","null","<img   src='G_4.jpg' height='90'> <img   src='G_1.jpg' height='90'> <img  src='G_2.jpg' height='90'> <img    src='G_3.jpg' height='90'> <img src='G_7.jpg' height='90'> <img src='G_5.jpg' height='90'> <img src='G_8.jpg' height='90'> <img src='G_6.jpg' height='90'>","null","Animation1","",""
"","","","","","html-keyboard-response","93","205886","0.0-63.0","13","1","2025-02-02 02:59:28","bc01a2b6f61d06f6604adb8657495020","69.249.128.209","Mozilla/5.0 (Windows NT 10.0; Win64; x64) AppleWebKit/537.36 (KHTML, like Gecko) Chrome/132.0.0.0 Safari/537.36","WebKit","Chrome","132.0.0.0","Windows","10.0","https://app.prolific.com/","en-US,en;q=0.9","6442842843aab883445d6708","679edb085803f58d6bbd31ca","679edf70b8700caeeac4201c","","null","<img   src='G_4.jpg' height='90'> <img id='selected'   src='G_1.jpg' height='90'> <img  src='G_2.jpg' height='90'> <img    src='G_3.jpg' height='90'> <img src='G_7.jpg' height='90'> <img src='G_5.jpg' height='90'> <img src='G_8.jpg' height='90'> <img src='G_6.jpg' height='90'>","null","Animation1","",""
"","","","","","html-keyboard-response","94","206400","0.0-64.0","13","1","2025-02-02 02:59:28","bc01a2b6f61d06f6604adb8657495020","69.249.128.209","Mozilla/5.0 (Windows NT 10.0; Win64; x64) AppleWebKit/537.36 (KHTML, like Gecko) Chrome/132.0.0.0 Safari/537.36","WebKit","Chrome","132.0.0.0","Windows","10.0","https://app.prolific.com/","en-US,en;q=0.9","6442842843aab883445d6708","679edb085803f58d6bbd31ca","679edf70b8700caeeac4201c","","null","<img   src='G_4.jpg' height='90'> <img id='selected'   src='G_1.jpg' height='90'> <img id='selected'  src='G_2.jpg' height='90'> <img    src='G_3.jpg' height='90'> <img src='G_7.jpg' height='90'> <img src='G_5.jpg' height='90'> <img src='G_8.jpg' height='90'> <img src='G_6.jpg' height='90'>","null","Animation1","",""
"","","","","","html-keyboard-response","95","206914","0.0-65.0","13","1","2025-02-02 02:59:28","bc01a2b6f61d06f6604adb8657495020","69.249.128.209","Mozilla/5.0 (Windows NT 10.0; Win64; x64) AppleWebKit/537.36 (KHTML, like Gecko) Chrome/132.0.0.0 Safari/537.36","WebKit","Chrome","132.0.0.0","Windows","10.0","https://app.prolific.com/","en-US,en;q=0.9","6442842843aab883445d6708","679edb085803f58d6bbd31ca","679edf70b8700caeeac4201c","","null","<img   src='G_4.jpg' height='90'> <img id='swapped'  src='G_2.jpg' height='90'> <img id='swapped'   src='G_1.jpg' height='90'> <img    src='G_3.jpg' height='90'> <img src='G_7.jpg' height='90'> <img src='G_5.jpg' height='90'> <img src='G_8.jpg' height='90'> <img src='G_6.jpg' height='90'>","null","Animation1","",""
"","","","","","html-keyboard-response","96","207227","0.0-66.0","13","1","2025-02-02 02:59:28","bc01a2b6f61d06f6604adb8657495020","69.249.128.209","Mozilla/5.0 (Windows NT 10.0; Win64; x64) AppleWebKit/537.36 (KHTML, like Gecko) Chrome/132.0.0.0 Safari/537.36","WebKit","Chrome","132.0.0.0","Windows","10.0","https://app.prolific.com/","en-US,en;q=0.9","6442842843aab883445d6708","679edb085803f58d6bbd31ca","679edf70b8700caeeac4201c","","null","<img   src='G_4.jpg' height='90'> <img   src='G_2.jpg' height='90'> <img    src='G_1.jpg' height='90'> <img    src='G_3.jpg' height='90'> <img src='G_7.jpg' height='90'> <img src='G_5.jpg' height='90'> <img src='G_8.jpg' height='90'> <img src='G_6.jpg' height='90'>","null","Animation1","",""
"","","","","","html-keyboard-response","97","207741","0.0-67.0","13","1","2025-02-02 02:59:28","bc01a2b6f61d06f6604adb8657495020","69.249.128.209","Mozilla/5.0 (Windows NT 10.0; Win64; x64) AppleWebKit/537.36 (KHTML, like Gecko) Chrome/132.0.0.0 Safari/537.36","WebKit","Chrome","132.0.0.0","Windows","10.0","https://app.prolific.com/","en-US,en;q=0.9","6442842843aab883445d6708","679edb085803f58d6bbd31ca","679edf70b8700caeeac4201c","","null","<img id='selected'   src='G_4.jpg' height='90'> <img   src='G_2.jpg' height='90'> <img    src='G_1.jpg' height='90'> <img    src='G_3.jpg' height='90'> <img src='G_7.jpg' height='90'> <img src='G_5.jpg' height='90'> <img src='G_8.jpg' height='90'> <img src='G_6.jpg' height='90'>","null","Animation1","",""
"","","","","","html-keyboard-response","98","208255","0.0-68.0","13","1","2025-02-02 02:59:28","bc01a2b6f61d06f6604adb8657495020","69.249.128.209","Mozilla/5.0 (Windows NT 10.0; Win64; x64) AppleWebKit/537.36 (KHTML, like Gecko) Chrome/132.0.0.0 Safari/537.36","WebKit","Chrome","132.0.0.0","Windows","10.0","https://app.prolific.com/","en-US,en;q=0.9","6442842843aab883445d6708","679edb085803f58d6bbd31ca","679edf70b8700caeeac4201c","","null","<img id='selected'   src='G_4.jpg' height='90'> <img id='selected'   src='G_2.jpg' height='90'> <img    src='G_1.jpg' height='90'> <img    src='G_3.jpg' height='90'> <img src='G_7.jpg' height='90'> <img src='G_5.jpg' height='90'> <img src='G_8.jpg' height='90'> <img src='G_6.jpg' height='90'>","null","Animation1","",""
"","","","","","html-keyboard-response","99","208769","0.0-69.0","13","1","2025-02-02 02:59:28","bc01a2b6f61d06f6604adb8657495020","69.249.128.209","Mozilla/5.0 (Windows NT 10.0; Win64; x64) AppleWebKit/537.36 (KHTML, like Gecko) Chrome/132.0.0.0 Safari/537.36","WebKit","Chrome","132.0.0.0","Windows","10.0","https://app.prolific.com/","en-US,en;q=0.9","6442842843aab883445d6708","679edb085803f58d6bbd31ca","679edf70b8700caeeac4201c","","null","<img id='swapped'   src='G_2.jpg' height='90'> <img id='swapped'   src='G_4.jpg' height='90'> <img    src='G_1.jpg' height='90'> <img    src='G_3.jpg' height='90'> <img src='G_7.jpg' height='90'> <img src='G_5.jpg' height='90'> <img src='G_8.jpg' height='90'> <img src='G_6.jpg' height='90'>","null","Animation1","",""
"","","","","","html-keyboard-response","100","209080","0.0-70.0","13","1","2025-02-02 02:59:28","bc01a2b6f61d06f6604adb8657495020","69.249.128.209","Mozilla/5.0 (Windows NT 10.0; Win64; x64) AppleWebKit/537.36 (KHTML, like Gecko) Chrome/132.0.0.0 Safari/537.36","WebKit","Chrome","132.0.0.0","Windows","10.0","https://app.prolific.com/","en-US,en;q=0.9","6442842843aab883445d6708","679edb085803f58d6bbd31ca","679edf70b8700caeeac4201c","","null","<img    src='G_2.jpg' height='90'> <img    src='G_4.jpg' height='90'> <img    src='G_1.jpg' height='90'> <img    src='G_3.jpg' height='90'> <img src='G_7.jpg' height='90'> <img src='G_5.jpg' height='90'> <img src='G_8.jpg' height='90'> <img src='G_6.jpg' height='90'>","null","Animation1","",""
"","","","","","html-keyboard-response","101","209588","0.0-71.0","13","1","2025-02-02 02:59:28","bc01a2b6f61d06f6604adb8657495020","69.249.128.209","Mozilla/5.0 (Windows NT 10.0; Win64; x64) AppleWebKit/537.36 (KHTML, like Gecko) Chrome/132.0.0.0 Safari/537.36","WebKit","Chrome","132.0.0.0","Windows","10.0","https://app.prolific.com/","en-US,en;q=0.9","6442842843aab883445d6708","679edb085803f58d6bbd31ca","679edf70b8700caeeac4201c","","null","<img    src='G_2.jpg' height='90'> <img    src='G_4.jpg' height='90'> <img    src='G_1.jpg' height='90'> <img id='selected'    src='G_3.jpg' height='90'> <img src='G_7.jpg' height='90'> <img src='G_5.jpg' height='90'> <img src='G_8.jpg' height='90'> <img src='G_6.jpg' height='90'>","null","Animation1","",""
"","","","","","html-keyboard-response","102","210100","0.0-72.0","13","1","2025-02-02 02:59:28","bc01a2b6f61d06f6604adb8657495020","69.249.128.209","Mozilla/5.0 (Windows NT 10.0; Win64; x64) AppleWebKit/537.36 (KHTML, like Gecko) Chrome/132.0.0.0 Safari/537.36","WebKit","Chrome","132.0.0.0","Windows","10.0","https://app.prolific.com/","en-US,en;q=0.9","6442842843aab883445d6708","679edb085803f58d6bbd31ca","679edf70b8700caeeac4201c","","null","<img    src='G_2.jpg' height='90'> <img    src='G_4.jpg' height='90'> <img    src='G_1.jpg' height='90'> <img id='selected'    src='G_3.jpg' height='90'> <img id='selected' src='G_7.jpg' height='90'> <img src='G_5.jpg' height='90'> <img src='G_8.jpg' height='90'> <img src='G_6.jpg' height='90'>","null","Animation1","",""
"","","","","","html-keyboard-response","103","210613","0.0-73.0","13","1","2025-02-02 02:59:28","bc01a2b6f61d06f6604adb8657495020","69.249.128.209","Mozilla/5.0 (Windows NT 10.0; Win64; x64) AppleWebKit/537.36 (KHTML, like Gecko) Chrome/132.0.0.0 Safari/537.36","WebKit","Chrome","132.0.0.0","Windows","10.0","https://app.prolific.com/","en-US,en;q=0.9","6442842843aab883445d6708","679edb085803f58d6bbd31ca","679edf70b8700caeeac4201c","","null","<img    src='G_2.jpg' height='90'> <img    src='G_4.jpg' height='90'> <img    src='G_1.jpg' height='90'> <img id='swapped' src='G_7.jpg' height='90'> <img id='swapped'    src='G_3.jpg' height='90'> <img src='G_5.jpg' height='90'> <img src='G_8.jpg' height='90'> <img src='G_6.jpg' height='90'>","null","Animation1","",""
"","","","","","html-keyboard-response","104","210924","0.0-74.0","13","1","2025-02-02 02:59:28","bc01a2b6f61d06f6604adb8657495020","69.249.128.209","Mozilla/5.0 (Windows NT 10.0; Win64; x64) AppleWebKit/537.36 (KHTML, like Gecko) Chrome/132.0.0.0 Safari/537.36","WebKit","Chrome","132.0.0.0","Windows","10.0","https://app.prolific.com/","en-US,en;q=0.9","6442842843aab883445d6708","679edb085803f58d6bbd31ca","679edf70b8700caeeac4201c","","null","<img    src='G_2.jpg' height='90'> <img    src='G_4.jpg' height='90'> <img    src='G_1.jpg' height='90'> <img  src='G_7.jpg' height='90'> <img     src='G_3.jpg' height='90'> <img src='G_5.jpg' height='90'> <img src='G_8.jpg' height='90'> <img src='G_6.jpg' height='90'>","null","Animation1","",""
"","","","","","html-keyboard-response","105","211435","0.0-75.0","13","1","2025-02-02 02:59:28","bc01a2b6f61d06f6604adb8657495020","69.249.128.209","Mozilla/5.0 (Windows NT 10.0; Win64; x64) AppleWebKit/537.36 (KHTML, like Gecko) Chrome/132.0.0.0 Safari/537.36","WebKit","Chrome","132.0.0.0","Windows","10.0","https://app.prolific.com/","en-US,en;q=0.9","6442842843aab883445d6708","679edb085803f58d6bbd31ca","679edf70b8700caeeac4201c","","null","<img    src='G_2.jpg' height='90'> <img    src='G_4.jpg' height='90'> <img id='selected'    src='G_1.jpg' height='90'> <img  src='G_7.jpg' height='90'> <img     src='G_3.jpg' height='90'> <img src='G_5.jpg' height='90'> <img src='G_8.jpg' height='90'> <img src='G_6.jpg' height='90'>","null","Animation1","",""
"","","","","","html-keyboard-response","106","211950","0.0-76.0","13","1","2025-02-02 02:59:28","bc01a2b6f61d06f6604adb8657495020","69.249.128.209","Mozilla/5.0 (Windows NT 10.0; Win64; x64) AppleWebKit/537.36 (KHTML, like Gecko) Chrome/132.0.0.0 Safari/537.36","WebKit","Chrome","132.0.0.0","Windows","10.0","https://app.prolific.com/","en-US,en;q=0.9","6442842843aab883445d6708","679edb085803f58d6bbd31ca","679edf70b8700caeeac4201c","","null","<img    src='G_2.jpg' height='90'> <img    src='G_4.jpg' height='90'> <img id='selected'    src='G_1.jpg' height='90'> <img id='selected'  src='G_7.jpg' height='90'> <img     src='G_3.jpg' height='90'> <img src='G_5.jpg' height='90'> <img src='G_8.jpg' height='90'> <img src='G_6.jpg' height='90'>","null","Animation1","",""
"","","","","","html-keyboard-response","107","212462","0.0-77.0","13","1","2025-02-02 02:59:28","bc01a2b6f61d06f6604adb8657495020","69.249.128.209","Mozilla/5.0 (Windows NT 10.0; Win64; x64) AppleWebKit/537.36 (KHTML, like Gecko) Chrome/132.0.0.0 Safari/537.36","WebKit","Chrome","132.0.0.0","Windows","10.0","https://app.prolific.com/","en-US,en;q=0.9","6442842843aab883445d6708","679edb085803f58d6bbd31ca","679edf70b8700caeeac4201c","","null","<img    src='G_2.jpg' height='90'> <img    src='G_4.jpg' height='90'> <img id='swapped'  src='G_7.jpg' height='90'> <img id='swapped'    src='G_1.jpg' height='90'> <img     src='G_3.jpg' height='90'> <img src='G_5.jpg' height='90'> <img src='G_8.jpg' height='90'> <img src='G_6.jpg' height='90'>","null","Animation1","",""
"","","","","","html-keyboard-response","108","212773","0.0-78.0","13","1","2025-02-02 02:59:28","bc01a2b6f61d06f6604adb8657495020","69.249.128.209","Mozilla/5.0 (Windows NT 10.0; Win64; x64) AppleWebKit/537.36 (KHTML, like Gecko) Chrome/132.0.0.0 Safari/537.36","WebKit","Chrome","132.0.0.0","Windows","10.0","https://app.prolific.com/","en-US,en;q=0.9","6442842843aab883445d6708","679edb085803f58d6bbd31ca","679edf70b8700caeeac4201c","","null","<img    src='G_2.jpg' height='90'> <img    src='G_4.jpg' height='90'> <img   src='G_7.jpg' height='90'> <img     src='G_1.jpg' height='90'> <img     src='G_3.jpg' height='90'> <img src='G_5.jpg' height='90'> <img src='G_8.jpg' height='90'> <img src='G_6.jpg' height='90'>","null","Animation1","",""
"","","","","","html-keyboard-response","109","213287","0.0-79.0","13","1","2025-02-02 02:59:28","bc01a2b6f61d06f6604adb8657495020","69.249.128.209","Mozilla/5.0 (Windows NT 10.0; Win64; x64) AppleWebKit/537.36 (KHTML, like Gecko) Chrome/132.0.0.0 Safari/537.36","WebKit","Chrome","132.0.0.0","Windows","10.0","https://app.prolific.com/","en-US,en;q=0.9","6442842843aab883445d6708","679edb085803f58d6bbd31ca","679edf70b8700caeeac4201c","","null","<img    src='G_2.jpg' height='90'> <img id='selected'    src='G_4.jpg' height='90'> <img   src='G_7.jpg' height='90'> <img     src='G_1.jpg' height='90'> <img     src='G_3.jpg' height='90'> <img src='G_5.jpg' height='90'> <img src='G_8.jpg' height='90'> <img src='G_6.jpg' height='90'>","null","Animation1","",""
"","","","","","html-keyboard-response","110","213800","0.0-80.0","13","1","2025-02-02 02:59:28","bc01a2b6f61d06f6604adb8657495020","69.249.128.209","Mozilla/5.0 (Windows NT 10.0; Win64; x64) AppleWebKit/537.36 (KHTML, like Gecko) Chrome/132.0.0.0 Safari/537.36","WebKit","Chrome","132.0.0.0","Windows","10.0","https://app.prolific.com/","en-US,en;q=0.9","6442842843aab883445d6708","679edb085803f58d6bbd31ca","679edf70b8700caeeac4201c","","null","<img    src='G_2.jpg' height='90'> <img id='selected'    src='G_4.jpg' height='90'> <img id='selected'   src='G_7.jpg' height='90'> <img     src='G_1.jpg' height='90'> <img     src='G_3.jpg' height='90'> <img src='G_5.jpg' height='90'> <img src='G_8.jpg' height='90'> <img src='G_6.jpg' height='90'>","null","Animation1","",""
"","","","","","html-keyboard-response","111","214314","0.0-81.0","13","1","2025-02-02 02:59:28","bc01a2b6f61d06f6604adb8657495020","69.249.128.209","Mozilla/5.0 (Windows NT 10.0; Win64; x64) AppleWebKit/537.36 (KHTML, like Gecko) Chrome/132.0.0.0 Safari/537.36","WebKit","Chrome","132.0.0.0","Windows","10.0","https://app.prolific.com/","en-US,en;q=0.9","6442842843aab883445d6708","679edb085803f58d6bbd31ca","679edf70b8700caeeac4201c","","null","<img    src='G_2.jpg' height='90'> <img id='swapped'   src='G_7.jpg' height='90'> <img id='swapped'    src='G_4.jpg' height='90'> <img     src='G_1.jpg' height='90'> <img     src='G_3.jpg' height='90'> <img src='G_5.jpg' height='90'> <img src='G_8.jpg' height='90'> <img src='G_6.jpg' height='90'>","null","Animation1","",""
"","","","","","html-keyboard-response","112","214626","0.0-82.0","13","1","2025-02-02 02:59:28","bc01a2b6f61d06f6604adb8657495020","69.249.128.209","Mozilla/5.0 (Windows NT 10.0; Win64; x64) AppleWebKit/537.36 (KHTML, like Gecko) Chrome/132.0.0.0 Safari/537.36","WebKit","Chrome","132.0.0.0","Windows","10.0","https://app.prolific.com/","en-US,en;q=0.9","6442842843aab883445d6708","679edb085803f58d6bbd31ca","679edf70b8700caeeac4201c","","null","<img    src='G_2.jpg' height='90'> <img    src='G_7.jpg' height='90'> <img     src='G_4.jpg' height='90'> <img     src='G_1.jpg' height='90'> <img     src='G_3.jpg' height='90'> <img src='G_5.jpg' height='90'> <img src='G_8.jpg' height='90'> <img src='G_6.jpg' height='90'>","null","Animation1","",""
"","","","","","html-keyboard-response","113","215143","0.0-83.0","13","1","2025-02-02 02:59:28","bc01a2b6f61d06f6604adb8657495020","69.249.128.209","Mozilla/5.0 (Windows NT 10.0; Win64; x64) AppleWebKit/537.36 (KHTML, like Gecko) Chrome/132.0.0.0 Safari/537.36","WebKit","Chrome","132.0.0.0","Windows","10.0","https://app.prolific.com/","en-US,en;q=0.9","6442842843aab883445d6708","679edb085803f58d6bbd31ca","679edf70b8700caeeac4201c","","null","<img id='selected'    src='G_2.jpg' height='90'> <img    src='G_7.jpg' height='90'> <img     src='G_4.jpg' height='90'> <img     src='G_1.jpg' height='90'> <img     src='G_3.jpg' height='90'> <img src='G_5.jpg' height='90'> <img src='G_8.jpg' height='90'> <img src='G_6.jpg' height='90'>","null","Animation1","",""
"","","","","","html-keyboard-response","114","215658","0.0-84.0","13","1","2025-02-02 02:59:28","bc01a2b6f61d06f6604adb8657495020","69.249.128.209","Mozilla/5.0 (Windows NT 10.0; Win64; x64) AppleWebKit/537.36 (KHTML, like Gecko) Chrome/132.0.0.0 Safari/537.36","WebKit","Chrome","132.0.0.0","Windows","10.0","https://app.prolific.com/","en-US,en;q=0.9","6442842843aab883445d6708","679edb085803f58d6bbd31ca","679edf70b8700caeeac4201c","","null","<img id='selected'    src='G_2.jpg' height='90'> <img id='selected'    src='G_7.jpg' height='90'> <img     src='G_4.jpg' height='90'> <img     src='G_1.jpg' height='90'> <img     src='G_3.jpg' height='90'> <img src='G_5.jpg' height='90'> <img src='G_8.jpg' height='90'> <img src='G_6.jpg' height='90'>","null","Animation1","",""
"","","","","","html-keyboard-response","115","216170","0.0-85.0","13","1","2025-02-02 02:59:28","bc01a2b6f61d06f6604adb8657495020","69.249.128.209","Mozilla/5.0 (Windows NT 10.0; Win64; x64) AppleWebKit/537.36 (KHTML, like Gecko) Chrome/132.0.0.0 Safari/537.36","WebKit","Chrome","132.0.0.0","Windows","10.0","https://app.prolific.com/","en-US,en;q=0.9","6442842843aab883445d6708","679edb085803f58d6bbd31ca","679edf70b8700caeeac4201c","","null","<img id='selected'    src='G_2.jpg' height='90'> <img id='selected'    src='G_7.jpg' height='90'> <img     src='G_4.jpg' height='90'> <img     src='G_1.jpg' height='90'> <img     src='G_3.jpg' height='90'> <img src='G_5.jpg' height='90'> <img src='G_8.jpg' height='90'> <img src='G_6.jpg' height='90'>","null","Animation1","",""
"","","","","","html-keyboard-response","116","216481","0.0-86.0","13","1","2025-02-02 02:59:28","bc01a2b6f61d06f6604adb8657495020","69.249.128.209","Mozilla/5.0 (Windows NT 10.0; Win64; x64) AppleWebKit/537.36 (KHTML, like Gecko) Chrome/132.0.0.0 Safari/537.36","WebKit","Chrome","132.0.0.0","Windows","10.0","https://app.prolific.com/","en-US,en;q=0.9","6442842843aab883445d6708","679edb085803f58d6bbd31ca","679edf70b8700caeeac4201c","","null","<img     src='G_2.jpg' height='90'> <img     src='G_7.jpg' height='90'> <img     src='G_4.jpg' height='90'> <img     src='G_1.jpg' height='90'> <img     src='G_3.jpg' height='90'> <img src='G_5.jpg' height='90'> <img src='G_8.jpg' height='90'> <img src='G_6.jpg' height='90'>","null","Animation1","",""
"","","","","","html-keyboard-response","117","216991","0.0-87.0","13","1","2025-02-02 02:59:28","bc01a2b6f61d06f6604adb8657495020","69.249.128.209","Mozilla/5.0 (Windows NT 10.0; Win64; x64) AppleWebKit/537.36 (KHTML, like Gecko) Chrome/132.0.0.0 Safari/537.36","WebKit","Chrome","132.0.0.0","Windows","10.0","https://app.prolific.com/","en-US,en;q=0.9","6442842843aab883445d6708","679edb085803f58d6bbd31ca","679edf70b8700caeeac4201c","","null","<img     src='G_2.jpg' height='90'> <img     src='G_7.jpg' height='90'> <img     src='G_4.jpg' height='90'> <img     src='G_1.jpg' height='90'> <img id='selected'     src='G_3.jpg' height='90'> <img src='G_5.jpg' height='90'> <img src='G_8.jpg' height='90'> <img src='G_6.jpg' height='90'>","null","Animation1","",""
"","","","","","html-keyboard-response","118","217504","0.0-88.0","13","1","2025-02-02 02:59:28","bc01a2b6f61d06f6604adb8657495020","69.249.128.209","Mozilla/5.0 (Windows NT 10.0; Win64; x64) AppleWebKit/537.36 (KHTML, like Gecko) Chrome/132.0.0.0 Safari/537.36","WebKit","Chrome","132.0.0.0","Windows","10.0","https://app.prolific.com/","en-US,en;q=0.9","6442842843aab883445d6708","679edb085803f58d6bbd31ca","679edf70b8700caeeac4201c","","null","<img     src='G_2.jpg' height='90'> <img     src='G_7.jpg' height='90'> <img     src='G_4.jpg' height='90'> <img     src='G_1.jpg' height='90'> <img id='selected'     src='G_3.jpg' height='90'> <img id='selected' src='G_5.jpg' height='90'> <img src='G_8.jpg' height='90'> <img src='G_6.jpg' height='90'>","null","Animation1","",""
"","","","","","html-keyboard-response","119","218018","0.0-89.0","13","1","2025-02-02 02:59:28","bc01a2b6f61d06f6604adb8657495020","69.249.128.209","Mozilla/5.0 (Windows NT 10.0; Win64; x64) AppleWebKit/537.36 (KHTML, like Gecko) Chrome/132.0.0.0 Safari/537.36","WebKit","Chrome","132.0.0.0","Windows","10.0","https://app.prolific.com/","en-US,en;q=0.9","6442842843aab883445d6708","679edb085803f58d6bbd31ca","679edf70b8700caeeac4201c","","null","<img     src='G_2.jpg' height='90'> <img     src='G_7.jpg' height='90'> <img     src='G_4.jpg' height='90'> <img     src='G_1.jpg' height='90'> <img id='swapped' src='G_5.jpg' height='90'> <img id='swapped'     src='G_3.jpg' height='90'> <img src='G_8.jpg' height='90'> <img src='G_6.jpg' height='90'>","null","Animation1","",""
"","","","","","html-keyboard-response","120","218327","0.0-90.0","13","1","2025-02-02 02:59:28","bc01a2b6f61d06f6604adb8657495020","69.249.128.209","Mozilla/5.0 (Windows NT 10.0; Win64; x64) AppleWebKit/537.36 (KHTML, like Gecko) Chrome/132.0.0.0 Safari/537.36","WebKit","Chrome","132.0.0.0","Windows","10.0","https://app.prolific.com/","en-US,en;q=0.9","6442842843aab883445d6708","679edb085803f58d6bbd31ca","679edf70b8700caeeac4201c","","null","<img     src='G_2.jpg' height='90'> <img     src='G_7.jpg' height='90'> <img     src='G_4.jpg' height='90'> <img     src='G_1.jpg' height='90'> <img  src='G_5.jpg' height='90'> <img      src='G_3.jpg' height='90'> <img src='G_8.jpg' height='90'> <img src='G_6.jpg' height='90'>","null","Animation1","",""
"","","","","","html-keyboard-response","121","218840","0.0-91.0","13","1","2025-02-02 02:59:28","bc01a2b6f61d06f6604adb8657495020","69.249.128.209","Mozilla/5.0 (Windows NT 10.0; Win64; x64) AppleWebKit/537.36 (KHTML, like Gecko) Chrome/132.0.0.0 Safari/537.36","WebKit","Chrome","132.0.0.0","Windows","10.0","https://app.prolific.com/","en-US,en;q=0.9","6442842843aab883445d6708","679edb085803f58d6bbd31ca","679edf70b8700caeeac4201c","","null","<img     src='G_2.jpg' height='90'> <img     src='G_7.jpg' height='90'> <img     src='G_4.jpg' height='90'> <img id='selected'     src='G_1.jpg' height='90'> <img  src='G_5.jpg' height='90'> <img      src='G_3.jpg' height='90'> <img src='G_8.jpg' height='90'> <img src='G_6.jpg' height='90'>","null","Animation1","",""
"","","","","","html-keyboard-response","122","219352","0.0-92.0","13","1","2025-02-02 02:59:28","bc01a2b6f61d06f6604adb8657495020","69.249.128.209","Mozilla/5.0 (Windows NT 10.0; Win64; x64) AppleWebKit/537.36 (KHTML, like Gecko) Chrome/132.0.0.0 Safari/537.36","WebKit","Chrome","132.0.0.0","Windows","10.0","https://app.prolific.com/","en-US,en;q=0.9","6442842843aab883445d6708","679edb085803f58d6bbd31ca","679edf70b8700caeeac4201c","","null","<img     src='G_2.jpg' height='90'> <img     src='G_7.jpg' height='90'> <img     src='G_4.jpg' height='90'> <img id='selected'     src='G_1.jpg' height='90'> <img id='selected'  src='G_5.jpg' height='90'> <img      src='G_3.jpg' height='90'> <img src='G_8.jpg' height='90'> <img src='G_6.jpg' height='90'>","null","Animation1","",""
"","","","","","html-keyboard-response","123","219866","0.0-93.0","13","1","2025-02-02 02:59:28","bc01a2b6f61d06f6604adb8657495020","69.249.128.209","Mozilla/5.0 (Windows NT 10.0; Win64; x64) AppleWebKit/537.36 (KHTML, like Gecko) Chrome/132.0.0.0 Safari/537.36","WebKit","Chrome","132.0.0.0","Windows","10.0","https://app.prolific.com/","en-US,en;q=0.9","6442842843aab883445d6708","679edb085803f58d6bbd31ca","679edf70b8700caeeac4201c","","null","<img     src='G_2.jpg' height='90'> <img     src='G_7.jpg' height='90'> <img     src='G_4.jpg' height='90'> <img id='selected'     src='G_1.jpg' height='90'> <img id='selected'  src='G_5.jpg' height='90'> <img      src='G_3.jpg' height='90'> <img src='G_8.jpg' height='90'> <img src='G_6.jpg' height='90'>","null","Animation1","",""
"","","","","","html-keyboard-response","124","220177","0.0-94.0","13","1","2025-02-02 02:59:28","bc01a2b6f61d06f6604adb8657495020","69.249.128.209","Mozilla/5.0 (Windows NT 10.0; Win64; x64) AppleWebKit/537.36 (KHTML, like Gecko) Chrome/132.0.0.0 Safari/537.36","WebKit","Chrome","132.0.0.0","Windows","10.0","https://app.prolific.com/","en-US,en;q=0.9","6442842843aab883445d6708","679edb085803f58d6bbd31ca","679edf70b8700caeeac4201c","","null","<img     src='G_2.jpg' height='90'> <img     src='G_7.jpg' height='90'> <img     src='G_4.jpg' height='90'> <img      src='G_1.jpg' height='90'> <img   src='G_5.jpg' height='90'> <img      src='G_3.jpg' height='90'> <img src='G_8.jpg' height='90'> <img src='G_6.jpg' height='90'>","null","Animation1","",""
"","","","","","html-keyboard-response","125","220680","0.0-95.0","13","1","2025-02-02 02:59:28","bc01a2b6f61d06f6604adb8657495020","69.249.128.209","Mozilla/5.0 (Windows NT 10.0; Win64; x64) AppleWebKit/537.36 (KHTML, like Gecko) Chrome/132.0.0.0 Safari/537.36","WebKit","Chrome","132.0.0.0","Windows","10.0","https://app.prolific.com/","en-US,en;q=0.9","6442842843aab883445d6708","679edb085803f58d6bbd31ca","679edf70b8700caeeac4201c","","null","<img     src='G_2.jpg' height='90'> <img     src='G_7.jpg' height='90'> <img     src='G_4.jpg' height='90'> <img      src='G_1.jpg' height='90'> <img   src='G_5.jpg' height='90'> <img id='selected'      src='G_3.jpg' height='90'> <img src='G_8.jpg' height='90'> <img src='G_6.jpg' height='90'>","null","Animation1","",""
"","","","","","html-keyboard-response","126","221193","0.0-96.0","13","1","2025-02-02 02:59:28","bc01a2b6f61d06f6604adb8657495020","69.249.128.209","Mozilla/5.0 (Windows NT 10.0; Win64; x64) AppleWebKit/537.36 (KHTML, like Gecko) Chrome/132.0.0.0 Safari/537.36","WebKit","Chrome","132.0.0.0","Windows","10.0","https://app.prolific.com/","en-US,en;q=0.9","6442842843aab883445d6708","679edb085803f58d6bbd31ca","679edf70b8700caeeac4201c","","null","<img     src='G_2.jpg' height='90'> <img     src='G_7.jpg' height='90'> <img     src='G_4.jpg' height='90'> <img      src='G_1.jpg' height='90'> <img   src='G_5.jpg' height='90'> <img id='selected'      src='G_3.jpg' height='90'> <img id='selected' src='G_8.jpg' height='90'> <img src='G_6.jpg' height='90'>","null","Animation1","",""
"","","","","","html-keyboard-response","127","221705","0.0-97.0","13","1","2025-02-02 02:59:28","bc01a2b6f61d06f6604adb8657495020","69.249.128.209","Mozilla/5.0 (Windows NT 10.0; Win64; x64) AppleWebKit/537.36 (KHTML, like Gecko) Chrome/132.0.0.0 Safari/537.36","WebKit","Chrome","132.0.0.0","Windows","10.0","https://app.prolific.com/","en-US,en;q=0.9","6442842843aab883445d6708","679edb085803f58d6bbd31ca","679edf70b8700caeeac4201c","","null","<img     src='G_2.jpg' height='90'> <img     src='G_7.jpg' height='90'> <img     src='G_4.jpg' height='90'> <img      src='G_1.jpg' height='90'> <img   src='G_5.jpg' height='90'> <img id='selected'      src='G_3.jpg' height='90'> <img id='selected' src='G_8.jpg' height='90'> <img src='G_6.jpg' height='90'>","null","Animation1","",""
"","","","","","html-keyboard-response","128","222017","0.0-98.0","13","1","2025-02-02 02:59:28","bc01a2b6f61d06f6604adb8657495020","69.249.128.209","Mozilla/5.0 (Windows NT 10.0; Win64; x64) AppleWebKit/537.36 (KHTML, like Gecko) Chrome/132.0.0.0 Safari/537.36","WebKit","Chrome","132.0.0.0","Windows","10.0","https://app.prolific.com/","en-US,en;q=0.9","6442842843aab883445d6708","679edb085803f58d6bbd31ca","679edf70b8700caeeac4201c","","null","<img     src='G_2.jpg' height='90'> <img     src='G_7.jpg' height='90'> <img     src='G_4.jpg' height='90'> <img      src='G_1.jpg' height='90'> <img   src='G_5.jpg' height='90'> <img       src='G_3.jpg' height='90'> <img  src='G_8.jpg' height='90'> <img src='G_6.jpg' height='90'>","null","Animation1","",""
"","","","","","html-keyboard-response","129","222532","0.0-99.0","13","1","2025-02-02 02:59:28","bc01a2b6f61d06f6604adb8657495020","69.249.128.209","Mozilla/5.0 (Windows NT 10.0; Win64; x64) AppleWebKit/537.36 (KHTML, like Gecko) Chrome/132.0.0.0 Safari/537.36","WebKit","Chrome","132.0.0.0","Windows","10.0","https://app.prolific.com/","en-US,en;q=0.9","6442842843aab883445d6708","679edb085803f58d6bbd31ca","679edf70b8700caeeac4201c","","null","<img     src='G_2.jpg' height='90'> <img     src='G_7.jpg' height='90'> <img     src='G_4.jpg' height='90'> <img      src='G_1.jpg' height='90'> <img   src='G_5.jpg' height='90'> <img       src='G_3.jpg' height='90'> <img id='selected'  src='G_8.jpg' height='90'> <img src='G_6.jpg' height='90'>","null","Animation1","",""
"","","","","","html-keyboard-response","130","223044","0.0-100.0","13","1","2025-02-02 02:59:28","bc01a2b6f61d06f6604adb8657495020","69.249.128.209","Mozilla/5.0 (Windows NT 10.0; Win64; x64) AppleWebKit/537.36 (KHTML, like Gecko) Chrome/132.0.0.0 Safari/537.36","WebKit","Chrome","132.0.0.0","Windows","10.0","https://app.prolific.com/","en-US,en;q=0.9","6442842843aab883445d6708","679edb085803f58d6bbd31ca","679edf70b8700caeeac4201c","","null","<img     src='G_2.jpg' height='90'> <img     src='G_7.jpg' height='90'> <img     src='G_4.jpg' height='90'> <img      src='G_1.jpg' height='90'> <img   src='G_5.jpg' height='90'> <img       src='G_3.jpg' height='90'> <img id='selected'  src='G_8.jpg' height='90'> <img id='selected' src='G_6.jpg' height='90'>","null","Animation1","",""
"","","","","","html-keyboard-response","131","223557","0.0-101.0","13","1","2025-02-02 02:59:28","bc01a2b6f61d06f6604adb8657495020","69.249.128.209","Mozilla/5.0 (Windows NT 10.0; Win64; x64) AppleWebKit/537.36 (KHTML, like Gecko) Chrome/132.0.0.0 Safari/537.36","WebKit","Chrome","132.0.0.0","Windows","10.0","https://app.prolific.com/","en-US,en;q=0.9","6442842843aab883445d6708","679edb085803f58d6bbd31ca","679edf70b8700caeeac4201c","","null","<img     src='G_2.jpg' height='90'> <img     src='G_7.jpg' height='90'> <img     src='G_4.jpg' height='90'> <img      src='G_1.jpg' height='90'> <img   src='G_5.jpg' height='90'> <img       src='G_3.jpg' height='90'> <img id='swapped' src='G_6.jpg' height='90'> <img id='swapped'  src='G_8.jpg' height='90'>","null","Animation1","",""
"","","","","","html-keyboard-response","132","223870","0.0-102.0","13","1","2025-02-02 02:59:28","bc01a2b6f61d06f6604adb8657495020","69.249.128.209","Mozilla/5.0 (Windows NT 10.0; Win64; x64) AppleWebKit/537.36 (KHTML, like Gecko) Chrome/132.0.0.0 Safari/537.36","WebKit","Chrome","132.0.0.0","Windows","10.0","https://app.prolific.com/","en-US,en;q=0.9","6442842843aab883445d6708","679edb085803f58d6bbd31ca","679edf70b8700caeeac4201c","","null","<img     src='G_2.jpg' height='90'> <img     src='G_7.jpg' height='90'> <img     src='G_4.jpg' height='90'> <img      src='G_1.jpg' height='90'> <img   src='G_5.jpg' height='90'> <img       src='G_3.jpg' height='90'> <img  src='G_6.jpg' height='90'> <img   src='G_8.jpg' height='90'>","null","Animation1","",""
"","","","","","html-keyboard-response","133","224384","0.0-103.0","13","1","2025-02-02 02:59:28","bc01a2b6f61d06f6604adb8657495020","69.249.128.209","Mozilla/5.0 (Windows NT 10.0; Win64; x64) AppleWebKit/537.36 (KHTML, like Gecko) Chrome/132.0.0.0 Safari/537.36","WebKit","Chrome","132.0.0.0","Windows","10.0","https://app.prolific.com/","en-US,en;q=0.9","6442842843aab883445d6708","679edb085803f58d6bbd31ca","679edf70b8700caeeac4201c","","null","<img     src='G_2.jpg' height='90'> <img     src='G_7.jpg' height='90'> <img     src='G_4.jpg' height='90'> <img      src='G_1.jpg' height='90'> <img   src='G_5.jpg' height='90'> <img id='selected'       src='G_3.jpg' height='90'> <img  src='G_6.jpg' height='90'> <img   src='G_8.jpg' height='90'>","null","Animation1","",""
"","","","","","html-keyboard-response","134","224896","0.0-104.0","13","1","2025-02-02 02:59:28","bc01a2b6f61d06f6604adb8657495020","69.249.128.209","Mozilla/5.0 (Windows NT 10.0; Win64; x64) AppleWebKit/537.36 (KHTML, like Gecko) Chrome/132.0.0.0 Safari/537.36","WebKit","Chrome","132.0.0.0","Windows","10.0","https://app.prolific.com/","en-US,en;q=0.9","6442842843aab883445d6708","679edb085803f58d6bbd31ca","679edf70b8700caeeac4201c","","null","<img     src='G_2.jpg' height='90'> <img     src='G_7.jpg' height='90'> <img     src='G_4.jpg' height='90'> <img      src='G_1.jpg' height='90'> <img   src='G_5.jpg' height='90'> <img id='selected'       src='G_3.jpg' height='90'> <img id='selected'  src='G_6.jpg' height='90'> <img   src='G_8.jpg' height='90'>","null","Animation1","",""
"","","","","","html-keyboard-response","135","225407","0.0-105.0","13","1","2025-02-02 02:59:28","bc01a2b6f61d06f6604adb8657495020","69.249.128.209","Mozilla/5.0 (Windows NT 10.0; Win64; x64) AppleWebKit/537.36 (KHTML, like Gecko) Chrome/132.0.0.0 Safari/537.36","WebKit","Chrome","132.0.0.0","Windows","10.0","https://app.prolific.com/","en-US,en;q=0.9","6442842843aab883445d6708","679edb085803f58d6bbd31ca","679edf70b8700caeeac4201c","","null","<img     src='G_2.jpg' height='90'> <img     src='G_7.jpg' height='90'> <img     src='G_4.jpg' height='90'> <img      src='G_1.jpg' height='90'> <img   src='G_5.jpg' height='90'> <img id='selected'       src='G_3.jpg' height='90'> <img id='selected'  src='G_6.jpg' height='90'> <img   src='G_8.jpg' height='90'>","null","Animation1","",""
"","","","","","html-keyboard-response","136","225720","0.0-106.0","13","1","2025-02-02 02:59:28","bc01a2b6f61d06f6604adb8657495020","69.249.128.209","Mozilla/5.0 (Windows NT 10.0; Win64; x64) AppleWebKit/537.36 (KHTML, like Gecko) Chrome/132.0.0.0 Safari/537.36","WebKit","Chrome","132.0.0.0","Windows","10.0","https://app.prolific.com/","en-US,en;q=0.9","6442842843aab883445d6708","679edb085803f58d6bbd31ca","679edf70b8700caeeac4201c","","null","<img     src='G_2.jpg' height='90'> <img     src='G_7.jpg' height='90'> <img     src='G_4.jpg' height='90'> <img      src='G_1.jpg' height='90'> <img   src='G_5.jpg' height='90'> <img        src='G_3.jpg' height='90'> <img   src='G_6.jpg' height='90'> <img   src='G_8.jpg' height='90'>","null","Animation1","",""
"","","","","","html-keyboard-response","137","229858","0.0-107.0","13","1","2025-02-02 02:59:28","bc01a2b6f61d06f6604adb8657495020","69.249.128.209","Mozilla/5.0 (Windows NT 10.0; Win64; x64) AppleWebKit/537.36 (KHTML, like Gecko) Chrome/132.0.0.0 Safari/537.36","WebKit","Chrome","132.0.0.0","Windows","10.0","https://app.prolific.com/","en-US,en;q=0.9","6442842843aab883445d6708","679edb085803f58d6bbd31ca","679edf70b8700caeeac4201c","","4135","[""Did you notice any patterns? <br><br>Press Enter to watch that example again and follow the steps of Omgne Sort.""]","enter","","",""
"","","","","","html-button-response","138","230272","0.0-108.0","13","1","2025-02-02 02:59:28","bc01a2b6f61d06f6604adb8657495020","69.249.128.209","Mozilla/5.0 (Windows NT 10.0; Win64; x64) AppleWebKit/537.36 (KHTML, like Gecko) Chrome/132.0.0.0 Safari/537.36","WebKit","Chrome","132.0.0.0","Windows","10.0","https://app.prolific.com/","en-US,en;q=0.9","6442842843aab883445d6708","679edb085803f58d6bbd31ca","679edf70b8700caeeac4201c","","null","<img id='selected' src='G_1.jpg' height='90'> <img src='G_3.jpg' height='90'> <img src='G_4.jpg' height='90'> <img src='G_2.jpg' height='90'> <img src='G_7.jpg' height='90'> <img src='G_5.jpg' height='90'> <img src='G_8.jpg' height='90'> <img src='G_6.jpg' height='90'>","null","Learning example 1","",""
"","","","","","html-button-response","139","230583","0.0-109.0","13","1","2025-02-02 02:59:28","bc01a2b6f61d06f6604adb8657495020","69.249.128.209","Mozilla/5.0 (Windows NT 10.0; Win64; x64) AppleWebKit/537.36 (KHTML, like Gecko) Chrome/132.0.0.0 Safari/537.36","WebKit","Chrome","132.0.0.0","Windows","10.0","https://app.prolific.com/","en-US,en;q=0.9","6442842843aab883445d6708","679edb085803f58d6bbd31ca","679edf70b8700caeeac4201c","","null","<img id='selected' src='G_1.jpg' height='90'> <img id='selected' src='G_3.jpg' height='90'> <img src='G_4.jpg' height='90'> <img src='G_2.jpg' height='90'> <img src='G_7.jpg' height='90'> <img src='G_5.jpg' height='90'> <img src='G_8.jpg' height='90'> <img src='G_6.jpg' height='90'>","null","Learning example 1","",""
"","","","","","html-button-response","140","230898","0.0-110.0","13","1","2025-02-02 02:59:28","bc01a2b6f61d06f6604adb8657495020","69.249.128.209","Mozilla/5.0 (Windows NT 10.0; Win64; x64) AppleWebKit/537.36 (KHTML, like Gecko) Chrome/132.0.0.0 Safari/537.36","WebKit","Chrome","132.0.0.0","Windows","10.0","https://app.prolific.com/","en-US,en;q=0.9","6442842843aab883445d6708","679edb085803f58d6bbd31ca","679edf70b8700caeeac4201c","","null","<img id='selected' src='G_1.jpg' height='90'> <img id='selected' src='G_3.jpg' height='90'> <img src='G_4.jpg' height='90'> <img src='G_2.jpg' height='90'> <img src='G_7.jpg' height='90'> <img src='G_5.jpg' height='90'> <img src='G_8.jpg' height='90'> <img src='G_6.jpg' height='90'>","null","Learning example 1","",""
"","","","","","html-button-response","141","240190","0.0-111.0-0.0-0.0","13","1","2025-02-02 02:59:28","bc01a2b6f61d06f6604adb8657495020","69.249.128.209","Mozilla/5.0 (Windows NT 10.0; Win64; x64) AppleWebKit/537.36 (KHTML, like Gecko) Chrome/132.0.0.0 Safari/537.36","WebKit","Chrome","132.0.0.0","Windows","10.0","https://app.prolific.com/","en-US,en;q=0.9","6442842843aab883445d6708","679edb085803f58d6bbd31ca","679edf70b8700caeeac4201c","","9289","<img id='selected' src='G_1.jpg' height='90'> <img id='selected' src='G_3.jpg' height='90'> <img src='G_4.jpg' height='90'> <img src='G_2.jpg' height='90'> <img src='G_7.jpg' height='90'> <img src='G_5.jpg' height='90'> <img src='G_8.jpg' height='90'> <img src='G_6.jpg' height='90'>","0","Learning example 1","",""
"","","","","","html-button-response","142","242429","0.0-111.1-0.1-0.1","13","1","2025-02-02 02:59:28","bc01a2b6f61d06f6604adb8657495020","69.249.128.209","Mozilla/5.0 (Windows NT 10.0; Win64; x64) AppleWebKit/537.36 (KHTML, like Gecko) Chrome/132.0.0.0 Safari/537.36","WebKit","Chrome","132.0.0.0","Windows","10.0","https://app.prolific.com/","en-US,en;q=0.9","6442842843aab883445d6708","679edb085803f58d6bbd31ca","679edf70b8700caeeac4201c","","2234","<img id='selected' src='G_1.jpg' height='90'> <img id='selected' src='G_3.jpg' height='90'> <img src='G_4.jpg' height='90'> <img src='G_2.jpg' height='90'> <img src='G_7.jpg' height='90'> <img src='G_5.jpg' height='90'> <img src='G_8.jpg' height='90'> <img src='G_6.jpg' height='90'>","1","Learning example 1","",""
"","","","","","html-button-response","143","242633","0.0-112.0","13","1","2025-02-02 02:59:28","bc01a2b6f61d06f6604adb8657495020","69.249.128.209","Mozilla/5.0 (Windows NT 10.0; Win64; x64) AppleWebKit/537.36 (KHTML, like Gecko) Chrome/132.0.0.0 Safari/537.36","WebKit","Chrome","132.0.0.0","Windows","10.0","https://app.prolific.com/","en-US,en;q=0.9","6442842843aab883445d6708","679edb085803f58d6bbd31ca","679edf70b8700caeeac4201c","","null","<img  src='G_1.jpg' height='90'> <img  src='G_3.jpg' height='90'> <img src='G_4.jpg' height='90'> <img src='G_2.jpg' height='90'> <img src='G_7.jpg' height='90'> <img src='G_5.jpg' height='90'> <img src='G_8.jpg' height='90'> <img src='G_6.jpg' height='90'>","null","Learning example 1","",""
"","","","","","html-button-response","144","243043","0.0-113.0","13","1","2025-02-02 02:59:28","bc01a2b6f61d06f6604adb8657495020","69.249.128.209","Mozilla/5.0 (Windows NT 10.0; Win64; x64) AppleWebKit/537.36 (KHTML, like Gecko) Chrome/132.0.0.0 Safari/537.36","WebKit","Chrome","132.0.0.0","Windows","10.0","https://app.prolific.com/","en-US,en;q=0.9","6442842843aab883445d6708","679edb085803f58d6bbd31ca","679edf70b8700caeeac4201c","","null","<img  src='G_1.jpg' height='90'> <img id='selected'  src='G_3.jpg' height='90'> <img src='G_4.jpg' height='90'> <img src='G_2.jpg' height='90'> <img src='G_7.jpg' height='90'> <img src='G_5.jpg' height='90'> <img src='G_8.jpg' height='90'> <img src='G_6.jpg' height='90'>","null","Learning example 1","",""
"","","","","","html-button-response","145","243353","0.0-114.0","13","1","2025-02-02 02:59:28","bc01a2b6f61d06f6604adb8657495020","69.249.128.209","Mozilla/5.0 (Windows NT 10.0; Win64; x64) AppleWebKit/537.36 (KHTML, like Gecko) Chrome/132.0.0.0 Safari/537.36","WebKit","Chrome","132.0.0.0","Windows","10.0","https://app.prolific.com/","en-US,en;q=0.9","6442842843aab883445d6708","679edb085803f58d6bbd31ca","679edf70b8700caeeac4201c","","null","<img  src='G_1.jpg' height='90'> <img id='selected'  src='G_3.jpg' height='90'> <img id='selected' src='G_4.jpg' height='90'> <img src='G_2.jpg' height='90'> <img src='G_7.jpg' height='90'> <img src='G_5.jpg' height='90'> <img src='G_8.jpg' height='90'> <img src='G_6.jpg' height='90'>","null","Learning example 1","",""
"","","","","","html-button-response","146","243663","0.0-115.0","13","1","2025-02-02 02:59:28","bc01a2b6f61d06f6604adb8657495020","69.249.128.209","Mozilla/5.0 (Windows NT 10.0; Win64; x64) AppleWebKit/537.36 (KHTML, like Gecko) Chrome/132.0.0.0 Safari/537.36","WebKit","Chrome","132.0.0.0","Windows","10.0","https://app.prolific.com/","en-US,en;q=0.9","6442842843aab883445d6708","679edb085803f58d6bbd31ca","679edf70b8700caeeac4201c","","null","<img  src='G_1.jpg' height='90'> <img id='swapped' src='G_4.jpg' height='90'> <img id='swapped'  src='G_3.jpg' height='90'> <img src='G_2.jpg' height='90'> <img src='G_7.jpg' height='90'> <img src='G_5.jpg' height='90'> <img src='G_8.jpg' height='90'> <img src='G_6.jpg' height='90'>","null","Learning example 1","",""
"","","","","","html-button-response","147","247931","0.0-116.0-0.0-0.0","13","1","2025-02-02 02:59:28","bc01a2b6f61d06f6604adb8657495020","69.249.128.209","Mozilla/5.0 (Windows NT 10.0; Win64; x64) AppleWebKit/537.36 (KHTML, like Gecko) Chrome/132.0.0.0 Safari/537.36","WebKit","Chrome","132.0.0.0","Windows","10.0","https://app.prolific.com/","en-US,en;q=0.9","6442842843aab883445d6708","679edb085803f58d6bbd31ca","679edf70b8700caeeac4201c","","4264","<img  src='G_1.jpg' height='90'> <img id='swapped' src='G_4.jpg' height='90'> <img id='swapped'  src='G_3.jpg' height='90'> <img src='G_2.jpg' height='90'> <img src='G_7.jpg' height='90'> <img src='G_5.jpg' height='90'> <img src='G_8.jpg' height='90'> <img src='G_6.jpg' height='90'>","1","Learning example 1","",""
