"success","timeout","failed_images","failed_audio","failed_video","trial_type","trial_index","time_elapsed","internal_node_id","run_id","condition","recorded_at","source_code_version","ip","user_agent","device","browser","browser_version","platform","platform_version","referer","accept_language","PROLIFIC_PID","STUDY_ID","SESSION_ID","view_history","rt","stimulus","response","phase","question_order","presented_choices"
"true","false","[]","[]","[]","preload","0","626","0.0-0.0","14","1","2025-02-02 03:04:27","bc01a2b6f61d06f6604adb8657495020","24.181.98.154","Mozilla/5.0 (Windows NT 10.0; Win64; x64) AppleWebKit/537.36 (KHTML, like Gecko) Chrome/131.0.0.0 Safari/537.36 AVG/131.0.0.0","WebKit","Chrome","131.0.0.0","Windows","10.0","https://app.prolific.com/","en-US,en;q=0.9","667abe08bc794718ca0cf87b","679edb085803f58d6bbd31ca","679ee0ada7ec9ae3889c8c0e","","","","","","",""
"","","","","","instructions","1","122569","0.0-1.0","14","1","2025-02-02 03:04:27","bc01a2b6f61d06f6604adb8657495020","24.181.98.154","Mozilla/5.0 (Windows NT 10.0; Win64; x64) AppleWebKit/537.36 (KHTML, like Gecko) Chrome/131.0.0.0 Safari/537.36 AVG/131.0.0.0","WebKit","Chrome","131.0.0.0","Windows","10.0","https://app.prolific.com/","en-US,en;q=0.9","667abe08bc794718ca0cf87b","679edb085803f58d6bbd31ca","679ee0ada7ec9ae3889c8c0e","[{""page_index"":0,""viewing_time"":121942}]","121942","","","","",""
"","","","","","html-keyboard-response","2","123072","0.0-2.0","14","1","2025-02-02 03:04:27","bc01a2b6f61d06f6604adb8657495020","24.181.98.154","Mozilla/5.0 (Windows NT 10.0; Win64; x64) AppleWebKit/537.36 (KHTML, like Gecko) Chrome/131.0.0.0 Safari/537.36 AVG/131.0.0.0","WebKit","Chrome","131.0.0.0","Windows","10.0","https://app.prolific.com/","en-US,en;q=0.9","667abe08bc794718ca0cf87b","679edb085803f58d6bbd31ca","679ee0ada7ec9ae3889c8c0e","","null","<p> + <p/>","null","","",""
"","","","","","instructions","3","366646","0.0-3.0","14","1","2025-02-02 03:04:27","bc01a2b6f61d06f6604adb8657495020","24.181.98.154","Mozilla/5.0 (Windows NT 10.0; Win64; x64) AppleWebKit/537.36 (KHTML, like Gecko) Chrome/131.0.0.0 Safari/537.36 AVG/131.0.0.0","WebKit","Chrome","131.0.0.0","Windows","10.0","https://app.prolific.com/","en-US,en;q=0.9","667abe08bc794718ca0cf87b","679edb085803f58d6bbd31ca","679ee0ada7ec9ae3889c8c0e","[{""page_index"":0,""viewing_time"":1297},{""page_index"":1,""viewing_time"":9161},{""page_index"":2,""viewing_time"":7443},{""page_index"":3,""viewing_time"":14897},{""page_index"":4,""viewing_time"":210776}]","243574","","","","",""
"","","","","","html-button-response","4","1310862","0.0-4.0-0.0-0.0","14","1","2025-02-02 03:04:27","bc01a2b6f61d06f6604adb8657495020","24.181.98.154","Mozilla/5.0 (Windows NT 10.0; Win64; x64) AppleWebKit/537.36 (KHTML, like Gecko) Chrome/131.0.0.0 Safari/537.36 AVG/131.0.0.0","WebKit","Chrome","131.0.0.0","Windows","10.0","https://app.prolific.com/","en-US,en;q=0.9","667abe08bc794718ca0cf87b","679edb085803f58d6bbd31ca","679ee0ada7ec9ae3889c8c0e","","944214","","3","Intro Trial","",""
"","","","","","html-button-response","5","1311349","0.0-4.1-0.1-0.1","14","1","2025-02-02 03:04:27","bc01a2b6f61d06f6604adb8657495020","24.181.98.154","Mozilla/5.0 (Windows NT 10.0; Win64; x64) AppleWebKit/537.36 (KHTML, like Gecko) Chrome/131.0.0.0 Safari/537.36 AVG/131.0.0.0","WebKit","Chrome","131.0.0.0","Windows","10.0","https://app.prolific.com/","en-US,en;q=0.9","667abe08bc794718ca0cf87b","679edb085803f58d6bbd31ca","679ee0ada7ec9ae3889c8c0e","","484","","1","Intro Trial","",""
"","","","","","html-button-response","6","1314746","0.0-4.2-0.2-0.2","14","1","2025-02-02 03:04:27","bc01a2b6f61d06f6604adb8657495020","24.181.98.154","Mozilla/5.0 (Windows NT 10.0; Win64; x64) AppleWebKit/537.36 (KHTML, like Gecko) Chrome/131.0.0.0 Safari/537.36 AVG/131.0.0.0","WebKit","Chrome","131.0.0.0","Windows","10.0","https://app.prolific.com/","en-US,en;q=0.9","667abe08bc794718ca0cf87b","679edb085803f58d6bbd31ca","679ee0ada7ec9ae3889c8c0e","","3395","","0","Intro Trial","",""
"","","","","","html-button-response","7","1315017","0.0-4.3-0.3-0.3","14","1","2025-02-02 03:04:27","bc01a2b6f61d06f6604adb8657495020","24.181.98.154","Mozilla/5.0 (Windows NT 10.0; Win64; x64) AppleWebKit/537.36 (KHTML, like Gecko) Chrome/131.0.0.0 Safari/537.36 AVG/131.0.0.0","WebKit","Chrome","131.0.0.0","Windows","10.0","https://app.prolific.com/","en-US,en;q=0.9","667abe08bc794718ca0cf87b","679edb085803f58d6bbd31ca","679ee0ada7ec9ae3889c8c0e","","268","","1","Intro Trial","",""
"","","","","","html-button-response","8","1317147","0.0-4.4-0.4-0.4","14","1","2025-02-02 03:04:27","bc01a2b6f61d06f6604adb8657495020","24.181.98.154","Mozilla/5.0 (Windows NT 10.0; Win64; x64) AppleWebKit/537.36 (KHTML, like Gecko) Chrome/131.0.0.0 Safari/537.36 AVG/131.0.0.0","WebKit","Chrome","131.0.0.0","Windows","10.0","https://app.prolific.com/","en-US,en;q=0.9","667abe08bc794718ca0cf87b","679edb085803f58d6bbd31ca","679ee0ada7ec9ae3889c8c0e","","2129","","3","Intro Trial","",""
"","","","","","html-button-response","9","1317724","0.0-4.5-0.5-0.5","14","1","2025-02-02 03:04:27","bc01a2b6f61d06f6604adb8657495020","24.181.98.154","Mozilla/5.0 (Windows NT 10.0; Win64; x64) AppleWebKit/537.36 (KHTML, like Gecko) Chrome/131.0.0.0 Safari/537.36 AVG/131.0.0.0","WebKit","Chrome","131.0.0.0","Windows","10.0","https://app.prolific.com/","en-US,en;q=0.9","667abe08bc794718ca0cf87b","679edb085803f58d6bbd31ca","679ee0ada7ec9ae3889c8c0e","","576","","1","Intro Trial","",""
"","","","","","html-button-response","10","1318593","0.0-4.6-0.6-0.6","14","1","2025-02-02 03:04:27","bc01a2b6f61d06f6604adb8657495020","24.181.98.154","Mozilla/5.0 (Windows NT 10.0; Win64; x64) AppleWebKit/537.36 (KHTML, like Gecko) Chrome/131.0.0.0 Safari/537.36 AVG/131.0.0.0","WebKit","Chrome","131.0.0.0","Windows","10.0","https://app.prolific.com/","en-US,en;q=0.9","667abe08bc794718ca0cf87b","679edb085803f58d6bbd31ca","679ee0ada7ec9ae3889c8c0e","","868","","2","Intro Trial","",""
"","","","","","html-button-response","11","1318894","0.0-4.7-0.7-0.7","14","1","2025-02-02 03:04:27","bc01a2b6f61d06f6604adb8657495020","24.181.98.154","Mozilla/5.0 (Windows NT 10.0; Win64; x64) AppleWebKit/537.36 (KHTML, like Gecko) Chrome/131.0.0.0 Safari/537.36 AVG/131.0.0.0","WebKit","Chrome","131.0.0.0","Windows","10.0","https://app.prolific.com/","en-US,en;q=0.9","667abe08bc794718ca0cf87b","679edb085803f58d6bbd31ca","679ee0ada7ec9ae3889c8c0e","","299","","3","Intro Trial","",""
"","","","","","html-button-response","12","1319809","0.0-4.8-0.8-0.8","14","1","2025-02-02 03:04:27","bc01a2b6f61d06f6604adb8657495020","24.181.98.154","Mozilla/5.0 (Windows NT 10.0; Win64; x64) AppleWebKit/537.36 (KHTML, like Gecko) Chrome/131.0.0.0 Safari/537.36 AVG/131.0.0.0","WebKit","Chrome","131.0.0.0","Windows","10.0","https://app.prolific.com/","en-US,en;q=0.9","667abe08bc794718ca0cf87b","679edb085803f58d6bbd31ca","679ee0ada7ec9ae3889c8c0e","","913","","4","Intro Trial","",""
"","","","","","html-button-response","13","1320079","0.0-4.9-0.9-0.9","14","1","2025-02-02 03:04:27","bc01a2b6f61d06f6604adb8657495020","24.181.98.154","Mozilla/5.0 (Windows NT 10.0; Win64; x64) AppleWebKit/537.36 (KHTML, like Gecko) Chrome/131.0.0.0 Safari/537.36 AVG/131.0.0.0","WebKit","Chrome","131.0.0.0","Windows","10.0","https://app.prolific.com/","en-US,en;q=0.9","667abe08bc794718ca0cf87b","679edb085803f58d6bbd31ca","679ee0ada7ec9ae3889c8c0e","","269","","3","Intro Trial","",""
"","","","","","html-button-response","14","1322472","0.0-4.10-0.10-0.10","14","1","2025-02-02 03:04:27","bc01a2b6f61d06f6604adb8657495020","24.181.98.154","Mozilla/5.0 (Windows NT 10.0; Win64; x64) AppleWebKit/537.36 (KHTML, like Gecko) Chrome/131.0.0.0 Safari/537.36 AVG/131.0.0.0","WebKit","Chrome","131.0.0.0","Windows","10.0","https://app.prolific.com/","en-US,en;q=0.9","667abe08bc794718ca0cf87b","679edb085803f58d6bbd31ca","679ee0ada7ec9ae3889c8c0e","","2391","","2","Intro Trial","",""
"","","","","","html-button-response","15","1322802","0.0-4.11-0.11-0.11","14","1","2025-02-02 03:04:27","bc01a2b6f61d06f6604adb8657495020","24.181.98.154","Mozilla/5.0 (Windows NT 10.0; Win64; x64) AppleWebKit/537.36 (KHTML, like Gecko) Chrome/131.0.0.0 Safari/537.36 AVG/131.0.0.0","WebKit","Chrome","131.0.0.0","Windows","10.0","https://app.prolific.com/","en-US,en;q=0.9","667abe08bc794718ca0cf87b","679edb085803f58d6bbd31ca","679ee0ada7ec9ae3889c8c0e","","329","","3","Intro Trial","",""
"","","","","","html-button-response","16","1324173","0.0-4.12-0.12-0.12","14","1","2025-02-02 03:04:27","bc01a2b6f61d06f6604adb8657495020","24.181.98.154","Mozilla/5.0 (Windows NT 10.0; Win64; x64) AppleWebKit/537.36 (KHTML, like Gecko) Chrome/131.0.0.0 Safari/537.36 AVG/131.0.0.0","WebKit","Chrome","131.0.0.0","Windows","10.0","https://app.prolific.com/","en-US,en;q=0.9","667abe08bc794718ca0cf87b","679edb085803f58d6bbd31ca","679ee0ada7ec9ae3889c8c0e","","1369","","1","Intro Trial","",""
"","","","","","html-button-response","17","1324378","0.0-4.13-0.13-0.13","14","1","2025-02-02 03:04:27","bc01a2b6f61d06f6604adb8657495020","24.181.98.154","Mozilla/5.0 (Windows NT 10.0; Win64; x64) AppleWebKit/537.36 (KHTML, like Gecko) Chrome/131.0.0.0 Safari/537.36 AVG/131.0.0.0","WebKit","Chrome","131.0.0.0","Windows","10.0","https://app.prolific.com/","en-US,en;q=0.9","667abe08bc794718ca0cf87b","679edb085803f58d6bbd31ca","679ee0ada7ec9ae3889c8c0e","","202","","2","Intro Trial","",""
"","","","","","html-button-response","18","1325135","0.0-4.14-0.14-0.14","14","1","2025-02-02 03:04:27","bc01a2b6f61d06f6604adb8657495020","24.181.98.154","Mozilla/5.0 (Windows NT 10.0; Win64; x64) AppleWebKit/537.36 (KHTML, like Gecko) Chrome/131.0.0.0 Safari/537.36 AVG/131.0.0.0","WebKit","Chrome","131.0.0.0","Windows","10.0","https://app.prolific.com/","en-US,en;q=0.9","667abe08bc794718ca0cf87b","679edb085803f58d6bbd31ca","679ee0ada7ec9ae3889c8c0e","","756","","0","Intro Trial","",""
"","","","","","html-button-response","19","1325404","0.0-4.15-0.15-0.15","14","1","2025-02-02 03:04:27","bc01a2b6f61d06f6604adb8657495020","24.181.98.154","Mozilla/5.0 (Windows NT 10.0; Win64; x64) AppleWebKit/537.36 (KHTML, like Gecko) Chrome/131.0.0.0 Safari/537.36 AVG/131.0.0.0","WebKit","Chrome","131.0.0.0","Windows","10.0","https://app.prolific.com/","en-US,en;q=0.9","667abe08bc794718ca0cf87b","679edb085803f58d6bbd31ca","679ee0ada7ec9ae3889c8c0e","","267","","1","Intro Trial","",""
"","","","","","html-button-response","20","1327113","0.0-4.16-0.16-0.16","14","1","2025-02-02 03:04:27","bc01a2b6f61d06f6604adb8657495020","24.181.98.154","Mozilla/5.0 (Windows NT 10.0; Win64; x64) AppleWebKit/537.36 (KHTML, like Gecko) Chrome/131.0.0.0 Safari/537.36 AVG/131.0.0.0","WebKit","Chrome","131.0.0.0","Windows","10.0","https://app.prolific.com/","en-US,en;q=0.9","667abe08bc794718ca0cf87b","679edb085803f58d6bbd31ca","679ee0ada7ec9ae3889c8c0e","","1708","","4","Intro Trial","",""
"","","","","","html-button-response","21","1327333","0.0-4.17-0.17-0.17","14","1","2025-02-02 03:04:27","bc01a2b6f61d06f6604adb8657495020","24.181.98.154","Mozilla/5.0 (Windows NT 10.0; Win64; x64) AppleWebKit/537.36 (KHTML, like Gecko) Chrome/131.0.0.0 Safari/537.36 AVG/131.0.0.0","WebKit","Chrome","131.0.0.0","Windows","10.0","https://app.prolific.com/","en-US,en;q=0.9","667abe08bc794718ca0cf87b","679edb085803f58d6bbd31ca","679ee0ada7ec9ae3889c8c0e","","218","","3","Intro Trial","",""
"","","","","","html-button-response","22","1327953","0.0-4.18-0.18-0.18","14","1","2025-02-02 03:04:27","bc01a2b6f61d06f6604adb8657495020","24.181.98.154","Mozilla/5.0 (Windows NT 10.0; Win64; x64) AppleWebKit/537.36 (KHTML, like Gecko) Chrome/131.0.0.0 Safari/537.36 AVG/131.0.0.0","WebKit","Chrome","131.0.0.0","Windows","10.0","https://app.prolific.com/","en-US,en;q=0.9","667abe08bc794718ca0cf87b","679edb085803f58d6bbd31ca","679ee0ada7ec9ae3889c8c0e","","619","","3","Intro Trial","",""
"","","","","","html-button-response","23","1328202","0.0-4.19-0.19-0.19","14","1","2025-02-02 03:04:27","bc01a2b6f61d06f6604adb8657495020","24.181.98.154","Mozilla/5.0 (Windows NT 10.0; Win64; x64) AppleWebKit/537.36 (KHTML, like Gecko) Chrome/131.0.0.0 Safari/537.36 AVG/131.0.0.0","WebKit","Chrome","131.0.0.0","Windows","10.0","https://app.prolific.com/","en-US,en;q=0.9","667abe08bc794718ca0cf87b","679edb085803f58d6bbd31ca","679ee0ada7ec9ae3889c8c0e","","247","","2","Intro Trial","",""
"","","","","","html-button-response","24","1328958","0.0-4.20-0.20-0.20","14","1","2025-02-02 03:04:27","bc01a2b6f61d06f6604adb8657495020","24.181.98.154","Mozilla/5.0 (Windows NT 10.0; Win64; x64) AppleWebKit/537.36 (KHTML, like Gecko) Chrome/131.0.0.0 Safari/537.36 AVG/131.0.0.0","WebKit","Chrome","131.0.0.0","Windows","10.0","https://app.prolific.com/","en-US,en;q=0.9","667abe08bc794718ca0cf87b","679edb085803f58d6bbd31ca","679ee0ada7ec9ae3889c8c0e","","755","","1","Intro Trial","",""
"","","","","","html-button-response","25","1329253","0.0-4.21-0.21-0.21","14","1","2025-02-02 03:04:27","bc01a2b6f61d06f6604adb8657495020","24.181.98.154","Mozilla/5.0 (Windows NT 10.0; Win64; x64) AppleWebKit/537.36 (KHTML, like Gecko) Chrome/131.0.0.0 Safari/537.36 AVG/131.0.0.0","WebKit","Chrome","131.0.0.0","Windows","10.0","https://app.prolific.com/","en-US,en;q=0.9","667abe08bc794718ca0cf87b","679edb085803f58d6bbd31ca","679ee0ada7ec9ae3889c8c0e","","292","","2","Intro Trial","",""
"","","","","","html-button-response","26","1329859","0.0-4.22-0.22-0.22","14","1","2025-02-02 03:04:27","bc01a2b6f61d06f6604adb8657495020","24.181.98.154","Mozilla/5.0 (Windows NT 10.0; Win64; x64) AppleWebKit/537.36 (KHTML, like Gecko) Chrome/131.0.0.0 Safari/537.36 AVG/131.0.0.0","WebKit","Chrome","131.0.0.0","Windows","10.0","https://app.prolific.com/","en-US,en;q=0.9","667abe08bc794718ca0cf87b","679edb085803f58d6bbd31ca","679ee0ada7ec9ae3889c8c0e","","604","","1","Intro Trial","",""
"","","","","","html-button-response","27","1330923","0.0-4.23-0.23-0.23","14","1","2025-02-02 03:04:27","bc01a2b6f61d06f6604adb8657495020","24.181.98.154","Mozilla/5.0 (Windows NT 10.0; Win64; x64) AppleWebKit/537.36 (KHTML, like Gecko) Chrome/131.0.0.0 Safari/537.36 AVG/131.0.0.0","WebKit","Chrome","131.0.0.0","Windows","10.0","https://app.prolific.com/","en-US,en;q=0.9","667abe08bc794718ca0cf87b","679edb085803f58d6bbd31ca","679ee0ada7ec9ae3889c8c0e","","1063","","2","Intro Trial","",""
"","","","","","html-button-response","28","1331178","0.0-4.24-0.24-0.24","14","1","2025-02-02 03:04:27","bc01a2b6f61d06f6604adb8657495020","24.181.98.154","Mozilla/5.0 (Windows NT 10.0; Win64; x64) AppleWebKit/537.36 (KHTML, like Gecko) Chrome/131.0.0.0 Safari/537.36 AVG/131.0.0.0","WebKit","Chrome","131.0.0.0","Windows","10.0","https://app.prolific.com/","en-US,en;q=0.9","667abe08bc794718ca0cf87b","679edb085803f58d6bbd31ca","679ee0ada7ec9ae3889c8c0e","","254","","3","Intro Trial","",""
"","","","","","html-button-response","29","1331928","0.0-4.25-0.25-0.25","14","1","2025-02-02 03:04:27","bc01a2b6f61d06f6604adb8657495020","24.181.98.154","Mozilla/5.0 (Windows NT 10.0; Win64; x64) AppleWebKit/537.36 (KHTML, like Gecko) Chrome/131.0.0.0 Safari/537.36 AVG/131.0.0.0","WebKit","Chrome","131.0.0.0","Windows","10.0","https://app.prolific.com/","en-US,en;q=0.9","667abe08bc794718ca0cf87b","679edb085803f58d6bbd31ca","679ee0ada7ec9ae3889c8c0e","","748","","4","Intro Trial","",""
"","","","","","html-button-response","30","1332184","0.0-4.26-0.26-0.26","14","1","2025-02-02 03:04:27","bc01a2b6f61d06f6604adb8657495020","24.181.98.154","Mozilla/5.0 (Windows NT 10.0; Win64; x64) AppleWebKit/537.36 (KHTML, like Gecko) Chrome/131.0.0.0 Safari/537.36 AVG/131.0.0.0","WebKit","Chrome","131.0.0.0","Windows","10.0","https://app.prolific.com/","en-US,en;q=0.9","667abe08bc794718ca0cf87b","679edb085803f58d6bbd31ca","679ee0ada7ec9ae3889c8c0e","","253","","3","Intro Trial","",""
"","","","","","html-button-response","31","1344823","0.0-4.27-0.27-0.27","14","1","2025-02-02 03:04:27","bc01a2b6f61d06f6604adb8657495020","24.181.98.154","Mozilla/5.0 (Windows NT 10.0; Win64; x64) AppleWebKit/537.36 (KHTML, like Gecko) Chrome/131.0.0.0 Safari/537.36 AVG/131.0.0.0","WebKit","Chrome","131.0.0.0","Windows","10.0","https://app.prolific.com/","en-US,en;q=0.9","667abe08bc794718ca0cf87b","679edb085803f58d6bbd31ca","679ee0ada7ec9ae3889c8c0e","","12637","","4","Intro Trial","",""
"","","","","","html-button-response","32","1345129","0.0-4.28-0.28-0.28","14","1","2025-02-02 03:04:27","bc01a2b6f61d06f6604adb8657495020","24.181.98.154","Mozilla/5.0 (Windows NT 10.0; Win64; x64) AppleWebKit/537.36 (KHTML, like Gecko) Chrome/131.0.0.0 Safari/537.36 AVG/131.0.0.0","WebKit","Chrome","131.0.0.0","Windows","10.0","https://app.prolific.com/","en-US,en;q=0.9","667abe08bc794718ca0cf87b","679edb085803f58d6bbd31ca","679ee0ada7ec9ae3889c8c0e","","305","","3","Intro Trial","",""
"","","","","","html-button-response","33","1345790","0.0-4.29-0.29-0.29","14","1","2025-02-02 03:04:27","bc01a2b6f61d06f6604adb8657495020","24.181.98.154","Mozilla/5.0 (Windows NT 10.0; Win64; x64) AppleWebKit/537.36 (KHTML, like Gecko) Chrome/131.0.0.0 Safari/537.36 AVG/131.0.0.0","WebKit","Chrome","131.0.0.0","Windows","10.0","https://app.prolific.com/","en-US,en;q=0.9","667abe08bc794718ca0cf87b","679edb085803f58d6bbd31ca","679ee0ada7ec9ae3889c8c0e","","658","","2","Intro Trial","",""
"","","","","","html-button-response","34","1346059","0.0-4.30-0.30-0.30","14","1","2025-02-02 03:04:27","bc01a2b6f61d06f6604adb8657495020","24.181.98.154","Mozilla/5.0 (Windows NT 10.0; Win64; x64) AppleWebKit/537.36 (KHTML, like Gecko) Chrome/131.0.0.0 Safari/537.36 AVG/131.0.0.0","WebKit","Chrome","131.0.0.0","Windows","10.0","https://app.prolific.com/","en-US,en;q=0.9","667abe08bc794718ca0cf87b","679edb085803f58d6bbd31ca","679ee0ada7ec9ae3889c8c0e","","268","","3","Intro Trial","",""
"","","","","","html-button-response","35","1346646","0.0-4.31-0.31-0.31","14","1","2025-02-02 03:04:27","bc01a2b6f61d06f6604adb8657495020","24.181.98.154","Mozilla/5.0 (Windows NT 10.0; Win64; x64) AppleWebKit/537.36 (KHTML, like Gecko) Chrome/131.0.0.0 Safari/537.36 AVG/131.0.0.0","WebKit","Chrome","131.0.0.0","Windows","10.0","https://app.prolific.com/","en-US,en;q=0.9","667abe08bc794718ca0cf87b","679edb085803f58d6bbd31ca","679ee0ada7ec9ae3889c8c0e","","586","","1","Intro Trial","",""
"","","","","","html-button-response","36","1346922","0.0-4.32-0.32-0.32","14","1","2025-02-02 03:04:27","bc01a2b6f61d06f6604adb8657495020","24.181.98.154","Mozilla/5.0 (Windows NT 10.0; Win64; x64) AppleWebKit/537.36 (KHTML, like Gecko) Chrome/131.0.0.0 Safari/537.36 AVG/131.0.0.0","WebKit","Chrome","131.0.0.0","Windows","10.0","https://app.prolific.com/","en-US,en;q=0.9","667abe08bc794718ca0cf87b","679edb085803f58d6bbd31ca","679ee0ada7ec9ae3889c8c0e","","274","","2","Intro Trial","",""
"","","","","","html-button-response","37","1348108","0.0-4.33-0.33-0.33","14","1","2025-02-02 03:04:27","bc01a2b6f61d06f6604adb8657495020","24.181.98.154","Mozilla/5.0 (Windows NT 10.0; Win64; x64) AppleWebKit/537.36 (KHTML, like Gecko) Chrome/131.0.0.0 Safari/537.36 AVG/131.0.0.0","WebKit","Chrome","131.0.0.0","Windows","10.0","https://app.prolific.com/","en-US,en;q=0.9","667abe08bc794718ca0cf87b","679edb085803f58d6bbd31ca","679ee0ada7ec9ae3889c8c0e","","1183","","0","Intro Trial","",""
"","","","","","html-button-response","38","1348504","0.0-4.34-0.34-0.34","14","1","2025-02-02 03:04:27","bc01a2b6f61d06f6604adb8657495020","24.181.98.154","Mozilla/5.0 (Windows NT 10.0; Win64; x64) AppleWebKit/537.36 (KHTML, like Gecko) Chrome/131.0.0.0 Safari/537.36 AVG/131.0.0.0","WebKit","Chrome","131.0.0.0","Windows","10.0","https://app.prolific.com/","en-US,en;q=0.9","667abe08bc794718ca0cf87b","679edb085803f58d6bbd31ca","679ee0ada7ec9ae3889c8c0e","","394","","0","Intro Trial","",""
"","","","","","html-button-response","39","1349143","0.0-4.35-0.35-0.35","14","1","2025-02-02 03:04:27","bc01a2b6f61d06f6604adb8657495020","24.181.98.154","Mozilla/5.0 (Windows NT 10.0; Win64; x64) AppleWebKit/537.36 (KHTML, like Gecko) Chrome/131.0.0.0 Safari/537.36 AVG/131.0.0.0","WebKit","Chrome","131.0.0.0","Windows","10.0","https://app.prolific.com/","en-US,en;q=0.9","667abe08bc794718ca0cf87b","679edb085803f58d6bbd31ca","679ee0ada7ec9ae3889c8c0e","","637","","4","Intro Trial","",""
"","","","","","html-button-response","40","1350005","0.0-4.36-0.36-0.36","14","1","2025-02-02 03:04:27","bc01a2b6f61d06f6604adb8657495020","24.181.98.154","Mozilla/5.0 (Windows NT 10.0; Win64; x64) AppleWebKit/537.36 (KHTML, like Gecko) Chrome/131.0.0.0 Safari/537.36 AVG/131.0.0.0","WebKit","Chrome","131.0.0.0","Windows","10.0","https://app.prolific.com/","en-US,en;q=0.9","667abe08bc794718ca0cf87b","679edb085803f58d6bbd31ca","679ee0ada7ec9ae3889c8c0e","","859","","5","Intro Trial","",""
"","","","","","html-keyboard-response","41","1360884","0.0-5.0","14","1","2025-02-02 03:04:27","bc01a2b6f61d06f6604adb8657495020","24.181.98.154","Mozilla/5.0 (Windows NT 10.0; Win64; x64) AppleWebKit/537.36 (KHTML, like Gecko) Chrome/131.0.0.0 Safari/537.36 AVG/131.0.0.0","WebKit","Chrome","131.0.0.0","Windows","10.0","https://app.prolific.com/","en-US,en;q=0.9","667abe08bc794718ca0cf87b","679edb085803f58d6bbd31ca","679ee0ada7ec9ae3889c8c0e","","10878","[""You sorted correctly by using the balance 18 times. <br><br> <img src='G_5.jpg' height='90'><img src='G_2.jpg' height='90'><img src='G_3.jpg' height='90'><img src='G_1.jpg' height='90'><img src='G_4.jpg' height='90'><br><br> Your final order is 1,2,3,4,5<br><br><br>Omgne Sort in this game will allow you to sort correctly by using the balance 8 times. Press Enter to learn it!""]","enter","","",""
"","","","","","html-keyboard-response","42","1404713","0.0-6.0","14","1","2025-02-02 03:04:27","bc01a2b6f61d06f6604adb8657495020","24.181.98.154","Mozilla/5.0 (Windows NT 10.0; Win64; x64) AppleWebKit/537.36 (KHTML, like Gecko) Chrome/131.0.0.0 Safari/537.36 AVG/131.0.0.0","WebKit","Chrome","131.0.0.0","Windows","10.0","https://app.prolific.com/","en-US,en;q=0.9","667abe08bc794718ca0cf87b","679edb085803f58d6bbd31ca","679ee0ada7ec9ae3889c8c0e","","43828","<p>Welcome to the learning phase! <br><br> You will learn by six examples. The following learning trials will not be used to calculate your performance. <br><br> Press Enter to continue.<p/>","enter","","",""
"","","","","","html-keyboard-response","43","1408875","0.0-7.0","14","1","2025-02-02 03:04:27","bc01a2b6f61d06f6604adb8657495020","24.181.98.154","Mozilla/5.0 (Windows NT 10.0; Win64; x64) AppleWebKit/537.36 (KHTML, like Gecko) Chrome/131.0.0.0 Safari/537.36 AVG/131.0.0.0","WebKit","Chrome","131.0.0.0","Windows","10.0","https://app.prolific.com/","en-US,en;q=0.9","667abe08bc794718ca0cf87b","679edb085803f58d6bbd31ca","679ee0ada7ec9ae3889c8c0e","","4160","[""Example 1<br><br>You will watch Omnge Sort in action. Try to identify any patterns in the comparisons made by this method. <br><br>Press Enter to continue.""]","enter","","",""
"","","","","","html-keyboard-response","44","1409378","0.0-8.0","14","1","2025-02-02 03:04:27","bc01a2b6f61d06f6604adb8657495020","24.181.98.154","Mozilla/5.0 (Windows NT 10.0; Win64; x64) AppleWebKit/537.36 (KHTML, like Gecko) Chrome/131.0.0.0 Safari/537.36 AVG/131.0.0.0","WebKit","Chrome","131.0.0.0","Windows","10.0","https://app.prolific.com/","en-US,en;q=0.9","667abe08bc794718ca0cf87b","679edb085803f58d6bbd31ca","679ee0ada7ec9ae3889c8c0e","","null","<img id='selected' src='G_5.jpg' height='90'> <img src='G_1.jpg' height='90'> <img src='G_3.jpg' height='90'> <img src='G_9.jpg' height='90'> <img src='G_7.jpg' height='90'>","null","Animation0","",""
"","","","","","html-keyboard-response","45","1409881","0.0-9.0","14","1","2025-02-02 03:04:27","bc01a2b6f61d06f6604adb8657495020","24.181.98.154","Mozilla/5.0 (Windows NT 10.0; Win64; x64) AppleWebKit/537.36 (KHTML, like Gecko) Chrome/131.0.0.0 Safari/537.36 AVG/131.0.0.0","WebKit","Chrome","131.0.0.0","Windows","10.0","https://app.prolific.com/","en-US,en;q=0.9","667abe08bc794718ca0cf87b","679edb085803f58d6bbd31ca","679ee0ada7ec9ae3889c8c0e","","null","<img id='selected' src='G_5.jpg' height='90'> <img id='selected' src='G_1.jpg' height='90'> <img src='G_3.jpg' height='90'> <img src='G_9.jpg' height='90'> <img src='G_7.jpg' height='90'>","null","Animation0","",""
"","","","","","html-keyboard-response","46","1410387","0.0-10.0","14","1","2025-02-02 03:04:27","bc01a2b6f61d06f6604adb8657495020","24.181.98.154","Mozilla/5.0 (Windows NT 10.0; Win64; x64) AppleWebKit/537.36 (KHTML, like Gecko) Chrome/131.0.0.0 Safari/537.36 AVG/131.0.0.0","WebKit","Chrome","131.0.0.0","Windows","10.0","https://app.prolific.com/","en-US,en;q=0.9","667abe08bc794718ca0cf87b","679edb085803f58d6bbd31ca","679ee0ada7ec9ae3889c8c0e","","null","<img id='swapped' src='G_1.jpg' height='90'> <img id='swapped' src='G_5.jpg' height='90'> <img src='G_3.jpg' height='90'> <img src='G_9.jpg' height='90'> <img src='G_7.jpg' height='90'>","null","Animation0","",""
"","","","","","html-keyboard-response","47","1410692","0.0-11.0","14","1","2025-02-02 03:04:27","bc01a2b6f61d06f6604adb8657495020","24.181.98.154","Mozilla/5.0 (Windows NT 10.0; Win64; x64) AppleWebKit/537.36 (KHTML, like Gecko) Chrome/131.0.0.0 Safari/537.36 AVG/131.0.0.0","WebKit","Chrome","131.0.0.0","Windows","10.0","https://app.prolific.com/","en-US,en;q=0.9","667abe08bc794718ca0cf87b","679edb085803f58d6bbd31ca","679ee0ada7ec9ae3889c8c0e","","null","<img  src='G_1.jpg' height='90'> <img  src='G_5.jpg' height='90'> <img src='G_3.jpg' height='90'> <img src='G_9.jpg' height='90'> <img src='G_7.jpg' height='90'>","null","Animation0","",""
"","","","","","html-keyboard-response","48","1411195","0.0-12.0","14","1","2025-02-02 03:04:27","bc01a2b6f61d06f6604adb8657495020","24.181.98.154","Mozilla/5.0 (Windows NT 10.0; Win64; x64) AppleWebKit/537.36 (KHTML, like Gecko) Chrome/131.0.0.0 Safari/537.36 AVG/131.0.0.0","WebKit","Chrome","131.0.0.0","Windows","10.0","https://app.prolific.com/","en-US,en;q=0.9","667abe08bc794718ca0cf87b","679edb085803f58d6bbd31ca","679ee0ada7ec9ae3889c8c0e","","null","<img  src='G_1.jpg' height='90'> <img id='selected'  src='G_5.jpg' height='90'> <img src='G_3.jpg' height='90'> <img src='G_9.jpg' height='90'> <img src='G_7.jpg' height='90'>","null","Animation0","",""
"","","","","","html-keyboard-response","49","1411698","0.0-13.0","14","1","2025-02-02 03:04:27","bc01a2b6f61d06f6604adb8657495020","24.181.98.154","Mozilla/5.0 (Windows NT 10.0; Win64; x64) AppleWebKit/537.36 (KHTML, like Gecko) Chrome/131.0.0.0 Safari/537.36 AVG/131.0.0.0","WebKit","Chrome","131.0.0.0","Windows","10.0","https://app.prolific.com/","en-US,en;q=0.9","667abe08bc794718ca0cf87b","679edb085803f58d6bbd31ca","679ee0ada7ec9ae3889c8c0e","","null","<img  src='G_1.jpg' height='90'> <img id='selected'  src='G_5.jpg' height='90'> <img id='selected' src='G_3.jpg' height='90'> <img src='G_9.jpg' height='90'> <img src='G_7.jpg' height='90'>","null","Animation0","",""
"","","","","","html-keyboard-response","50","1412203","0.0-14.0","14","1","2025-02-02 03:04:27","bc01a2b6f61d06f6604adb8657495020","24.181.98.154","Mozilla/5.0 (Windows NT 10.0; Win64; x64) AppleWebKit/537.36 (KHTML, like Gecko) Chrome/131.0.0.0 Safari/537.36 AVG/131.0.0.0","WebKit","Chrome","131.0.0.0","Windows","10.0","https://app.prolific.com/","en-US,en;q=0.9","667abe08bc794718ca0cf87b","679edb085803f58d6bbd31ca","679ee0ada7ec9ae3889c8c0e","","null","<img  src='G_1.jpg' height='90'> <img id='selected'  src='G_5.jpg' height='90'> <img id='selected' src='G_3.jpg' height='90'> <img src='G_9.jpg' height='90'> <img src='G_7.jpg' height='90'>","null","Animation0","",""
"","","","","","html-keyboard-response","51","1412508","0.0-15.0","14","1","2025-02-02 03:04:27","bc01a2b6f61d06f6604adb8657495020","24.181.98.154","Mozilla/5.0 (Windows NT 10.0; Win64; x64) AppleWebKit/537.36 (KHTML, like Gecko) Chrome/131.0.0.0 Safari/537.36 AVG/131.0.0.0","WebKit","Chrome","131.0.0.0","Windows","10.0","https://app.prolific.com/","en-US,en;q=0.9","667abe08bc794718ca0cf87b","679edb085803f58d6bbd31ca","679ee0ada7ec9ae3889c8c0e","","null","<img  src='G_1.jpg' height='90'> <img   src='G_5.jpg' height='90'> <img  src='G_3.jpg' height='90'> <img src='G_9.jpg' height='90'> <img src='G_7.jpg' height='90'>","null","Animation0","",""
"","","","","","html-keyboard-response","52","1413012","0.0-16.0","14","1","2025-02-02 03:04:27","bc01a2b6f61d06f6604adb8657495020","24.181.98.154","Mozilla/5.0 (Windows NT 10.0; Win64; x64) AppleWebKit/537.36 (KHTML, like Gecko) Chrome/131.0.0.0 Safari/537.36 AVG/131.0.0.0","WebKit","Chrome","131.0.0.0","Windows","10.0","https://app.prolific.com/","en-US,en;q=0.9","667abe08bc794718ca0cf87b","679edb085803f58d6bbd31ca","679ee0ada7ec9ae3889c8c0e","","null","<img  src='G_1.jpg' height='90'> <img   src='G_5.jpg' height='90'> <img id='selected'  src='G_3.jpg' height='90'> <img src='G_9.jpg' height='90'> <img src='G_7.jpg' height='90'>","null","Animation0","",""
"","","","","","html-keyboard-response","53","1413514","0.0-17.0","14","1","2025-02-02 03:04:27","bc01a2b6f61d06f6604adb8657495020","24.181.98.154","Mozilla/5.0 (Windows NT 10.0; Win64; x64) AppleWebKit/537.36 (KHTML, like Gecko) Chrome/131.0.0.0 Safari/537.36 AVG/131.0.0.0","WebKit","Chrome","131.0.0.0","Windows","10.0","https://app.prolific.com/","en-US,en;q=0.9","667abe08bc794718ca0cf87b","679edb085803f58d6bbd31ca","679ee0ada7ec9ae3889c8c0e","","null","<img  src='G_1.jpg' height='90'> <img   src='G_5.jpg' height='90'> <img id='selected'  src='G_3.jpg' height='90'> <img id='selected' src='G_9.jpg' height='90'> <img src='G_7.jpg' height='90'>","null","Animation0","",""
"","","","","","html-keyboard-response","54","1414020","0.0-18.0","14","1","2025-02-02 03:04:27","bc01a2b6f61d06f6604adb8657495020","24.181.98.154","Mozilla/5.0 (Windows NT 10.0; Win64; x64) AppleWebKit/537.36 (KHTML, like Gecko) Chrome/131.0.0.0 Safari/537.36 AVG/131.0.0.0","WebKit","Chrome","131.0.0.0","Windows","10.0","https://app.prolific.com/","en-US,en;q=0.9","667abe08bc794718ca0cf87b","679edb085803f58d6bbd31ca","679ee0ada7ec9ae3889c8c0e","","null","<img  src='G_1.jpg' height='90'> <img   src='G_5.jpg' height='90'> <img id='selected'  src='G_3.jpg' height='90'> <img id='selected' src='G_9.jpg' height='90'> <img src='G_7.jpg' height='90'>","null","Animation0","",""
"","","","","","html-keyboard-response","55","1414324","0.0-19.0","14","1","2025-02-02 03:04:27","bc01a2b6f61d06f6604adb8657495020","24.181.98.154","Mozilla/5.0 (Windows NT 10.0; Win64; x64) AppleWebKit/537.36 (KHTML, like Gecko) Chrome/131.0.0.0 Safari/537.36 AVG/131.0.0.0","WebKit","Chrome","131.0.0.0","Windows","10.0","https://app.prolific.com/","en-US,en;q=0.9","667abe08bc794718ca0cf87b","679edb085803f58d6bbd31ca","679ee0ada7ec9ae3889c8c0e","","null","<img  src='G_1.jpg' height='90'> <img   src='G_5.jpg' height='90'> <img   src='G_3.jpg' height='90'> <img  src='G_9.jpg' height='90'> <img src='G_7.jpg' height='90'>","null","Animation0","",""
"","","","","","html-keyboard-response","56","1414829","0.0-20.0","14","1","2025-02-02 03:04:27","bc01a2b6f61d06f6604adb8657495020","24.181.98.154","Mozilla/5.0 (Windows NT 10.0; Win64; x64) AppleWebKit/537.36 (KHTML, like Gecko) Chrome/131.0.0.0 Safari/537.36 AVG/131.0.0.0","WebKit","Chrome","131.0.0.0","Windows","10.0","https://app.prolific.com/","en-US,en;q=0.9","667abe08bc794718ca0cf87b","679edb085803f58d6bbd31ca","679ee0ada7ec9ae3889c8c0e","","null","<img  src='G_1.jpg' height='90'> <img   src='G_5.jpg' height='90'> <img   src='G_3.jpg' height='90'> <img id='selected'  src='G_9.jpg' height='90'> <img src='G_7.jpg' height='90'>","null","Animation0","",""
"","","","","","html-keyboard-response","57","1415334","0.0-21.0","14","1","2025-02-02 03:04:27","bc01a2b6f61d06f6604adb8657495020","24.181.98.154","Mozilla/5.0 (Windows NT 10.0; Win64; x64) AppleWebKit/537.36 (KHTML, like Gecko) Chrome/131.0.0.0 Safari/537.36 AVG/131.0.0.0","WebKit","Chrome","131.0.0.0","Windows","10.0","https://app.prolific.com/","en-US,en;q=0.9","667abe08bc794718ca0cf87b","679edb085803f58d6bbd31ca","679ee0ada7ec9ae3889c8c0e","","null","<img  src='G_1.jpg' height='90'> <img   src='G_5.jpg' height='90'> <img   src='G_3.jpg' height='90'> <img id='selected'  src='G_9.jpg' height='90'> <img id='selected' src='G_7.jpg' height='90'>","null","Animation0","",""
"","","","","","html-keyboard-response","58","1415838","0.0-22.0","14","1","2025-02-02 03:04:27","bc01a2b6f61d06f6604adb8657495020","24.181.98.154","Mozilla/5.0 (Windows NT 10.0; Win64; x64) AppleWebKit/537.36 (KHTML, like Gecko) Chrome/131.0.0.0 Safari/537.36 AVG/131.0.0.0","WebKit","Chrome","131.0.0.0","Windows","10.0","https://app.prolific.com/","en-US,en;q=0.9","667abe08bc794718ca0cf87b","679edb085803f58d6bbd31ca","679ee0ada7ec9ae3889c8c0e","","null","<img  src='G_1.jpg' height='90'> <img   src='G_5.jpg' height='90'> <img   src='G_3.jpg' height='90'> <img id='selected'  src='G_9.jpg' height='90'> <img id='selected' src='G_7.jpg' height='90'>","null","Animation0","",""
"","","","","","html-keyboard-response","59","1416144","0.0-23.0","14","1","2025-02-02 03:04:27","bc01a2b6f61d06f6604adb8657495020","24.181.98.154","Mozilla/5.0 (Windows NT 10.0; Win64; x64) AppleWebKit/537.36 (KHTML, like Gecko) Chrome/131.0.0.0 Safari/537.36 AVG/131.0.0.0","WebKit","Chrome","131.0.0.0","Windows","10.0","https://app.prolific.com/","en-US,en;q=0.9","667abe08bc794718ca0cf87b","679edb085803f58d6bbd31ca","679ee0ada7ec9ae3889c8c0e","","null","<img  src='G_1.jpg' height='90'> <img   src='G_5.jpg' height='90'> <img   src='G_3.jpg' height='90'> <img   src='G_9.jpg' height='90'> <img  src='G_7.jpg' height='90'>","null","Animation0","",""
"","","","","","html-keyboard-response","60","1418458","0.0-24.0","14","1","2025-02-02 03:04:27","bc01a2b6f61d06f6604adb8657495020","24.181.98.154","Mozilla/5.0 (Windows NT 10.0; Win64; x64) AppleWebKit/537.36 (KHTML, like Gecko) Chrome/131.0.0.0 Safari/537.36 AVG/131.0.0.0","WebKit","Chrome","131.0.0.0","Windows","10.0","https://app.prolific.com/","en-US,en;q=0.9","667abe08bc794718ca0cf87b","679edb085803f58d6bbd31ca","679ee0ada7ec9ae3889c8c0e","","2310","[""Did you notice any patterns? <br><br>Press Enter to watch that example again and follow the steps of Omgne Sort.""]","enter","","",""
"","","","","","html-button-response","61","1418862","0.0-25.0","14","1","2025-02-02 03:04:27","bc01a2b6f61d06f6604adb8657495020","24.181.98.154","Mozilla/5.0 (Windows NT 10.0; Win64; x64) AppleWebKit/537.36 (KHTML, like Gecko) Chrome/131.0.0.0 Safari/537.36 AVG/131.0.0.0","WebKit","Chrome","131.0.0.0","Windows","10.0","https://app.prolific.com/","en-US,en;q=0.9","667abe08bc794718ca0cf87b","679edb085803f58d6bbd31ca","679ee0ada7ec9ae3889c8c0e","","null","<img id='selected' src='G_5.jpg' height='90'> <img src='G_1.jpg' height='90'> <img src='G_3.jpg' height='90'> <img src='G_9.jpg' height='90'> <img src='G_7.jpg' height='90'>","null","Learning example 0","",""
"","","","","","html-button-response","62","1419167","0.0-26.0","14","1","2025-02-02 03:04:27","bc01a2b6f61d06f6604adb8657495020","24.181.98.154","Mozilla/5.0 (Windows NT 10.0; Win64; x64) AppleWebKit/537.36 (KHTML, like Gecko) Chrome/131.0.0.0 Safari/537.36 AVG/131.0.0.0","WebKit","Chrome","131.0.0.0","Windows","10.0","https://app.prolific.com/","en-US,en;q=0.9","667abe08bc794718ca0cf87b","679edb085803f58d6bbd31ca","679ee0ada7ec9ae3889c8c0e","","null","<img id='selected' src='G_5.jpg' height='90'> <img id='selected' src='G_1.jpg' height='90'> <img src='G_3.jpg' height='90'> <img src='G_9.jpg' height='90'> <img src='G_7.jpg' height='90'>","null","Learning example 0","",""
"","","","","","html-button-response","63","1419471","0.0-27.0","14","1","2025-02-02 03:04:27","bc01a2b6f61d06f6604adb8657495020","24.181.98.154","Mozilla/5.0 (Windows NT 10.0; Win64; x64) AppleWebKit/537.36 (KHTML, like Gecko) Chrome/131.0.0.0 Safari/537.36 AVG/131.0.0.0","WebKit","Chrome","131.0.0.0","Windows","10.0","https://app.prolific.com/","en-US,en;q=0.9","667abe08bc794718ca0cf87b","679edb085803f58d6bbd31ca","679ee0ada7ec9ae3889c8c0e","","null","<img id='swapped' src='G_1.jpg' height='90'> <img id='swapped' src='G_5.jpg' height='90'> <img src='G_3.jpg' height='90'> <img src='G_9.jpg' height='90'> <img src='G_7.jpg' height='90'>","null","Learning example 0","",""
"","","","","","html-button-response","64","1426965","0.0-28.0-0.0-0.0","14","1","2025-02-02 03:04:27","bc01a2b6f61d06f6604adb8657495020","24.181.98.154","Mozilla/5.0 (Windows NT 10.0; Win64; x64) AppleWebKit/537.36 (KHTML, like Gecko) Chrome/131.0.0.0 Safari/537.36 AVG/131.0.0.0","WebKit","Chrome","131.0.0.0","Windows","10.0","https://app.prolific.com/","en-US,en;q=0.9","667abe08bc794718ca0cf87b","679edb085803f58d6bbd31ca","679ee0ada7ec9ae3889c8c0e","","7488","<img id='swapped' src='G_1.jpg' height='90'> <img id='swapped' src='G_5.jpg' height='90'> <img src='G_3.jpg' height='90'> <img src='G_9.jpg' height='90'> <img src='G_7.jpg' height='90'>","1","Learning example 0","",""
"","","","","","html-button-response","65","1427342","0.0-28.1-0.1-0.1","14","1","2025-02-02 03:04:27","bc01a2b6f61d06f6604adb8657495020","24.181.98.154","Mozilla/5.0 (Windows NT 10.0; Win64; x64) AppleWebKit/537.36 (KHTML, like Gecko) Chrome/131.0.0.0 Safari/537.36 AVG/131.0.0.0","WebKit","Chrome","131.0.0.0","Windows","10.0","https://app.prolific.com/","en-US,en;q=0.9","667abe08bc794718ca0cf87b","679edb085803f58d6bbd31ca","679ee0ada7ec9ae3889c8c0e","","374","<img id='swapped' src='G_1.jpg' height='90'> <img id='swapped' src='G_5.jpg' height='90'> <img src='G_3.jpg' height='90'> <img src='G_9.jpg' height='90'> <img src='G_7.jpg' height='90'>","0","Learning example 0","",""
"","","","","","html-button-response","66","1427546","0.0-29.0","14","1","2025-02-02 03:04:27","bc01a2b6f61d06f6604adb8657495020","24.181.98.154","Mozilla/5.0 (Windows NT 10.0; Win64; x64) AppleWebKit/537.36 (KHTML, like Gecko) Chrome/131.0.0.0 Safari/537.36 AVG/131.0.0.0","WebKit","Chrome","131.0.0.0","Windows","10.0","https://app.prolific.com/","en-US,en;q=0.9","667abe08bc794718ca0cf87b","679edb085803f58d6bbd31ca","679ee0ada7ec9ae3889c8c0e","","null","<img  src='G_1.jpg' height='90'> <img  src='G_5.jpg' height='90'> <img src='G_3.jpg' height='90'> <img src='G_9.jpg' height='90'> <img src='G_7.jpg' height='90'>","null","Learning example 0","",""
"","","","","","html-button-response","67","1427948","0.0-30.0","14","1","2025-02-02 03:04:27","bc01a2b6f61d06f6604adb8657495020","24.181.98.154","Mozilla/5.0 (Windows NT 10.0; Win64; x64) AppleWebKit/537.36 (KHTML, like Gecko) Chrome/131.0.0.0 Safari/537.36 AVG/131.0.0.0","WebKit","Chrome","131.0.0.0","Windows","10.0","https://app.prolific.com/","en-US,en;q=0.9","667abe08bc794718ca0cf87b","679edb085803f58d6bbd31ca","679ee0ada7ec9ae3889c8c0e","","null","<img  src='G_1.jpg' height='90'> <img id='selected'  src='G_5.jpg' height='90'> <img src='G_3.jpg' height='90'> <img src='G_9.jpg' height='90'> <img src='G_7.jpg' height='90'>","null","Learning example 0","",""
"","","","","","html-button-response","68","1428250","0.0-31.0","14","1","2025-02-02 03:04:27","bc01a2b6f61d06f6604adb8657495020","24.181.98.154","Mozilla/5.0 (Windows NT 10.0; Win64; x64) AppleWebKit/537.36 (KHTML, like Gecko) Chrome/131.0.0.0 Safari/537.36 AVG/131.0.0.0","WebKit","Chrome","131.0.0.0","Windows","10.0","https://app.prolific.com/","en-US,en;q=0.9","667abe08bc794718ca0cf87b","679edb085803f58d6bbd31ca","679ee0ada7ec9ae3889c8c0e","","null","<img  src='G_1.jpg' height='90'> <img id='selected'  src='G_5.jpg' height='90'> <img id='selected' src='G_3.jpg' height='90'> <img src='G_9.jpg' height='90'> <img src='G_7.jpg' height='90'>","null","Learning example 0","",""
"","","","","","html-button-response","69","1428553","0.0-32.0","14","1","2025-02-02 03:04:27","bc01a2b6f61d06f6604adb8657495020","24.181.98.154","Mozilla/5.0 (Windows NT 10.0; Win64; x64) AppleWebKit/537.36 (KHTML, like Gecko) Chrome/131.0.0.0 Safari/537.36 AVG/131.0.0.0","WebKit","Chrome","131.0.0.0","Windows","10.0","https://app.prolific.com/","en-US,en;q=0.9","667abe08bc794718ca0cf87b","679edb085803f58d6bbd31ca","679ee0ada7ec9ae3889c8c0e","","null","<img  src='G_1.jpg' height='90'> <img id='selected'  src='G_5.jpg' height='90'> <img id='selected' src='G_3.jpg' height='90'> <img src='G_9.jpg' height='90'> <img src='G_7.jpg' height='90'>","null","Learning example 0","",""
"","","","","","html-button-response","70","1436580","0.0-33.0-0.0-0.0","14","1","2025-02-02 03:04:27","bc01a2b6f61d06f6604adb8657495020","24.181.98.154","Mozilla/5.0 (Windows NT 10.0; Win64; x64) AppleWebKit/537.36 (KHTML, like Gecko) Chrome/131.0.0.0 Safari/537.36 AVG/131.0.0.0","WebKit","Chrome","131.0.0.0","Windows","10.0","https://app.prolific.com/","en-US,en;q=0.9","667abe08bc794718ca0cf87b","679edb085803f58d6bbd31ca","679ee0ada7ec9ae3889c8c0e","","8022","<img  src='G_1.jpg' height='90'> <img id='selected'  src='G_5.jpg' height='90'> <img id='selected' src='G_3.jpg' height='90'> <img src='G_9.jpg' height='90'> <img src='G_7.jpg' height='90'>","2","Learning example 0","",""
"","","","","","html-button-response","71","1437024","0.0-33.1-0.1-0.1","14","1","2025-02-02 03:04:27","bc01a2b6f61d06f6604adb8657495020","24.181.98.154","Mozilla/5.0 (Windows NT 10.0; Win64; x64) AppleWebKit/537.36 (KHTML, like Gecko) Chrome/131.0.0.0 Safari/537.36 AVG/131.0.0.0","WebKit","Chrome","131.0.0.0","Windows","10.0","https://app.prolific.com/","en-US,en;q=0.9","667abe08bc794718ca0cf87b","679edb085803f58d6bbd31ca","679ee0ada7ec9ae3889c8c0e","","442","<img  src='G_1.jpg' height='90'> <img id='selected'  src='G_5.jpg' height='90'> <img id='selected' src='G_3.jpg' height='90'> <img src='G_9.jpg' height='90'> <img src='G_7.jpg' height='90'>","1","Learning example 0","",""
"","","","","","html-button-response","72","1437228","0.0-34.0","14","1","2025-02-02 03:04:27","bc01a2b6f61d06f6604adb8657495020","24.181.98.154","Mozilla/5.0 (Windows NT 10.0; Win64; x64) AppleWebKit/537.36 (KHTML, like Gecko) Chrome/131.0.0.0 Safari/537.36 AVG/131.0.0.0","WebKit","Chrome","131.0.0.0","Windows","10.0","https://app.prolific.com/","en-US,en;q=0.9","667abe08bc794718ca0cf87b","679edb085803f58d6bbd31ca","679ee0ada7ec9ae3889c8c0e","","null","<img  src='G_1.jpg' height='90'> <img   src='G_5.jpg' height='90'> <img  src='G_3.jpg' height='90'> <img src='G_9.jpg' height='90'> <img src='G_7.jpg' height='90'>","null","Learning example 0","",""
"","","","","","html-button-response","73","1437631","0.0-35.0","14","1","2025-02-02 03:04:27","bc01a2b6f61d06f6604adb8657495020","24.181.98.154","Mozilla/5.0 (Windows NT 10.0; Win64; x64) AppleWebKit/537.36 (KHTML, like Gecko) Chrome/131.0.0.0 Safari/537.36 AVG/131.0.0.0","WebKit","Chrome","131.0.0.0","Windows","10.0","https://app.prolific.com/","en-US,en;q=0.9","667abe08bc794718ca0cf87b","679edb085803f58d6bbd31ca","679ee0ada7ec9ae3889c8c0e","","null","<img  src='G_1.jpg' height='90'> <img   src='G_5.jpg' height='90'> <img id='selected'  src='G_3.jpg' height='90'> <img src='G_9.jpg' height='90'> <img src='G_7.jpg' height='90'>","null","Learning example 0","",""
"","","","","","html-button-response","74","1437933","0.0-36.0","14","1","2025-02-02 03:04:27","bc01a2b6f61d06f6604adb8657495020","24.181.98.154","Mozilla/5.0 (Windows NT 10.0; Win64; x64) AppleWebKit/537.36 (KHTML, like Gecko) Chrome/131.0.0.0 Safari/537.36 AVG/131.0.0.0","WebKit","Chrome","131.0.0.0","Windows","10.0","https://app.prolific.com/","en-US,en;q=0.9","667abe08bc794718ca0cf87b","679edb085803f58d6bbd31ca","679ee0ada7ec9ae3889c8c0e","","null","<img  src='G_1.jpg' height='90'> <img   src='G_5.jpg' height='90'> <img id='selected'  src='G_3.jpg' height='90'> <img id='selected' src='G_9.jpg' height='90'> <img src='G_7.jpg' height='90'>","null","Learning example 0","",""
"","","","","","html-button-response","75","1438235","0.0-37.0","14","1","2025-02-02 03:04:27","bc01a2b6f61d06f6604adb8657495020","24.181.98.154","Mozilla/5.0 (Windows NT 10.0; Win64; x64) AppleWebKit/537.36 (KHTML, like Gecko) Chrome/131.0.0.0 Safari/537.36 AVG/131.0.0.0","WebKit","Chrome","131.0.0.0","Windows","10.0","https://app.prolific.com/","en-US,en;q=0.9","667abe08bc794718ca0cf87b","679edb085803f58d6bbd31ca","679ee0ada7ec9ae3889c8c0e","","null","<img  src='G_1.jpg' height='90'> <img   src='G_5.jpg' height='90'> <img id='selected'  src='G_3.jpg' height='90'> <img id='selected' src='G_9.jpg' height='90'> <img src='G_7.jpg' height='90'>","null","Learning example 0","",""
"","","","","","html-button-response","76","1438810","0.0-38.0-0.0-0.0","14","1","2025-02-02 03:04:27","bc01a2b6f61d06f6604adb8657495020","24.181.98.154","Mozilla/5.0 (Windows NT 10.0; Win64; x64) AppleWebKit/537.36 (KHTML, like Gecko) Chrome/131.0.0.0 Safari/537.36 AVG/131.0.0.0","WebKit","Chrome","131.0.0.0","Windows","10.0","https://app.prolific.com/","en-US,en;q=0.9","667abe08bc794718ca0cf87b","679edb085803f58d6bbd31ca","679ee0ada7ec9ae3889c8c0e","","573","<img  src='G_1.jpg' height='90'> <img   src='G_5.jpg' height='90'> <img id='selected'  src='G_3.jpg' height='90'> <img id='selected' src='G_9.jpg' height='90'> <img src='G_7.jpg' height='90'>","4","Learning example 0","",""
"","","","","","html-button-response","77","1439080","0.0-38.1-0.1-0.1","14","1","2025-02-02 03:04:27","bc01a2b6f61d06f6604adb8657495020","24.181.98.154","Mozilla/5.0 (Windows NT 10.0; Win64; x64) AppleWebKit/537.36 (KHTML, like Gecko) Chrome/131.0.0.0 Safari/537.36 AVG/131.0.0.0","WebKit","Chrome","131.0.0.0","Windows","10.0","https://app.prolific.com/","en-US,en;q=0.9","667abe08bc794718ca0cf87b","679edb085803f58d6bbd31ca","679ee0ada7ec9ae3889c8c0e","","264","<img  src='G_1.jpg' height='90'> <img   src='G_5.jpg' height='90'> <img id='selected'  src='G_3.jpg' height='90'> <img id='selected' src='G_9.jpg' height='90'> <img src='G_7.jpg' height='90'>","3","Learning example 0","",""
"","","","","","html-button-response","78","1463651","0.0-38.2-0.2-0.2","14","1","2025-02-02 03:04:27","bc01a2b6f61d06f6604adb8657495020","24.181.98.154","Mozilla/5.0 (Windows NT 10.0; Win64; x64) AppleWebKit/537.36 (KHTML, like Gecko) Chrome/131.0.0.0 Safari/537.36 AVG/131.0.0.0","WebKit","Chrome","131.0.0.0","Windows","10.0","https://app.prolific.com/","en-US,en;q=0.9","667abe08bc794718ca0cf87b","679edb085803f58d6bbd31ca","679ee0ada7ec9ae3889c8c0e","","24568","<img  src='G_1.jpg' height='90'> <img   src='G_5.jpg' height='90'> <img id='selected'  src='G_3.jpg' height='90'> <img id='selected' src='G_9.jpg' height='90'> <img src='G_7.jpg' height='90'>","1","Learning example 0","",""
"","","","","","html-button-response","79","1463912","0.0-38.3-0.3-0.3","14","1","2025-02-02 03:04:27","bc01a2b6f61d06f6604adb8657495020","24.181.98.154","Mozilla/5.0 (Windows NT 10.0; Win64; x64) AppleWebKit/537.36 (KHTML, like Gecko) Chrome/131.0.0.0 Safari/537.36 AVG/131.0.0.0","WebKit","Chrome","131.0.0.0","Windows","10.0","https://app.prolific.com/","en-US,en;q=0.9","667abe08bc794718ca0cf87b","679edb085803f58d6bbd31ca","679ee0ada7ec9ae3889c8c0e","","259","<img  src='G_1.jpg' height='90'> <img   src='G_5.jpg' height='90'> <img id='selected'  src='G_3.jpg' height='90'> <img id='selected' src='G_9.jpg' height='90'> <img src='G_7.jpg' height='90'>","2","Learning example 0","",""
"","","","","","html-button-response","80","1464580","0.0-38.4-0.4-0.4","14","1","2025-02-02 03:04:27","bc01a2b6f61d06f6604adb8657495020","24.181.98.154","Mozilla/5.0 (Windows NT 10.0; Win64; x64) AppleWebKit/537.36 (KHTML, like Gecko) Chrome/131.0.0.0 Safari/537.36 AVG/131.0.0.0","WebKit","Chrome","131.0.0.0","Windows","10.0","https://app.prolific.com/","en-US,en;q=0.9","667abe08bc794718ca0cf87b","679edb085803f58d6bbd31ca","679ee0ada7ec9ae3889c8c0e","","665","<img  src='G_1.jpg' height='90'> <img   src='G_5.jpg' height='90'> <img id='selected'  src='G_3.jpg' height='90'> <img id='selected' src='G_9.jpg' height='90'> <img src='G_7.jpg' height='90'>","1","Learning example 0","",""
"","","","","","html-button-response","81","1464992","0.0-38.5-0.5-0.5","14","1","2025-02-02 03:04:27","bc01a2b6f61d06f6604adb8657495020","24.181.98.154","Mozilla/5.0 (Windows NT 10.0; Win64; x64) AppleWebKit/537.36 (KHTML, like Gecko) Chrome/131.0.0.0 Safari/537.36 AVG/131.0.0.0","WebKit","Chrome","131.0.0.0","Windows","10.0","https://app.prolific.com/","en-US,en;q=0.9","667abe08bc794718ca0cf87b","679edb085803f58d6bbd31ca","679ee0ada7ec9ae3889c8c0e","","409","<img  src='G_1.jpg' height='90'> <img   src='G_5.jpg' height='90'> <img id='selected'  src='G_3.jpg' height='90'> <img id='selected' src='G_9.jpg' height='90'> <img src='G_7.jpg' height='90'>","3","Learning example 0","",""
"","","","","","html-button-response","82","1465682","0.0-38.6-0.6-0.6","14","1","2025-02-02 03:04:27","bc01a2b6f61d06f6604adb8657495020","24.181.98.154","Mozilla/5.0 (Windows NT 10.0; Win64; x64) AppleWebKit/537.36 (KHTML, like Gecko) Chrome/131.0.0.0 Safari/537.36 AVG/131.0.0.0","WebKit","Chrome","131.0.0.0","Windows","10.0","https://app.prolific.com/","en-US,en;q=0.9","667abe08bc794718ca0cf87b","679edb085803f58d6bbd31ca","679ee0ada7ec9ae3889c8c0e","","688","<img  src='G_1.jpg' height='90'> <img   src='G_5.jpg' height='90'> <img id='selected'  src='G_3.jpg' height='90'> <img id='selected' src='G_9.jpg' height='90'> <img src='G_7.jpg' height='90'>","0","Learning example 0","",""
"","","","","","html-button-response","83","1466298","0.0-38.7-0.7-0.7","14","1","2025-02-02 03:04:27","bc01a2b6f61d06f6604adb8657495020","24.181.98.154","Mozilla/5.0 (Windows NT 10.0; Win64; x64) AppleWebKit/537.36 (KHTML, like Gecko) Chrome/131.0.0.0 Safari/537.36 AVG/131.0.0.0","WebKit","Chrome","131.0.0.0","Windows","10.0","https://app.prolific.com/","en-US,en;q=0.9","667abe08bc794718ca0cf87b","679edb085803f58d6bbd31ca","679ee0ada7ec9ae3889c8c0e","","612","<img  src='G_1.jpg' height='90'> <img   src='G_5.jpg' height='90'> <img id='selected'  src='G_3.jpg' height='90'> <img id='selected' src='G_9.jpg' height='90'> <img src='G_7.jpg' height='90'>","4","Learning example 0","",""
"","","","","","html-button-response","84","1467101","0.0-38.8-0.8-0.8","14","1","2025-02-02 03:04:27","bc01a2b6f61d06f6604adb8657495020","24.181.98.154","Mozilla/5.0 (Windows NT 10.0; Win64; x64) AppleWebKit/537.36 (KHTML, like Gecko) Chrome/131.0.0.0 Safari/537.36 AVG/131.0.0.0","WebKit","Chrome","131.0.0.0","Windows","10.0","https://app.prolific.com/","en-US,en;q=0.9","667abe08bc794718ca0cf87b","679edb085803f58d6bbd31ca","679ee0ada7ec9ae3889c8c0e","","799","<img  src='G_1.jpg' height='90'> <img   src='G_5.jpg' height='90'> <img id='selected'  src='G_3.jpg' height='90'> <img id='selected' src='G_9.jpg' height='90'> <img src='G_7.jpg' height='90'>","4","Learning example 0","",""
"","","","","","html-button-response","85","1467399","0.0-38.9-0.9-0.9","14","1","2025-02-02 03:04:27","bc01a2b6f61d06f6604adb8657495020","24.181.98.154","Mozilla/5.0 (Windows NT 10.0; Win64; x64) AppleWebKit/537.36 (KHTML, like Gecko) Chrome/131.0.0.0 Safari/537.36 AVG/131.0.0.0","WebKit","Chrome","131.0.0.0","Windows","10.0","https://app.prolific.com/","en-US,en;q=0.9","667abe08bc794718ca0cf87b","679edb085803f58d6bbd31ca","679ee0ada7ec9ae3889c8c0e","","295","<img  src='G_1.jpg' height='90'> <img   src='G_5.jpg' height='90'> <img id='selected'  src='G_3.jpg' height='90'> <img id='selected' src='G_9.jpg' height='90'> <img src='G_7.jpg' height='90'>","3","Learning example 0","",""
"","","","","","html-button-response","86","1467861","0.0-38.10-0.10-0.10","14","1","2025-02-02 03:04:27","bc01a2b6f61d06f6604adb8657495020","24.181.98.154","Mozilla/5.0 (Windows NT 10.0; Win64; x64) AppleWebKit/537.36 (KHTML, like Gecko) Chrome/131.0.0.0 Safari/537.36 AVG/131.0.0.0","WebKit","Chrome","131.0.0.0","Windows","10.0","https://app.prolific.com/","en-US,en;q=0.9","667abe08bc794718ca0cf87b","679edb085803f58d6bbd31ca","679ee0ada7ec9ae3889c8c0e","","460","<img  src='G_1.jpg' height='90'> <img   src='G_5.jpg' height='90'> <img id='selected'  src='G_3.jpg' height='90'> <img id='selected' src='G_9.jpg' height='90'> <img src='G_7.jpg' height='90'>","2","Learning example 0","",""
"","","","","","html-button-response","87","1468063","0.0-39.0","14","1","2025-02-02 03:04:27","bc01a2b6f61d06f6604adb8657495020","24.181.98.154","Mozilla/5.0 (Windows NT 10.0; Win64; x64) AppleWebKit/537.36 (KHTML, like Gecko) Chrome/131.0.0.0 Safari/537.36 AVG/131.0.0.0","WebKit","Chrome","131.0.0.0","Windows","10.0","https://app.prolific.com/","en-US,en;q=0.9","667abe08bc794718ca0cf87b","679edb085803f58d6bbd31ca","679ee0ada7ec9ae3889c8c0e","","null","<img  src='G_1.jpg' height='90'> <img   src='G_5.jpg' height='90'> <img   src='G_3.jpg' height='90'> <img  src='G_9.jpg' height='90'> <img src='G_7.jpg' height='90'>","null","Learning example 0","",""
"","","","","","html-button-response","88","1468464","0.0-40.0","14","1","2025-02-02 03:04:27","bc01a2b6f61d06f6604adb8657495020","24.181.98.154","Mozilla/5.0 (Windows NT 10.0; Win64; x64) AppleWebKit/537.36 (KHTML, like Gecko) Chrome/131.0.0.0 Safari/537.36 AVG/131.0.0.0","WebKit","Chrome","131.0.0.0","Windows","10.0","https://app.prolific.com/","en-US,en;q=0.9","667abe08bc794718ca0cf87b","679edb085803f58d6bbd31ca","679ee0ada7ec9ae3889c8c0e","","null","<img  src='G_1.jpg' height='90'> <img   src='G_5.jpg' height='90'> <img   src='G_3.jpg' height='90'> <img id='selected'  src='G_9.jpg' height='90'> <img src='G_7.jpg' height='90'>","null","Learning example 0","",""
"","","","","","html-button-response","89","1468660","0.0-41.0","14","1","2025-02-02 03:04:27","bc01a2b6f61d06f6604adb8657495020","24.181.98.154","Mozilla/5.0 (Windows NT 10.0; Win64; x64) AppleWebKit/537.36 (KHTML, like Gecko) Chrome/131.0.0.0 Safari/537.36 AVG/131.0.0.0","WebKit","Chrome","131.0.0.0","Windows","10.0","https://app.prolific.com/","en-US,en;q=0.9","667abe08bc794718ca0cf87b","679edb085803f58d6bbd31ca","679ee0ada7ec9ae3889c8c0e","","193","<img  src='G_1.jpg' height='90'> <img   src='G_5.jpg' height='90'> <img   src='G_3.jpg' height='90'> <img id='selected'  src='G_9.jpg' height='90'> <img id='selected' src='G_7.jpg' height='90'>","1","Learning example 0","",""
"","","","","","html-button-response","90","1468963","0.0-42.0","14","1","2025-02-02 03:04:27","bc01a2b6f61d06f6604adb8657495020","24.181.98.154","Mozilla/5.0 (Windows NT 10.0; Win64; x64) AppleWebKit/537.36 (KHTML, like Gecko) Chrome/131.0.0.0 Safari/537.36 AVG/131.0.0.0","WebKit","Chrome","131.0.0.0","Windows","10.0","https://app.prolific.com/","en-US,en;q=0.9","667abe08bc794718ca0cf87b","679edb085803f58d6bbd31ca","679ee0ada7ec9ae3889c8c0e","","null","<img  src='G_1.jpg' height='90'> <img   src='G_5.jpg' height='90'> <img   src='G_3.jpg' height='90'> <img id='selected'  src='G_9.jpg' height='90'> <img id='selected' src='G_7.jpg' height='90'>","null","Learning example 0","",""
"","","","","","html-button-response","91","1469357","0.0-43.0-0.0-0.0","14","1","2025-02-02 03:04:27","bc01a2b6f61d06f6604adb8657495020","24.181.98.154","Mozilla/5.0 (Windows NT 10.0; Win64; x64) AppleWebKit/537.36 (KHTML, like Gecko) Chrome/131.0.0.0 Safari/537.36 AVG/131.0.0.0","WebKit","Chrome","131.0.0.0","Windows","10.0","https://app.prolific.com/","en-US,en;q=0.9","667abe08bc794718ca0cf87b","679edb085803f58d6bbd31ca","679ee0ada7ec9ae3889c8c0e","","389","<img  src='G_1.jpg' height='90'> <img   src='G_5.jpg' height='90'> <img   src='G_3.jpg' height='90'> <img id='selected'  src='G_9.jpg' height='90'> <img id='selected' src='G_7.jpg' height='90'>","2","Learning example 0","",""
"","","","","","html-button-response","92","1469627","0.0-43.1-0.1-0.1","14","1","2025-02-02 03:04:27","bc01a2b6f61d06f6604adb8657495020","24.181.98.154","Mozilla/5.0 (Windows NT 10.0; Win64; x64) AppleWebKit/537.36 (KHTML, like Gecko) Chrome/131.0.0.0 Safari/537.36 AVG/131.0.0.0","WebKit","Chrome","131.0.0.0","Windows","10.0","https://app.prolific.com/","en-US,en;q=0.9","667abe08bc794718ca0cf87b","679edb085803f58d6bbd31ca","679ee0ada7ec9ae3889c8c0e","","267","<img  src='G_1.jpg' height='90'> <img   src='G_5.jpg' height='90'> <img   src='G_3.jpg' height='90'> <img id='selected'  src='G_9.jpg' height='90'> <img id='selected' src='G_7.jpg' height='90'>","3","Learning example 0","",""
"","","","","","html-button-response","93","1470095","0.0-43.2-0.2-0.2","14","1","2025-02-02 03:04:27","bc01a2b6f61d06f6604adb8657495020","24.181.98.154","Mozilla/5.0 (Windows NT 10.0; Win64; x64) AppleWebKit/537.36 (KHTML, like Gecko) Chrome/131.0.0.0 Safari/537.36 AVG/131.0.0.0","WebKit","Chrome","131.0.0.0","Windows","10.0","https://app.prolific.com/","en-US,en;q=0.9","667abe08bc794718ca0cf87b","679edb085803f58d6bbd31ca","679ee0ada7ec9ae3889c8c0e","","466","<img  src='G_1.jpg' height='90'> <img   src='G_5.jpg' height='90'> <img   src='G_3.jpg' height='90'> <img id='selected'  src='G_9.jpg' height='90'> <img id='selected' src='G_7.jpg' height='90'>","4","Learning example 0","",""
"","","","","","html-button-response","94","1470299","0.0-44.0","14","1","2025-02-02 03:04:27","bc01a2b6f61d06f6604adb8657495020","24.181.98.154","Mozilla/5.0 (Windows NT 10.0; Win64; x64) AppleWebKit/537.36 (KHTML, like Gecko) Chrome/131.0.0.0 Safari/537.36 AVG/131.0.0.0","WebKit","Chrome","131.0.0.0","Windows","10.0","https://app.prolific.com/","en-US,en;q=0.9","667abe08bc794718ca0cf87b","679edb085803f58d6bbd31ca","679ee0ada7ec9ae3889c8c0e","","null","<img  src='G_1.jpg' height='90'> <img   src='G_5.jpg' height='90'> <img   src='G_3.jpg' height='90'> <img   src='G_9.jpg' height='90'> <img  src='G_7.jpg' height='90'>","null","Learning example 0","",""
"","","","","","html-keyboard-response","95","1477345","0.0-45.0","14","1","2025-02-02 03:04:27","bc01a2b6f61d06f6604adb8657495020","24.181.98.154","Mozilla/5.0 (Windows NT 10.0; Win64; x64) AppleWebKit/537.36 (KHTML, like Gecko) Chrome/131.0.0.0 Safari/537.36 AVG/131.0.0.0","WebKit","Chrome","131.0.0.0","Windows","10.0","https://app.prolific.com/","en-US,en;q=0.9","667abe08bc794718ca0cf87b","679edb085803f58d6bbd31ca","679ee0ada7ec9ae3889c8c0e","","7040","[""Final order was 1,2,3,4,5. The initial order was 2,1,3,4,5.<br>It took 1 swaps to sort it correctly with Omgne Sort. <br><br>Press Enter to continue.""]","+","","",""
"","","","","","html-keyboard-response","96","1481971","0.0-46.0","14","1","2025-02-02 03:04:27","bc01a2b6f61d06f6604adb8657495020","24.181.98.154","Mozilla/5.0 (Windows NT 10.0; Win64; x64) AppleWebKit/537.36 (KHTML, like Gecko) Chrome/131.0.0.0 Safari/537.36 AVG/131.0.0.0","WebKit","Chrome","131.0.0.0","Windows","10.0","https://app.prolific.com/","en-US,en;q=0.9","667abe08bc794718ca0cf87b","679edb085803f58d6bbd31ca","679ee0ada7ec9ae3889c8c0e","","4625","[""Example 2<br><br>You will watch Omnge Sort in action. Try to identify any patterns in the comparisons made by this method. <br><br>Press Enter to continue.""]","enter","","",""
"","","","","","html-keyboard-response","97","1482475","0.0-47.0","14","1","2025-02-02 03:04:27","bc01a2b6f61d06f6604adb8657495020","24.181.98.154","Mozilla/5.0 (Windows NT 10.0; Win64; x64) AppleWebKit/537.36 (KHTML, like Gecko) Chrome/131.0.0.0 Safari/537.36 AVG/131.0.0.0","WebKit","Chrome","131.0.0.0","Windows","10.0","https://app.prolific.com/","en-US,en;q=0.9","667abe08bc794718ca0cf87b","679edb085803f58d6bbd31ca","679ee0ada7ec9ae3889c8c0e","","null","<img id='selected' src='G_1.jpg' height='90'> <img src='G_2.jpg' height='90'> <img src='G_5.jpg' height='90'> <img src='G_8.jpg' height='90'> <img src='G_7.jpg' height='90'> <img src='G_4.jpg' height='90'> <img src='G_3.jpg' height='90'> <img src='G_6.jpg' height='90'>","null","Animation1","",""
"","","","","","html-keyboard-response","98","1482978","0.0-48.0","14","1","2025-02-02 03:04:27","bc01a2b6f61d06f6604adb8657495020","24.181.98.154","Mozilla/5.0 (Windows NT 10.0; Win64; x64) AppleWebKit/537.36 (KHTML, like Gecko) Chrome/131.0.0.0 Safari/537.36 AVG/131.0.0.0","WebKit","Chrome","131.0.0.0","Windows","10.0","https://app.prolific.com/","en-US,en;q=0.9","667abe08bc794718ca0cf87b","679edb085803f58d6bbd31ca","679ee0ada7ec9ae3889c8c0e","","null","<img id='selected' src='G_1.jpg' height='90'> <img id='selected' src='G_2.jpg' height='90'> <img src='G_5.jpg' height='90'> <img src='G_8.jpg' height='90'> <img src='G_7.jpg' height='90'> <img src='G_4.jpg' height='90'> <img src='G_3.jpg' height='90'> <img src='G_6.jpg' height='90'>","null","Animation1","",""
"","","","","","html-keyboard-response","99","1483483","0.0-49.0","14","1","2025-02-02 03:04:27","bc01a2b6f61d06f6604adb8657495020","24.181.98.154","Mozilla/5.0 (Windows NT 10.0; Win64; x64) AppleWebKit/537.36 (KHTML, like Gecko) Chrome/131.0.0.0 Safari/537.36 AVG/131.0.0.0","WebKit","Chrome","131.0.0.0","Windows","10.0","https://app.prolific.com/","en-US,en;q=0.9","667abe08bc794718ca0cf87b","679edb085803f58d6bbd31ca","679ee0ada7ec9ae3889c8c0e","","null","<img id='selected' src='G_1.jpg' height='90'> <img id='selected' src='G_2.jpg' height='90'> <img src='G_5.jpg' height='90'> <img src='G_8.jpg' height='90'> <img src='G_7.jpg' height='90'> <img src='G_4.jpg' height='90'> <img src='G_3.jpg' height='90'> <img src='G_6.jpg' height='90'>","null","Animation1","",""
"","","","","","html-keyboard-response","100","1483785","0.0-50.0","14","1","2025-02-02 03:04:27","bc01a2b6f61d06f6604adb8657495020","24.181.98.154","Mozilla/5.0 (Windows NT 10.0; Win64; x64) AppleWebKit/537.36 (KHTML, like Gecko) Chrome/131.0.0.0 Safari/537.36 AVG/131.0.0.0","WebKit","Chrome","131.0.0.0","Windows","10.0","https://app.prolific.com/","en-US,en;q=0.9","667abe08bc794718ca0cf87b","679edb085803f58d6bbd31ca","679ee0ada7ec9ae3889c8c0e","","null","<img  src='G_1.jpg' height='90'> <img  src='G_2.jpg' height='90'> <img src='G_5.jpg' height='90'> <img src='G_8.jpg' height='90'> <img src='G_7.jpg' height='90'> <img src='G_4.jpg' height='90'> <img src='G_3.jpg' height='90'> <img src='G_6.jpg' height='90'>","null","Animation1","",""
"","","","","","html-keyboard-response","101","1484288","0.0-51.0","14","1","2025-02-02 03:04:27","bc01a2b6f61d06f6604adb8657495020","24.181.98.154","Mozilla/5.0 (Windows NT 10.0; Win64; x64) AppleWebKit/537.36 (KHTML, like Gecko) Chrome/131.0.0.0 Safari/537.36 AVG/131.0.0.0","WebKit","Chrome","131.0.0.0","Windows","10.0","https://app.prolific.com/","en-US,en;q=0.9","667abe08bc794718ca0cf87b","679edb085803f58d6bbd31ca","679ee0ada7ec9ae3889c8c0e","","null","<img  src='G_1.jpg' height='90'> <img id='selected'  src='G_2.jpg' height='90'> <img src='G_5.jpg' height='90'> <img src='G_8.jpg' height='90'> <img src='G_7.jpg' height='90'> <img src='G_4.jpg' height='90'> <img src='G_3.jpg' height='90'> <img src='G_6.jpg' height='90'>","null","Animation1","",""
"","","","","","html-keyboard-response","102","1484793","0.0-52.0","14","1","2025-02-02 03:04:27","bc01a2b6f61d06f6604adb8657495020","24.181.98.154","Mozilla/5.0 (Windows NT 10.0; Win64; x64) AppleWebKit/537.36 (KHTML, like Gecko) Chrome/131.0.0.0 Safari/537.36 AVG/131.0.0.0","WebKit","Chrome","131.0.0.0","Windows","10.0","https://app.prolific.com/","en-US,en;q=0.9","667abe08bc794718ca0cf87b","679edb085803f58d6bbd31ca","679ee0ada7ec9ae3889c8c0e","","null","<img  src='G_1.jpg' height='90'> <img id='selected'  src='G_2.jpg' height='90'> <img id='selected' src='G_5.jpg' height='90'> <img src='G_8.jpg' height='90'> <img src='G_7.jpg' height='90'> <img src='G_4.jpg' height='90'> <img src='G_3.jpg' height='90'> <img src='G_6.jpg' height='90'>","null","Animation1","",""
"","","","","","html-keyboard-response","103","1485298","0.0-53.0","14","1","2025-02-02 03:04:27","bc01a2b6f61d06f6604adb8657495020","24.181.98.154","Mozilla/5.0 (Windows NT 10.0; Win64; x64) AppleWebKit/537.36 (KHTML, like Gecko) Chrome/131.0.0.0 Safari/537.36 AVG/131.0.0.0","WebKit","Chrome","131.0.0.0","Windows","10.0","https://app.prolific.com/","en-US,en;q=0.9","667abe08bc794718ca0cf87b","679edb085803f58d6bbd31ca","679ee0ada7ec9ae3889c8c0e","","null","<img  src='G_1.jpg' height='90'> <img id='swapped' src='G_5.jpg' height='90'> <img id='swapped'  src='G_2.jpg' height='90'> <img src='G_8.jpg' height='90'> <img src='G_7.jpg' height='90'> <img src='G_4.jpg' height='90'> <img src='G_3.jpg' height='90'> <img src='G_6.jpg' height='90'>","null","Animation1","",""
"","","","","","html-keyboard-response","104","1485605","0.0-54.0","14","1","2025-02-02 03:04:27","bc01a2b6f61d06f6604adb8657495020","24.181.98.154","Mozilla/5.0 (Windows NT 10.0; Win64; x64) AppleWebKit/537.36 (KHTML, like Gecko) Chrome/131.0.0.0 Safari/537.36 AVG/131.0.0.0","WebKit","Chrome","131.0.0.0","Windows","10.0","https://app.prolific.com/","en-US,en;q=0.9","667abe08bc794718ca0cf87b","679edb085803f58d6bbd31ca","679ee0ada7ec9ae3889c8c0e","","null","<img  src='G_1.jpg' height='90'> <img  src='G_5.jpg' height='90'> <img   src='G_2.jpg' height='90'> <img src='G_8.jpg' height='90'> <img src='G_7.jpg' height='90'> <img src='G_4.jpg' height='90'> <img src='G_3.jpg' height='90'> <img src='G_6.jpg' height='90'>","null","Animation1","",""
"","","","","","html-keyboard-response","105","1486113","0.0-55.0","14","1","2025-02-02 03:04:27","bc01a2b6f61d06f6604adb8657495020","24.181.98.154","Mozilla/5.0 (Windows NT 10.0; Win64; x64) AppleWebKit/537.36 (KHTML, like Gecko) Chrome/131.0.0.0 Safari/537.36 AVG/131.0.0.0","WebKit","Chrome","131.0.0.0","Windows","10.0","https://app.prolific.com/","en-US,en;q=0.9","667abe08bc794718ca0cf87b","679edb085803f58d6bbd31ca","679ee0ada7ec9ae3889c8c0e","","null","<img id='selected'  src='G_1.jpg' height='90'> <img  src='G_5.jpg' height='90'> <img   src='G_2.jpg' height='90'> <img src='G_8.jpg' height='90'> <img src='G_7.jpg' height='90'> <img src='G_4.jpg' height='90'> <img src='G_3.jpg' height='90'> <img src='G_6.jpg' height='90'>","null","Animation1","",""
"","","","","","html-keyboard-response","106","1486619","0.0-56.0","14","1","2025-02-02 03:04:27","bc01a2b6f61d06f6604adb8657495020","24.181.98.154","Mozilla/5.0 (Windows NT 10.0; Win64; x64) AppleWebKit/537.36 (KHTML, like Gecko) Chrome/131.0.0.0 Safari/537.36 AVG/131.0.0.0","WebKit","Chrome","131.0.0.0","Windows","10.0","https://app.prolific.com/","en-US,en;q=0.9","667abe08bc794718ca0cf87b","679edb085803f58d6bbd31ca","679ee0ada7ec9ae3889c8c0e","","null","<img id='selected'  src='G_1.jpg' height='90'> <img id='selected'  src='G_5.jpg' height='90'> <img   src='G_2.jpg' height='90'> <img src='G_8.jpg' height='90'> <img src='G_7.jpg' height='90'> <img src='G_4.jpg' height='90'> <img src='G_3.jpg' height='90'> <img src='G_6.jpg' height='90'>","null","Animation1","",""
"","","","","","html-keyboard-response","107","1487126","0.0-57.0","14","1","2025-02-02 03:04:27","bc01a2b6f61d06f6604adb8657495020","24.181.98.154","Mozilla/5.0 (Windows NT 10.0; Win64; x64) AppleWebKit/537.36 (KHTML, like Gecko) Chrome/131.0.0.0 Safari/537.36 AVG/131.0.0.0","WebKit","Chrome","131.0.0.0","Windows","10.0","https://app.prolific.com/","en-US,en;q=0.9","667abe08bc794718ca0cf87b","679edb085803f58d6bbd31ca","679ee0ada7ec9ae3889c8c0e","","null","<img id='swapped'  src='G_5.jpg' height='90'> <img id='swapped'  src='G_1.jpg' height='90'> <img   src='G_2.jpg' height='90'> <img src='G_8.jpg' height='90'> <img src='G_7.jpg' height='90'> <img src='G_4.jpg' height='90'> <img src='G_3.jpg' height='90'> <img src='G_6.jpg' height='90'>","null","Animation1","",""
"","","","","","html-keyboard-response","108","1487428","0.0-58.0","14","1","2025-02-02 03:04:27","bc01a2b6f61d06f6604adb8657495020","24.181.98.154","Mozilla/5.0 (Windows NT 10.0; Win64; x64) AppleWebKit/537.36 (KHTML, like Gecko) Chrome/131.0.0.0 Safari/537.36 AVG/131.0.0.0","WebKit","Chrome","131.0.0.0","Windows","10.0","https://app.prolific.com/","en-US,en;q=0.9","667abe08bc794718ca0cf87b","679edb085803f58d6bbd31ca","679ee0ada7ec9ae3889c8c0e","","null","<img   src='G_5.jpg' height='90'> <img   src='G_1.jpg' height='90'> <img   src='G_2.jpg' height='90'> <img src='G_8.jpg' height='90'> <img src='G_7.jpg' height='90'> <img src='G_4.jpg' height='90'> <img src='G_3.jpg' height='90'> <img src='G_6.jpg' height='90'>","null","Animation1","",""
"","","","","","html-keyboard-response","109","1487933","0.0-59.0","14","1","2025-02-02 03:04:27","bc01a2b6f61d06f6604adb8657495020","24.181.98.154","Mozilla/5.0 (Windows NT 10.0; Win64; x64) AppleWebKit/537.36 (KHTML, like Gecko) Chrome/131.0.0.0 Safari/537.36 AVG/131.0.0.0","WebKit","Chrome","131.0.0.0","Windows","10.0","https://app.prolific.com/","en-US,en;q=0.9","667abe08bc794718ca0cf87b","679edb085803f58d6bbd31ca","679ee0ada7ec9ae3889c8c0e","","null","<img   src='G_5.jpg' height='90'> <img   src='G_1.jpg' height='90'> <img id='selected'   src='G_2.jpg' height='90'> <img src='G_8.jpg' height='90'> <img src='G_7.jpg' height='90'> <img src='G_4.jpg' height='90'> <img src='G_3.jpg' height='90'> <img src='G_6.jpg' height='90'>","null","Animation1","",""
"","","","","","html-keyboard-response","110","1488439","0.0-60.0","14","1","2025-02-02 03:04:27","bc01a2b6f61d06f6604adb8657495020","24.181.98.154","Mozilla/5.0 (Windows NT 10.0; Win64; x64) AppleWebKit/537.36 (KHTML, like Gecko) Chrome/131.0.0.0 Safari/537.36 AVG/131.0.0.0","WebKit","Chrome","131.0.0.0","Windows","10.0","https://app.prolific.com/","en-US,en;q=0.9","667abe08bc794718ca0cf87b","679edb085803f58d6bbd31ca","679ee0ada7ec9ae3889c8c0e","","null","<img   src='G_5.jpg' height='90'> <img   src='G_1.jpg' height='90'> <img id='selected'   src='G_2.jpg' height='90'> <img id='selected' src='G_8.jpg' height='90'> <img src='G_7.jpg' height='90'> <img src='G_4.jpg' height='90'> <img src='G_3.jpg' height='90'> <img src='G_6.jpg' height='90'>","null","Animation1","",""
"","","","","","html-keyboard-response","111","1488945","0.0-61.0","14","1","2025-02-02 03:04:27","bc01a2b6f61d06f6604adb8657495020","24.181.98.154","Mozilla/5.0 (Windows NT 10.0; Win64; x64) AppleWebKit/537.36 (KHTML, like Gecko) Chrome/131.0.0.0 Safari/537.36 AVG/131.0.0.0","WebKit","Chrome","131.0.0.0","Windows","10.0","https://app.prolific.com/","en-US,en;q=0.9","667abe08bc794718ca0cf87b","679edb085803f58d6bbd31ca","679ee0ada7ec9ae3889c8c0e","","null","<img   src='G_5.jpg' height='90'> <img   src='G_1.jpg' height='90'> <img id='swapped' src='G_8.jpg' height='90'> <img id='swapped'   src='G_2.jpg' height='90'> <img src='G_7.jpg' height='90'> <img src='G_4.jpg' height='90'> <img src='G_3.jpg' height='90'> <img src='G_6.jpg' height='90'>","null","Animation1","",""
"","","","","","html-keyboard-response","112","1489251","0.0-62.0","14","1","2025-02-02 03:04:27","bc01a2b6f61d06f6604adb8657495020","24.181.98.154","Mozilla/5.0 (Windows NT 10.0; Win64; x64) AppleWebKit/537.36 (KHTML, like Gecko) Chrome/131.0.0.0 Safari/537.36 AVG/131.0.0.0","WebKit","Chrome","131.0.0.0","Windows","10.0","https://app.prolific.com/","en-US,en;q=0.9","667abe08bc794718ca0cf87b","679edb085803f58d6bbd31ca","679ee0ada7ec9ae3889c8c0e","","null","<img   src='G_5.jpg' height='90'> <img   src='G_1.jpg' height='90'> <img  src='G_8.jpg' height='90'> <img    src='G_2.jpg' height='90'> <img src='G_7.jpg' height='90'> <img src='G_4.jpg' height='90'> <img src='G_3.jpg' height='90'> <img src='G_6.jpg' height='90'>","null","Animation1","",""
"","","","","","html-keyboard-response","113","1489759","0.0-63.0","14","1","2025-02-02 03:04:27","bc01a2b6f61d06f6604adb8657495020","24.181.98.154","Mozilla/5.0 (Windows NT 10.0; Win64; x64) AppleWebKit/537.36 (KHTML, like Gecko) Chrome/131.0.0.0 Safari/537.36 AVG/131.0.0.0","WebKit","Chrome","131.0.0.0","Windows","10.0","https://app.prolific.com/","en-US,en;q=0.9","667abe08bc794718ca0cf87b","679edb085803f58d6bbd31ca","679ee0ada7ec9ae3889c8c0e","","null","<img   src='G_5.jpg' height='90'> <img id='selected'   src='G_1.jpg' height='90'> <img  src='G_8.jpg' height='90'> <img    src='G_2.jpg' height='90'> <img src='G_7.jpg' height='90'> <img src='G_4.jpg' height='90'> <img src='G_3.jpg' height='90'> <img src='G_6.jpg' height='90'>","null","Animation1","",""
"","","","","","html-keyboard-response","114","1490263","0.0-64.0","14","1","2025-02-02 03:04:27","bc01a2b6f61d06f6604adb8657495020","24.181.98.154","Mozilla/5.0 (Windows NT 10.0; Win64; x64) AppleWebKit/537.36 (KHTML, like Gecko) Chrome/131.0.0.0 Safari/537.36 AVG/131.0.0.0","WebKit","Chrome","131.0.0.0","Windows","10.0","https://app.prolific.com/","en-US,en;q=0.9","667abe08bc794718ca0cf87b","679edb085803f58d6bbd31ca","679ee0ada7ec9ae3889c8c0e","","null","<img   src='G_5.jpg' height='90'> <img id='selected'   src='G_1.jpg' height='90'> <img id='selected'  src='G_8.jpg' height='90'> <img    src='G_2.jpg' height='90'> <img src='G_7.jpg' height='90'> <img src='G_4.jpg' height='90'> <img src='G_3.jpg' height='90'> <img src='G_6.jpg' height='90'>","null","Animation1","",""
"","","","","","html-keyboard-response","115","1490770","0.0-65.0","14","1","2025-02-02 03:04:27","bc01a2b6f61d06f6604adb8657495020","24.181.98.154","Mozilla/5.0 (Windows NT 10.0; Win64; x64) AppleWebKit/537.36 (KHTML, like Gecko) Chrome/131.0.0.0 Safari/537.36 AVG/131.0.0.0","WebKit","Chrome","131.0.0.0","Windows","10.0","https://app.prolific.com/","en-US,en;q=0.9","667abe08bc794718ca0cf87b","679edb085803f58d6bbd31ca","679ee0ada7ec9ae3889c8c0e","","null","<img   src='G_5.jpg' height='90'> <img id='swapped'  src='G_8.jpg' height='90'> <img id='swapped'   src='G_1.jpg' height='90'> <img    src='G_2.jpg' height='90'> <img src='G_7.jpg' height='90'> <img src='G_4.jpg' height='90'> <img src='G_3.jpg' height='90'> <img src='G_6.jpg' height='90'>","null","Animation1","",""
"","","","","","html-keyboard-response","116","1491075","0.0-66.0","14","1","2025-02-02 03:04:27","bc01a2b6f61d06f6604adb8657495020","24.181.98.154","Mozilla/5.0 (Windows NT 10.0; Win64; x64) AppleWebKit/537.36 (KHTML, like Gecko) Chrome/131.0.0.0 Safari/537.36 AVG/131.0.0.0","WebKit","Chrome","131.0.0.0","Windows","10.0","https://app.prolific.com/","en-US,en;q=0.9","667abe08bc794718ca0cf87b","679edb085803f58d6bbd31ca","679ee0ada7ec9ae3889c8c0e","","null","<img   src='G_5.jpg' height='90'> <img   src='G_8.jpg' height='90'> <img    src='G_1.jpg' height='90'> <img    src='G_2.jpg' height='90'> <img src='G_7.jpg' height='90'> <img src='G_4.jpg' height='90'> <img src='G_3.jpg' height='90'> <img src='G_6.jpg' height='90'>","null","Animation1","",""
"","","","","","html-keyboard-response","117","1491583","0.0-67.0","14","1","2025-02-02 03:04:27","bc01a2b6f61d06f6604adb8657495020","24.181.98.154","Mozilla/5.0 (Windows NT 10.0; Win64; x64) AppleWebKit/537.36 (KHTML, like Gecko) Chrome/131.0.0.0 Safari/537.36 AVG/131.0.0.0","WebKit","Chrome","131.0.0.0","Windows","10.0","https://app.prolific.com/","en-US,en;q=0.9","667abe08bc794718ca0cf87b","679edb085803f58d6bbd31ca","679ee0ada7ec9ae3889c8c0e","","null","<img id='selected'   src='G_5.jpg' height='90'> <img   src='G_8.jpg' height='90'> <img    src='G_1.jpg' height='90'> <img    src='G_2.jpg' height='90'> <img src='G_7.jpg' height='90'> <img src='G_4.jpg' height='90'> <img src='G_3.jpg' height='90'> <img src='G_6.jpg' height='90'>","null","Animation1","",""
"","","","","","html-keyboard-response","118","1492088","0.0-68.0","14","1","2025-02-02 03:04:27","bc01a2b6f61d06f6604adb8657495020","24.181.98.154","Mozilla/5.0 (Windows NT 10.0; Win64; x64) AppleWebKit/537.36 (KHTML, like Gecko) Chrome/131.0.0.0 Safari/537.36 AVG/131.0.0.0","WebKit","Chrome","131.0.0.0","Windows","10.0","https://app.prolific.com/","en-US,en;q=0.9","667abe08bc794718ca0cf87b","679edb085803f58d6bbd31ca","679ee0ada7ec9ae3889c8c0e","","null","<img id='selected'   src='G_5.jpg' height='90'> <img id='selected'   src='G_8.jpg' height='90'> <img    src='G_1.jpg' height='90'> <img    src='G_2.jpg' height='90'> <img src='G_7.jpg' height='90'> <img src='G_4.jpg' height='90'> <img src='G_3.jpg' height='90'> <img src='G_6.jpg' height='90'>","null","Animation1","",""
"","","","","","html-keyboard-response","119","1492596","0.0-69.0","14","1","2025-02-02 03:04:27","bc01a2b6f61d06f6604adb8657495020","24.181.98.154","Mozilla/5.0 (Windows NT 10.0; Win64; x64) AppleWebKit/537.36 (KHTML, like Gecko) Chrome/131.0.0.0 Safari/537.36 AVG/131.0.0.0","WebKit","Chrome","131.0.0.0","Windows","10.0","https://app.prolific.com/","en-US,en;q=0.9","667abe08bc794718ca0cf87b","679edb085803f58d6bbd31ca","679ee0ada7ec9ae3889c8c0e","","null","<img id='swapped'   src='G_8.jpg' height='90'> <img id='swapped'   src='G_5.jpg' height='90'> <img    src='G_1.jpg' height='90'> <img    src='G_2.jpg' height='90'> <img src='G_7.jpg' height='90'> <img src='G_4.jpg' height='90'> <img src='G_3.jpg' height='90'> <img src='G_6.jpg' height='90'>","null","Animation1","",""
"","","","","","html-keyboard-response","120","1492901","0.0-70.0","14","1","2025-02-02 03:04:27","bc01a2b6f61d06f6604adb8657495020","24.181.98.154","Mozilla/5.0 (Windows NT 10.0; Win64; x64) AppleWebKit/537.36 (KHTML, like Gecko) Chrome/131.0.0.0 Safari/537.36 AVG/131.0.0.0","WebKit","Chrome","131.0.0.0","Windows","10.0","https://app.prolific.com/","en-US,en;q=0.9","667abe08bc794718ca0cf87b","679edb085803f58d6bbd31ca","679ee0ada7ec9ae3889c8c0e","","null","<img    src='G_8.jpg' height='90'> <img    src='G_5.jpg' height='90'> <img    src='G_1.jpg' height='90'> <img    src='G_2.jpg' height='90'> <img src='G_7.jpg' height='90'> <img src='G_4.jpg' height='90'> <img src='G_3.jpg' height='90'> <img src='G_6.jpg' height='90'>","null","Animation1","",""
"","","","","","html-keyboard-response","121","1493405","0.0-71.0","14","1","2025-02-02 03:04:27","bc01a2b6f61d06f6604adb8657495020","24.181.98.154","Mozilla/5.0 (Windows NT 10.0; Win64; x64) AppleWebKit/537.36 (KHTML, like Gecko) Chrome/131.0.0.0 Safari/537.36 AVG/131.0.0.0","WebKit","Chrome","131.0.0.0","Windows","10.0","https://app.prolific.com/","en-US,en;q=0.9","667abe08bc794718ca0cf87b","679edb085803f58d6bbd31ca","679ee0ada7ec9ae3889c8c0e","","null","<img    src='G_8.jpg' height='90'> <img    src='G_5.jpg' height='90'> <img    src='G_1.jpg' height='90'> <img id='selected'    src='G_2.jpg' height='90'> <img src='G_7.jpg' height='90'> <img src='G_4.jpg' height='90'> <img src='G_3.jpg' height='90'> <img src='G_6.jpg' height='90'>","null","Animation1","",""
"","","","","","html-keyboard-response","122","1493913","0.0-72.0","14","1","2025-02-02 03:04:27","bc01a2b6f61d06f6604adb8657495020","24.181.98.154","Mozilla/5.0 (Windows NT 10.0; Win64; x64) AppleWebKit/537.36 (KHTML, like Gecko) Chrome/131.0.0.0 Safari/537.36 AVG/131.0.0.0","WebKit","Chrome","131.0.0.0","Windows","10.0","https://app.prolific.com/","en-US,en;q=0.9","667abe08bc794718ca0cf87b","679edb085803f58d6bbd31ca","679ee0ada7ec9ae3889c8c0e","","null","<img    src='G_8.jpg' height='90'> <img    src='G_5.jpg' height='90'> <img    src='G_1.jpg' height='90'> <img id='selected'    src='G_2.jpg' height='90'> <img id='selected' src='G_7.jpg' height='90'> <img src='G_4.jpg' height='90'> <img src='G_3.jpg' height='90'> <img src='G_6.jpg' height='90'>","null","Animation1","",""
"","","","","","html-keyboard-response","123","1494416","0.0-73.0","14","1","2025-02-02 03:04:27","bc01a2b6f61d06f6604adb8657495020","24.181.98.154","Mozilla/5.0 (Windows NT 10.0; Win64; x64) AppleWebKit/537.36 (KHTML, like Gecko) Chrome/131.0.0.0 Safari/537.36 AVG/131.0.0.0","WebKit","Chrome","131.0.0.0","Windows","10.0","https://app.prolific.com/","en-US,en;q=0.9","667abe08bc794718ca0cf87b","679edb085803f58d6bbd31ca","679ee0ada7ec9ae3889c8c0e","","null","<img    src='G_8.jpg' height='90'> <img    src='G_5.jpg' height='90'> <img    src='G_1.jpg' height='90'> <img id='swapped' src='G_7.jpg' height='90'> <img id='swapped'    src='G_2.jpg' height='90'> <img src='G_4.jpg' height='90'> <img src='G_3.jpg' height='90'> <img src='G_6.jpg' height='90'>","null","Animation1","",""
"","","","","","html-keyboard-response","124","1494722","0.0-74.0","14","1","2025-02-02 03:04:27","bc01a2b6f61d06f6604adb8657495020","24.181.98.154","Mozilla/5.0 (Windows NT 10.0; Win64; x64) AppleWebKit/537.36 (KHTML, like Gecko) Chrome/131.0.0.0 Safari/537.36 AVG/131.0.0.0","WebKit","Chrome","131.0.0.0","Windows","10.0","https://app.prolific.com/","en-US,en;q=0.9","667abe08bc794718ca0cf87b","679edb085803f58d6bbd31ca","679ee0ada7ec9ae3889c8c0e","","null","<img    src='G_8.jpg' height='90'> <img    src='G_5.jpg' height='90'> <img    src='G_1.jpg' height='90'> <img  src='G_7.jpg' height='90'> <img     src='G_2.jpg' height='90'> <img src='G_4.jpg' height='90'> <img src='G_3.jpg' height='90'> <img src='G_6.jpg' height='90'>","null","Animation1","",""
"","","","","","html-keyboard-response","125","1495228","0.0-75.0","14","1","2025-02-02 03:04:27","bc01a2b6f61d06f6604adb8657495020","24.181.98.154","Mozilla/5.0 (Windows NT 10.0; Win64; x64) AppleWebKit/537.36 (KHTML, like Gecko) Chrome/131.0.0.0 Safari/537.36 AVG/131.0.0.0","WebKit","Chrome","131.0.0.0","Windows","10.0","https://app.prolific.com/","en-US,en;q=0.9","667abe08bc794718ca0cf87b","679edb085803f58d6bbd31ca","679ee0ada7ec9ae3889c8c0e","","null","<img    src='G_8.jpg' height='90'> <img    src='G_5.jpg' height='90'> <img id='selected'    src='G_1.jpg' height='90'> <img  src='G_7.jpg' height='90'> <img     src='G_2.jpg' height='90'> <img src='G_4.jpg' height='90'> <img src='G_3.jpg' height='90'> <img src='G_6.jpg' height='90'>","null","Animation1","",""
"","","","","","html-keyboard-response","126","1495734","0.0-76.0","14","1","2025-02-02 03:04:27","bc01a2b6f61d06f6604adb8657495020","24.181.98.154","Mozilla/5.0 (Windows NT 10.0; Win64; x64) AppleWebKit/537.36 (KHTML, like Gecko) Chrome/131.0.0.0 Safari/537.36 AVG/131.0.0.0","WebKit","Chrome","131.0.0.0","Windows","10.0","https://app.prolific.com/","en-US,en;q=0.9","667abe08bc794718ca0cf87b","679edb085803f58d6bbd31ca","679ee0ada7ec9ae3889c8c0e","","null","<img    src='G_8.jpg' height='90'> <img    src='G_5.jpg' height='90'> <img id='selected'    src='G_1.jpg' height='90'> <img id='selected'  src='G_7.jpg' height='90'> <img     src='G_2.jpg' height='90'> <img src='G_4.jpg' height='90'> <img src='G_3.jpg' height='90'> <img src='G_6.jpg' height='90'>","null","Animation1","",""
"","","","","","html-keyboard-response","127","1496242","0.0-77.0","14","1","2025-02-02 03:04:27","bc01a2b6f61d06f6604adb8657495020","24.181.98.154","Mozilla/5.0 (Windows NT 10.0; Win64; x64) AppleWebKit/537.36 (KHTML, like Gecko) Chrome/131.0.0.0 Safari/537.36 AVG/131.0.0.0","WebKit","Chrome","131.0.0.0","Windows","10.0","https://app.prolific.com/","en-US,en;q=0.9","667abe08bc794718ca0cf87b","679edb085803f58d6bbd31ca","679ee0ada7ec9ae3889c8c0e","","null","<img    src='G_8.jpg' height='90'> <img    src='G_5.jpg' height='90'> <img id='swapped'  src='G_7.jpg' height='90'> <img id='swapped'    src='G_1.jpg' height='90'> <img     src='G_2.jpg' height='90'> <img src='G_4.jpg' height='90'> <img src='G_3.jpg' height='90'> <img src='G_6.jpg' height='90'>","null","Animation1","",""
"","","","","","html-keyboard-response","128","1496551","0.0-78.0","14","1","2025-02-02 03:04:27","bc01a2b6f61d06f6604adb8657495020","24.181.98.154","Mozilla/5.0 (Windows NT 10.0; Win64; x64) AppleWebKit/537.36 (KHTML, like Gecko) Chrome/131.0.0.0 Safari/537.36 AVG/131.0.0.0","WebKit","Chrome","131.0.0.0","Windows","10.0","https://app.prolific.com/","en-US,en;q=0.9","667abe08bc794718ca0cf87b","679edb085803f58d6bbd31ca","679ee0ada7ec9ae3889c8c0e","","null","<img    src='G_8.jpg' height='90'> <img    src='G_5.jpg' height='90'> <img   src='G_7.jpg' height='90'> <img     src='G_1.jpg' height='90'> <img     src='G_2.jpg' height='90'> <img src='G_4.jpg' height='90'> <img src='G_3.jpg' height='90'> <img src='G_6.jpg' height='90'>","null","Animation1","",""
"","","","","","html-keyboard-response","129","1497055","0.0-79.0","14","1","2025-02-02 03:04:27","bc01a2b6f61d06f6604adb8657495020","24.181.98.154","Mozilla/5.0 (Windows NT 10.0; Win64; x64) AppleWebKit/537.36 (KHTML, like Gecko) Chrome/131.0.0.0 Safari/537.36 AVG/131.0.0.0","WebKit","Chrome","131.0.0.0","Windows","10.0","https://app.prolific.com/","en-US,en;q=0.9","667abe08bc794718ca0cf87b","679edb085803f58d6bbd31ca","679ee0ada7ec9ae3889c8c0e","","null","<img    src='G_8.jpg' height='90'> <img id='selected'    src='G_5.jpg' height='90'> <img   src='G_7.jpg' height='90'> <img     src='G_1.jpg' height='90'> <img     src='G_2.jpg' height='90'> <img src='G_4.jpg' height='90'> <img src='G_3.jpg' height='90'> <img src='G_6.jpg' height='90'>","null","Animation1","",""
"","","","","","html-keyboard-response","130","1497564","0.0-80.0","14","1","2025-02-02 03:04:27","bc01a2b6f61d06f6604adb8657495020","24.181.98.154","Mozilla/5.0 (Windows NT 10.0; Win64; x64) AppleWebKit/537.36 (KHTML, like Gecko) Chrome/131.0.0.0 Safari/537.36 AVG/131.0.0.0","WebKit","Chrome","131.0.0.0","Windows","10.0","https://app.prolific.com/","en-US,en;q=0.9","667abe08bc794718ca0cf87b","679edb085803f58d6bbd31ca","679ee0ada7ec9ae3889c8c0e","","null","<img    src='G_8.jpg' height='90'> <img id='selected'    src='G_5.jpg' height='90'> <img id='selected'   src='G_7.jpg' height='90'> <img     src='G_1.jpg' height='90'> <img     src='G_2.jpg' height='90'> <img src='G_4.jpg' height='90'> <img src='G_3.jpg' height='90'> <img src='G_6.jpg' height='90'>","null","Animation1","",""
"","","","","","html-keyboard-response","131","1498068","0.0-81.0","14","1","2025-02-02 03:04:27","bc01a2b6f61d06f6604adb8657495020","24.181.98.154","Mozilla/5.0 (Windows NT 10.0; Win64; x64) AppleWebKit/537.36 (KHTML, like Gecko) Chrome/131.0.0.0 Safari/537.36 AVG/131.0.0.0","WebKit","Chrome","131.0.0.0","Windows","10.0","https://app.prolific.com/","en-US,en;q=0.9","667abe08bc794718ca0cf87b","679edb085803f58d6bbd31ca","679ee0ada7ec9ae3889c8c0e","","null","<img    src='G_8.jpg' height='90'> <img id='swapped'   src='G_7.jpg' height='90'> <img id='swapped'    src='G_5.jpg' height='90'> <img     src='G_1.jpg' height='90'> <img     src='G_2.jpg' height='90'> <img src='G_4.jpg' height='90'> <img src='G_3.jpg' height='90'> <img src='G_6.jpg' height='90'>","null","Animation1","",""
"","","","","","html-keyboard-response","132","1498377","0.0-82.0","14","1","2025-02-02 03:04:27","bc01a2b6f61d06f6604adb8657495020","24.181.98.154","Mozilla/5.0 (Windows NT 10.0; Win64; x64) AppleWebKit/537.36 (KHTML, like Gecko) Chrome/131.0.0.0 Safari/537.36 AVG/131.0.0.0","WebKit","Chrome","131.0.0.0","Windows","10.0","https://app.prolific.com/","en-US,en;q=0.9","667abe08bc794718ca0cf87b","679edb085803f58d6bbd31ca","679ee0ada7ec9ae3889c8c0e","","null","<img    src='G_8.jpg' height='90'> <img    src='G_7.jpg' height='90'> <img     src='G_5.jpg' height='90'> <img     src='G_1.jpg' height='90'> <img     src='G_2.jpg' height='90'> <img src='G_4.jpg' height='90'> <img src='G_3.jpg' height='90'> <img src='G_6.jpg' height='90'>","null","Animation1","",""
"","","","","","html-keyboard-response","133","1498882","0.0-83.0","14","1","2025-02-02 03:04:27","bc01a2b6f61d06f6604adb8657495020","24.181.98.154","Mozilla/5.0 (Windows NT 10.0; Win64; x64) AppleWebKit/537.36 (KHTML, like Gecko) Chrome/131.0.0.0 Safari/537.36 AVG/131.0.0.0","WebKit","Chrome","131.0.0.0","Windows","10.0","https://app.prolific.com/","en-US,en;q=0.9","667abe08bc794718ca0cf87b","679edb085803f58d6bbd31ca","679ee0ada7ec9ae3889c8c0e","","null","<img id='selected'    src='G_8.jpg' height='90'> <img    src='G_7.jpg' height='90'> <img     src='G_5.jpg' height='90'> <img     src='G_1.jpg' height='90'> <img     src='G_2.jpg' height='90'> <img src='G_4.jpg' height='90'> <img src='G_3.jpg' height='90'> <img src='G_6.jpg' height='90'>","null","Animation1","",""
"","","","","","html-keyboard-response","134","1499389","0.0-84.0","14","1","2025-02-02 03:04:27","bc01a2b6f61d06f6604adb8657495020","24.181.98.154","Mozilla/5.0 (Windows NT 10.0; Win64; x64) AppleWebKit/537.36 (KHTML, like Gecko) Chrome/131.0.0.0 Safari/537.36 AVG/131.0.0.0","WebKit","Chrome","131.0.0.0","Windows","10.0","https://app.prolific.com/","en-US,en;q=0.9","667abe08bc794718ca0cf87b","679edb085803f58d6bbd31ca","679ee0ada7ec9ae3889c8c0e","","null","<img id='selected'    src='G_8.jpg' height='90'> <img id='selected'    src='G_7.jpg' height='90'> <img     src='G_5.jpg' height='90'> <img     src='G_1.jpg' height='90'> <img     src='G_2.jpg' height='90'> <img src='G_4.jpg' height='90'> <img src='G_3.jpg' height='90'> <img src='G_6.jpg' height='90'>","null","Animation1","",""
"","","","","","html-keyboard-response","135","1499896","0.0-85.0","14","1","2025-02-02 03:04:27","bc01a2b6f61d06f6604adb8657495020","24.181.98.154","Mozilla/5.0 (Windows NT 10.0; Win64; x64) AppleWebKit/537.36 (KHTML, like Gecko) Chrome/131.0.0.0 Safari/537.36 AVG/131.0.0.0","WebKit","Chrome","131.0.0.0","Windows","10.0","https://app.prolific.com/","en-US,en;q=0.9","667abe08bc794718ca0cf87b","679edb085803f58d6bbd31ca","679ee0ada7ec9ae3889c8c0e","","null","<img id='selected'    src='G_8.jpg' height='90'> <img id='selected'    src='G_7.jpg' height='90'> <img     src='G_5.jpg' height='90'> <img     src='G_1.jpg' height='90'> <img     src='G_2.jpg' height='90'> <img src='G_4.jpg' height='90'> <img src='G_3.jpg' height='90'> <img src='G_6.jpg' height='90'>","null","Animation1","",""
"","","","","","html-keyboard-response","136","1500201","0.0-86.0","14","1","2025-02-02 03:04:27","bc01a2b6f61d06f6604adb8657495020","24.181.98.154","Mozilla/5.0 (Windows NT 10.0; Win64; x64) AppleWebKit/537.36 (KHTML, like Gecko) Chrome/131.0.0.0 Safari/537.36 AVG/131.0.0.0","WebKit","Chrome","131.0.0.0","Windows","10.0","https://app.prolific.com/","en-US,en;q=0.9","667abe08bc794718ca0cf87b","679edb085803f58d6bbd31ca","679ee0ada7ec9ae3889c8c0e","","null","<img     src='G_8.jpg' height='90'> <img     src='G_7.jpg' height='90'> <img     src='G_5.jpg' height='90'> <img     src='G_1.jpg' height='90'> <img     src='G_2.jpg' height='90'> <img src='G_4.jpg' height='90'> <img src='G_3.jpg' height='90'> <img src='G_6.jpg' height='90'>","null","Animation1","",""
"","","","","","html-keyboard-response","137","1500707","0.0-87.0","14","1","2025-02-02 03:04:27","bc01a2b6f61d06f6604adb8657495020","24.181.98.154","Mozilla/5.0 (Windows NT 10.0; Win64; x64) AppleWebKit/537.36 (KHTML, like Gecko) Chrome/131.0.0.0 Safari/537.36 AVG/131.0.0.0","WebKit","Chrome","131.0.0.0","Windows","10.0","https://app.prolific.com/","en-US,en;q=0.9","667abe08bc794718ca0cf87b","679edb085803f58d6bbd31ca","679ee0ada7ec9ae3889c8c0e","","null","<img     src='G_8.jpg' height='90'> <img     src='G_7.jpg' height='90'> <img     src='G_5.jpg' height='90'> <img     src='G_1.jpg' height='90'> <img id='selected'     src='G_2.jpg' height='90'> <img src='G_4.jpg' height='90'> <img src='G_3.jpg' height='90'> <img src='G_6.jpg' height='90'>","null","Animation1","",""
"","","","","","html-keyboard-response","138","1501215","0.0-88.0","14","1","2025-02-02 03:04:27","bc01a2b6f61d06f6604adb8657495020","24.181.98.154","Mozilla/5.0 (Windows NT 10.0; Win64; x64) AppleWebKit/537.36 (KHTML, like Gecko) Chrome/131.0.0.0 Safari/537.36 AVG/131.0.0.0","WebKit","Chrome","131.0.0.0","Windows","10.0","https://app.prolific.com/","en-US,en;q=0.9","667abe08bc794718ca0cf87b","679edb085803f58d6bbd31ca","679ee0ada7ec9ae3889c8c0e","","null","<img     src='G_8.jpg' height='90'> <img     src='G_7.jpg' height='90'> <img     src='G_5.jpg' height='90'> <img     src='G_1.jpg' height='90'> <img id='selected'     src='G_2.jpg' height='90'> <img id='selected' src='G_4.jpg' height='90'> <img src='G_3.jpg' height='90'> <img src='G_6.jpg' height='90'>","null","Animation1","",""
"","","","","","html-keyboard-response","139","1501723","0.0-89.0","14","1","2025-02-02 03:04:27","bc01a2b6f61d06f6604adb8657495020","24.181.98.154","Mozilla/5.0 (Windows NT 10.0; Win64; x64) AppleWebKit/537.36 (KHTML, like Gecko) Chrome/131.0.0.0 Safari/537.36 AVG/131.0.0.0","WebKit","Chrome","131.0.0.0","Windows","10.0","https://app.prolific.com/","en-US,en;q=0.9","667abe08bc794718ca0cf87b","679edb085803f58d6bbd31ca","679ee0ada7ec9ae3889c8c0e","","null","<img     src='G_8.jpg' height='90'> <img     src='G_7.jpg' height='90'> <img     src='G_5.jpg' height='90'> <img     src='G_1.jpg' height='90'> <img id='swapped' src='G_4.jpg' height='90'> <img id='swapped'     src='G_2.jpg' height='90'> <img src='G_3.jpg' height='90'> <img src='G_6.jpg' height='90'>","null","Animation1","",""
"","","","","","html-keyboard-response","140","1502030","0.0-90.0","14","1","2025-02-02 03:04:27","bc01a2b6f61d06f6604adb8657495020","24.181.98.154","Mozilla/5.0 (Windows NT 10.0; Win64; x64) AppleWebKit/537.36 (KHTML, like Gecko) Chrome/131.0.0.0 Safari/537.36 AVG/131.0.0.0","WebKit","Chrome","131.0.0.0","Windows","10.0","https://app.prolific.com/","en-US,en;q=0.9","667abe08bc794718ca0cf87b","679edb085803f58d6bbd31ca","679ee0ada7ec9ae3889c8c0e","","null","<img     src='G_8.jpg' height='90'> <img     src='G_7.jpg' height='90'> <img     src='G_5.jpg' height='90'> <img     src='G_1.jpg' height='90'> <img  src='G_4.jpg' height='90'> <img      src='G_2.jpg' height='90'> <img src='G_3.jpg' height='90'> <img src='G_6.jpg' height='90'>","null","Animation1","",""
"","","","","","html-keyboard-response","141","1502539","0.0-91.0","14","1","2025-02-02 03:04:27","bc01a2b6f61d06f6604adb8657495020","24.181.98.154","Mozilla/5.0 (Windows NT 10.0; Win64; x64) AppleWebKit/537.36 (KHTML, like Gecko) Chrome/131.0.0.0 Safari/537.36 AVG/131.0.0.0","WebKit","Chrome","131.0.0.0","Windows","10.0","https://app.prolific.com/","en-US,en;q=0.9","667abe08bc794718ca0cf87b","679edb085803f58d6bbd31ca","679ee0ada7ec9ae3889c8c0e","","null","<img     src='G_8.jpg' height='90'> <img     src='G_7.jpg' height='90'> <img     src='G_5.jpg' height='90'> <img id='selected'     src='G_1.jpg' height='90'> <img  src='G_4.jpg' height='90'> <img      src='G_2.jpg' height='90'> <img src='G_3.jpg' height='90'> <img src='G_6.jpg' height='90'>","null","Animation1","",""
"","","","","","html-keyboard-response","142","1503045","0.0-92.0","14","1","2025-02-02 03:04:27","bc01a2b6f61d06f6604adb8657495020","24.181.98.154","Mozilla/5.0 (Windows NT 10.0; Win64; x64) AppleWebKit/537.36 (KHTML, like Gecko) Chrome/131.0.0.0 Safari/537.36 AVG/131.0.0.0","WebKit","Chrome","131.0.0.0","Windows","10.0","https://app.prolific.com/","en-US,en;q=0.9","667abe08bc794718ca0cf87b","679edb085803f58d6bbd31ca","679ee0ada7ec9ae3889c8c0e","","null","<img     src='G_8.jpg' height='90'> <img     src='G_7.jpg' height='90'> <img     src='G_5.jpg' height='90'> <img id='selected'     src='G_1.jpg' height='90'> <img id='selected'  src='G_4.jpg' height='90'> <img      src='G_2.jpg' height='90'> <img src='G_3.jpg' height='90'> <img src='G_6.jpg' height='90'>","null","Animation1","",""
"","","","","","html-keyboard-response","143","1503553","0.0-93.0","14","1","2025-02-02 03:04:27","bc01a2b6f61d06f6604adb8657495020","24.181.98.154","Mozilla/5.0 (Windows NT 10.0; Win64; x64) AppleWebKit/537.36 (KHTML, like Gecko) Chrome/131.0.0.0 Safari/537.36 AVG/131.0.0.0","WebKit","Chrome","131.0.0.0","Windows","10.0","https://app.prolific.com/","en-US,en;q=0.9","667abe08bc794718ca0cf87b","679edb085803f58d6bbd31ca","679ee0ada7ec9ae3889c8c0e","","null","<img     src='G_8.jpg' height='90'> <img     src='G_7.jpg' height='90'> <img     src='G_5.jpg' height='90'> <img id='selected'     src='G_1.jpg' height='90'> <img id='selected'  src='G_4.jpg' height='90'> <img      src='G_2.jpg' height='90'> <img src='G_3.jpg' height='90'> <img src='G_6.jpg' height='90'>","null","Animation1","",""
"","","","","","html-keyboard-response","144","1503861","0.0-94.0","14","1","2025-02-02 03:04:27","bc01a2b6f61d06f6604adb8657495020","24.181.98.154","Mozilla/5.0 (Windows NT 10.0; Win64; x64) AppleWebKit/537.36 (KHTML, like Gecko) Chrome/131.0.0.0 Safari/537.36 AVG/131.0.0.0","WebKit","Chrome","131.0.0.0","Windows","10.0","https://app.prolific.com/","en-US,en;q=0.9","667abe08bc794718ca0cf87b","679edb085803f58d6bbd31ca","679ee0ada7ec9ae3889c8c0e","","null","<img     src='G_8.jpg' height='90'> <img     src='G_7.jpg' height='90'> <img     src='G_5.jpg' height='90'> <img      src='G_1.jpg' height='90'> <img   src='G_4.jpg' height='90'> <img      src='G_2.jpg' height='90'> <img src='G_3.jpg' height='90'> <img src='G_6.jpg' height='90'>","null","Animation1","",""
"","","","","","html-keyboard-response","145","1504367","0.0-95.0","14","1","2025-02-02 03:04:27","bc01a2b6f61d06f6604adb8657495020","24.181.98.154","Mozilla/5.0 (Windows NT 10.0; Win64; x64) AppleWebKit/537.36 (KHTML, like Gecko) Chrome/131.0.0.0 Safari/537.36 AVG/131.0.0.0","WebKit","Chrome","131.0.0.0","Windows","10.0","https://app.prolific.com/","en-US,en;q=0.9","667abe08bc794718ca0cf87b","679edb085803f58d6bbd31ca","679ee0ada7ec9ae3889c8c0e","","null","<img     src='G_8.jpg' height='90'> <img     src='G_7.jpg' height='90'> <img     src='G_5.jpg' height='90'> <img      src='G_1.jpg' height='90'> <img   src='G_4.jpg' height='90'> <img id='selected'      src='G_2.jpg' height='90'> <img src='G_3.jpg' height='90'> <img src='G_6.jpg' height='90'>","null","Animation1","",""
"","","","","","html-keyboard-response","146","1504873","0.0-96.0","14","1","2025-02-02 03:04:27","bc01a2b6f61d06f6604adb8657495020","24.181.98.154","Mozilla/5.0 (Windows NT 10.0; Win64; x64) AppleWebKit/537.36 (KHTML, like Gecko) Chrome/131.0.0.0 Safari/537.36 AVG/131.0.0.0","WebKit","Chrome","131.0.0.0","Windows","10.0","https://app.prolific.com/","en-US,en;q=0.9","667abe08bc794718ca0cf87b","679edb085803f58d6bbd31ca","679ee0ada7ec9ae3889c8c0e","","null","<img     src='G_8.jpg' height='90'> <img     src='G_7.jpg' height='90'> <img     src='G_5.jpg' height='90'> <img      src='G_1.jpg' height='90'> <img   src='G_4.jpg' height='90'> <img id='selected'      src='G_2.jpg' height='90'> <img id='selected' src='G_3.jpg' height='90'> <img src='G_6.jpg' height='90'>","null","Animation1","",""
"","","","","","html-keyboard-response","147","1505381","0.0-97.0","14","1","2025-02-02 03:04:27","bc01a2b6f61d06f6604adb8657495020","24.181.98.154","Mozilla/5.0 (Windows NT 10.0; Win64; x64) AppleWebKit/537.36 (KHTML, like Gecko) Chrome/131.0.0.0 Safari/537.36 AVG/131.0.0.0","WebKit","Chrome","131.0.0.0","Windows","10.0","https://app.prolific.com/","en-US,en;q=0.9","667abe08bc794718ca0cf87b","679edb085803f58d6bbd31ca","679ee0ada7ec9ae3889c8c0e","","null","<img     src='G_8.jpg' height='90'> <img     src='G_7.jpg' height='90'> <img     src='G_5.jpg' height='90'> <img      src='G_1.jpg' height='90'> <img   src='G_4.jpg' height='90'> <img id='selected'      src='G_2.jpg' height='90'> <img id='selected' src='G_3.jpg' height='90'> <img src='G_6.jpg' height='90'>","null","Animation1","",""
"","","","","","html-keyboard-response","148","1505686","0.0-98.0","14","1","2025-02-02 03:04:27","bc01a2b6f61d06f6604adb8657495020","24.181.98.154","Mozilla/5.0 (Windows NT 10.0; Win64; x64) AppleWebKit/537.36 (KHTML, like Gecko) Chrome/131.0.0.0 Safari/537.36 AVG/131.0.0.0","WebKit","Chrome","131.0.0.0","Windows","10.0","https://app.prolific.com/","en-US,en;q=0.9","667abe08bc794718ca0cf87b","679edb085803f58d6bbd31ca","679ee0ada7ec9ae3889c8c0e","","null","<img     src='G_8.jpg' height='90'> <img     src='G_7.jpg' height='90'> <img     src='G_5.jpg' height='90'> <img      src='G_1.jpg' height='90'> <img   src='G_4.jpg' height='90'> <img       src='G_2.jpg' height='90'> <img  src='G_3.jpg' height='90'> <img src='G_6.jpg' height='90'>","null","Animation1","",""
"","","","","","html-keyboard-response","149","1506192","0.0-99.0","14","1","2025-02-02 03:04:27","bc01a2b6f61d06f6604adb8657495020","24.181.98.154","Mozilla/5.0 (Windows NT 10.0; Win64; x64) AppleWebKit/537.36 (KHTML, like Gecko) Chrome/131.0.0.0 Safari/537.36 AVG/131.0.0.0","WebKit","Chrome","131.0.0.0","Windows","10.0","https://app.prolific.com/","en-US,en;q=0.9","667abe08bc794718ca0cf87b","679edb085803f58d6bbd31ca","679ee0ada7ec9ae3889c8c0e","","null","<img     src='G_8.jpg' height='90'> <img     src='G_7.jpg' height='90'> <img     src='G_5.jpg' height='90'> <img      src='G_1.jpg' height='90'> <img   src='G_4.jpg' height='90'> <img       src='G_2.jpg' height='90'> <img id='selected'  src='G_3.jpg' height='90'> <img src='G_6.jpg' height='90'>","null","Animation1","",""
