"success","timeout","failed_images","failed_audio","failed_video","trial_type","trial_index","time_elapsed","internal_node_id","run_id","condition","recorded_at","source_code_version","ip","user_agent","device","browser","browser_version","platform","platform_version","referer","accept_language","PROLIFIC_PID","STUDY_ID","SESSION_ID","view_history","rt","stimulus","response","phase","question_order","presented_choices"
"true","false","[]","[]","[]","preload","0","418","0.0-0.0","15","1","2025-02-02 03:07:46","bc01a2b6f61d06f6604adb8657495020","47.151.109.216","Mozilla/5.0 (Windows NT 10.0; Win64; x64) AppleWebKit/537.36 (KHTML, like Gecko) Chrome/130.0.0.0 Safari/537.36 OPR/115.0.0.0","WebKit","Opera","115.0.0.0","Windows","10.0","https://app.prolific.com/","en-US,en;q=0.9","5f4d3cb5fdda0b2c403fb801","679edb085803f58d6bbd31ca","679ee17da7ec9ae3889c8c20","","","","","","",""
"","","","","","instructions","1","23562","0.0-1.0","15","1","2025-02-02 03:07:46","bc01a2b6f61d06f6604adb8657495020","47.151.109.216","Mozilla/5.0 (Windows NT 10.0; Win64; x64) AppleWebKit/537.36 (KHTML, like Gecko) Chrome/130.0.0.0 Safari/537.36 OPR/115.0.0.0","WebKit","Opera","115.0.0.0","Windows","10.0","https://app.prolific.com/","en-US,en;q=0.9","5f4d3cb5fdda0b2c403fb801","679edb085803f58d6bbd31ca","679ee17da7ec9ae3889c8c20","[{""page_index"":0,""viewing_time"":23142}]","23142","","","","",""
"","","","","","html-keyboard-response","2","24066","0.0-2.0","15","1","2025-02-02 03:07:46","bc01a2b6f61d06f6604adb8657495020","47.151.109.216","Mozilla/5.0 (Windows NT 10.0; Win64; x64) AppleWebKit/537.36 (KHTML, like Gecko) Chrome/130.0.0.0 Safari/537.36 OPR/115.0.0.0","WebKit","Opera","115.0.0.0","Windows","10.0","https://app.prolific.com/","en-US,en;q=0.9","5f4d3cb5fdda0b2c403fb801","679edb085803f58d6bbd31ca","679ee17da7ec9ae3889c8c20","","null","<p> + <p/>","null","","",""
"","","","","","instructions","3","44019","0.0-3.0","15","1","2025-02-02 03:07:46","bc01a2b6f61d06f6604adb8657495020","47.151.109.216","Mozilla/5.0 (Windows NT 10.0; Win64; x64) AppleWebKit/537.36 (KHTML, like Gecko) Chrome/130.0.0.0 Safari/537.36 OPR/115.0.0.0","WebKit","Opera","115.0.0.0","Windows","10.0","https://app.prolific.com/","en-US,en;q=0.9","5f4d3cb5fdda0b2c403fb801","679edb085803f58d6bbd31ca","679ee17da7ec9ae3889c8c20","[{""page_index"":0,""viewing_time"":2007},{""page_index"":1,""viewing_time"":4720},{""page_index"":2,""viewing_time"":5584},{""page_index"":3,""viewing_time"":3505},{""page_index"":4,""viewing_time"":4135}]","19951","","","","",""
"","","","","","html-button-response","4","59074","0.0-4.0-0.0-0.0","15","1","2025-02-02 03:07:46","bc01a2b6f61d06f6604adb8657495020","47.151.109.216","Mozilla/5.0 (Windows NT 10.0; Win64; x64) AppleWebKit/537.36 (KHTML, like Gecko) Chrome/130.0.0.0 Safari/537.36 OPR/115.0.0.0","WebKit","Opera","115.0.0.0","Windows","10.0","https://app.prolific.com/","en-US,en;q=0.9","5f4d3cb5fdda0b2c403fb801","679edb085803f58d6bbd31ca","679ee17da7ec9ae3889c8c20","","15053","","0","Intro Trial","",""
"","","","","","html-button-response","5","59803","0.0-4.1-0.1-0.1","15","1","2025-02-02 03:07:46","bc01a2b6f61d06f6604adb8657495020","47.151.109.216","Mozilla/5.0 (Windows NT 10.0; Win64; x64) AppleWebKit/537.36 (KHTML, like Gecko) Chrome/130.0.0.0 Safari/537.36 OPR/115.0.0.0","WebKit","Opera","115.0.0.0","Windows","10.0","https://app.prolific.com/","en-US,en;q=0.9","5f4d3cb5fdda0b2c403fb801","679edb085803f58d6bbd31ca","679ee17da7ec9ae3889c8c20","","726","","1","Intro Trial","",""
"","","","","","html-button-response","6","75243","0.0-4.2-0.2-0.2","15","1","2025-02-02 03:07:46","bc01a2b6f61d06f6604adb8657495020","47.151.109.216","Mozilla/5.0 (Windows NT 10.0; Win64; x64) AppleWebKit/537.36 (KHTML, like Gecko) Chrome/130.0.0.0 Safari/537.36 OPR/115.0.0.0","WebKit","Opera","115.0.0.0","Windows","10.0","https://app.prolific.com/","en-US,en;q=0.9","5f4d3cb5fdda0b2c403fb801","679edb085803f58d6bbd31ca","679ee17da7ec9ae3889c8c20","","15438","","1","Intro Trial","",""
"","","","","","html-button-response","7","75858","0.0-4.3-0.3-0.3","15","1","2025-02-02 03:07:46","bc01a2b6f61d06f6604adb8657495020","47.151.109.216","Mozilla/5.0 (Windows NT 10.0; Win64; x64) AppleWebKit/537.36 (KHTML, like Gecko) Chrome/130.0.0.0 Safari/537.36 OPR/115.0.0.0","WebKit","Opera","115.0.0.0","Windows","10.0","https://app.prolific.com/","en-US,en;q=0.9","5f4d3cb5fdda0b2c403fb801","679edb085803f58d6bbd31ca","679ee17da7ec9ae3889c8c20","","614","","0","Intro Trial","",""
"","","","","","html-button-response","8","77763","0.0-4.4-0.4-0.4","15","1","2025-02-02 03:07:46","bc01a2b6f61d06f6604adb8657495020","47.151.109.216","Mozilla/5.0 (Windows NT 10.0; Win64; x64) AppleWebKit/537.36 (KHTML, like Gecko) Chrome/130.0.0.0 Safari/537.36 OPR/115.0.0.0","WebKit","Opera","115.0.0.0","Windows","10.0","https://app.prolific.com/","en-US,en;q=0.9","5f4d3cb5fdda0b2c403fb801","679edb085803f58d6bbd31ca","679ee17da7ec9ae3889c8c20","","1903","","0","Intro Trial","",""
"","","","","","html-button-response","9","78319","0.0-4.5-0.5-0.5","15","1","2025-02-02 03:07:46","bc01a2b6f61d06f6604adb8657495020","47.151.109.216","Mozilla/5.0 (Windows NT 10.0; Win64; x64) AppleWebKit/537.36 (KHTML, like Gecko) Chrome/130.0.0.0 Safari/537.36 OPR/115.0.0.0","WebKit","Opera","115.0.0.0","Windows","10.0","https://app.prolific.com/","en-US,en;q=0.9","5f4d3cb5fdda0b2c403fb801","679edb085803f58d6bbd31ca","679ee17da7ec9ae3889c8c20","","554","","1","Intro Trial","",""
"","","","","","html-button-response","10","79330","0.0-4.6-0.6-0.6","15","1","2025-02-02 03:07:46","bc01a2b6f61d06f6604adb8657495020","47.151.109.216","Mozilla/5.0 (Windows NT 10.0; Win64; x64) AppleWebKit/537.36 (KHTML, like Gecko) Chrome/130.0.0.0 Safari/537.36 OPR/115.0.0.0","WebKit","Opera","115.0.0.0","Windows","10.0","https://app.prolific.com/","en-US,en;q=0.9","5f4d3cb5fdda0b2c403fb801","679edb085803f58d6bbd31ca","679ee17da7ec9ae3889c8c20","","1009","","2","Intro Trial","",""
"","","","","","html-button-response","11","80074","0.0-4.7-0.7-0.7","15","1","2025-02-02 03:07:46","bc01a2b6f61d06f6604adb8657495020","47.151.109.216","Mozilla/5.0 (Windows NT 10.0; Win64; x64) AppleWebKit/537.36 (KHTML, like Gecko) Chrome/130.0.0.0 Safari/537.36 OPR/115.0.0.0","WebKit","Opera","115.0.0.0","Windows","10.0","https://app.prolific.com/","en-US,en;q=0.9","5f4d3cb5fdda0b2c403fb801","679edb085803f58d6bbd31ca","679ee17da7ec9ae3889c8c20","","742","","0","Intro Trial","",""
"","","","","","html-button-response","12","83010","0.0-4.8-0.8-0.8","15","1","2025-02-02 03:07:46","bc01a2b6f61d06f6604adb8657495020","47.151.109.216","Mozilla/5.0 (Windows NT 10.0; Win64; x64) AppleWebKit/537.36 (KHTML, like Gecko) Chrome/130.0.0.0 Safari/537.36 OPR/115.0.0.0","WebKit","Opera","115.0.0.0","Windows","10.0","https://app.prolific.com/","en-US,en;q=0.9","5f4d3cb5fdda0b2c403fb801","679edb085803f58d6bbd31ca","679ee17da7ec9ae3889c8c20","","2934","","5","Intro Trial","",""
"","","","","","html-keyboard-response","13","100364","0.0-5.0","15","1","2025-02-02 03:07:46","bc01a2b6f61d06f6604adb8657495020","47.151.109.216","Mozilla/5.0 (Windows NT 10.0; Win64; x64) AppleWebKit/537.36 (KHTML, like Gecko) Chrome/130.0.0.0 Safari/537.36 OPR/115.0.0.0","WebKit","Opera","115.0.0.0","Windows","10.0","https://app.prolific.com/","en-US,en;q=0.9","5f4d3cb5fdda0b2c403fb801","679edb085803f58d6bbd31ca","679ee17da7ec9ae3889c8c20","","17352","[""You sorted incorrectly by using the balance 4 times. <br><br> <img src='G_2.jpg' height='90'><img src='G_1.jpg' height='90'><img src='G_3.jpg' height='90'><img src='G_4.jpg' height='90'><img src='G_5.jpg' height='90'><br><br> Your final order is 2,4,3,5,1<br><br><br>Omgne Sort in this game will allow you to sort correctly by using the balance 8 times. Press Enter to learn it!""]","enter","","",""
"","","","","","html-keyboard-response","14","108435","0.0-6.0","15","1","2025-02-02 03:07:46","bc01a2b6f61d06f6604adb8657495020","47.151.109.216","Mozilla/5.0 (Windows NT 10.0; Win64; x64) AppleWebKit/537.36 (KHTML, like Gecko) Chrome/130.0.0.0 Safari/537.36 OPR/115.0.0.0","WebKit","Opera","115.0.0.0","Windows","10.0","https://app.prolific.com/","en-US,en;q=0.9","5f4d3cb5fdda0b2c403fb801","679edb085803f58d6bbd31ca","679ee17da7ec9ae3889c8c20","","8069","<p>Welcome to the learning phase! <br><br> You will learn by six examples. The following learning trials will not be used to calculate your performance. <br><br> Press Enter to continue.<p/>","enter","","",""
"","","","","","html-keyboard-response","15","113363","0.0-7.0","15","1","2025-02-02 03:07:46","bc01a2b6f61d06f6604adb8657495020","47.151.109.216","Mozilla/5.0 (Windows NT 10.0; Win64; x64) AppleWebKit/537.36 (KHTML, like Gecko) Chrome/130.0.0.0 Safari/537.36 OPR/115.0.0.0","WebKit","Opera","115.0.0.0","Windows","10.0","https://app.prolific.com/","en-US,en;q=0.9","5f4d3cb5fdda0b2c403fb801","679edb085803f58d6bbd31ca","679ee17da7ec9ae3889c8c20","","4927","[""Example 1<br><br>You will watch Omnge Sort in action. Try to identify any patterns in the comparisons made by this method. <br><br>Press Enter to continue.""]","enter","","",""
"","","","","","html-keyboard-response","16","113865","0.0-8.0","15","1","2025-02-02 03:07:46","bc01a2b6f61d06f6604adb8657495020","47.151.109.216","Mozilla/5.0 (Windows NT 10.0; Win64; x64) AppleWebKit/537.36 (KHTML, like Gecko) Chrome/130.0.0.0 Safari/537.36 OPR/115.0.0.0","WebKit","Opera","115.0.0.0","Windows","10.0","https://app.prolific.com/","en-US,en;q=0.9","5f4d3cb5fdda0b2c403fb801","679edb085803f58d6bbd31ca","679ee17da7ec9ae3889c8c20","","null","<img id='selected' src='G_7.jpg' height='90'> <img src='G_1.jpg' height='90'> <img src='G_3.jpg' height='90'> <img src='G_9.jpg' height='90'> <img src='G_5.jpg' height='90'>","null","Animation0","",""
"","","","","","html-keyboard-response","17","114379","0.0-9.0","15","1","2025-02-02 03:07:46","bc01a2b6f61d06f6604adb8657495020","47.151.109.216","Mozilla/5.0 (Windows NT 10.0; Win64; x64) AppleWebKit/537.36 (KHTML, like Gecko) Chrome/130.0.0.0 Safari/537.36 OPR/115.0.0.0","WebKit","Opera","115.0.0.0","Windows","10.0","https://app.prolific.com/","en-US,en;q=0.9","5f4d3cb5fdda0b2c403fb801","679edb085803f58d6bbd31ca","679ee17da7ec9ae3889c8c20","","null","<img id='selected' src='G_7.jpg' height='90'> <img id='selected' src='G_1.jpg' height='90'> <img src='G_3.jpg' height='90'> <img src='G_9.jpg' height='90'> <img src='G_5.jpg' height='90'>","null","Animation0","",""
"","","","","","html-keyboard-response","18","114894","0.0-10.0","15","1","2025-02-02 03:07:46","bc01a2b6f61d06f6604adb8657495020","47.151.109.216","Mozilla/5.0 (Windows NT 10.0; Win64; x64) AppleWebKit/537.36 (KHTML, like Gecko) Chrome/130.0.0.0 Safari/537.36 OPR/115.0.0.0","WebKit","Opera","115.0.0.0","Windows","10.0","https://app.prolific.com/","en-US,en;q=0.9","5f4d3cb5fdda0b2c403fb801","679edb085803f58d6bbd31ca","679ee17da7ec9ae3889c8c20","","null","<img id='swapped' src='G_1.jpg' height='90'> <img id='swapped' src='G_7.jpg' height='90'> <img src='G_3.jpg' height='90'> <img src='G_9.jpg' height='90'> <img src='G_5.jpg' height='90'>","null","Animation0","",""
"","","","","","html-keyboard-response","19","115204","0.0-11.0","15","1","2025-02-02 03:07:46","bc01a2b6f61d06f6604adb8657495020","47.151.109.216","Mozilla/5.0 (Windows NT 10.0; Win64; x64) AppleWebKit/537.36 (KHTML, like Gecko) Chrome/130.0.0.0 Safari/537.36 OPR/115.0.0.0","WebKit","Opera","115.0.0.0","Windows","10.0","https://app.prolific.com/","en-US,en;q=0.9","5f4d3cb5fdda0b2c403fb801","679edb085803f58d6bbd31ca","679ee17da7ec9ae3889c8c20","","null","<img  src='G_1.jpg' height='90'> <img  src='G_7.jpg' height='90'> <img src='G_3.jpg' height='90'> <img src='G_9.jpg' height='90'> <img src='G_5.jpg' height='90'>","null","Animation0","",""
"","","","","","html-keyboard-response","20","115713","0.0-12.0","15","1","2025-02-02 03:07:46","bc01a2b6f61d06f6604adb8657495020","47.151.109.216","Mozilla/5.0 (Windows NT 10.0; Win64; x64) AppleWebKit/537.36 (KHTML, like Gecko) Chrome/130.0.0.0 Safari/537.36 OPR/115.0.0.0","WebKit","Opera","115.0.0.0","Windows","10.0","https://app.prolific.com/","en-US,en;q=0.9","5f4d3cb5fdda0b2c403fb801","679edb085803f58d6bbd31ca","679ee17da7ec9ae3889c8c20","","null","<img  src='G_1.jpg' height='90'> <img id='selected'  src='G_7.jpg' height='90'> <img src='G_3.jpg' height='90'> <img src='G_9.jpg' height='90'> <img src='G_5.jpg' height='90'>","null","Animation0","",""
"","","","","","html-keyboard-response","21","116226","0.0-13.0","15","1","2025-02-02 03:07:46","bc01a2b6f61d06f6604adb8657495020","47.151.109.216","Mozilla/5.0 (Windows NT 10.0; Win64; x64) AppleWebKit/537.36 (KHTML, like Gecko) Chrome/130.0.0.0 Safari/537.36 OPR/115.0.0.0","WebKit","Opera","115.0.0.0","Windows","10.0","https://app.prolific.com/","en-US,en;q=0.9","5f4d3cb5fdda0b2c403fb801","679edb085803f58d6bbd31ca","679ee17da7ec9ae3889c8c20","","null","<img  src='G_1.jpg' height='90'> <img id='selected'  src='G_7.jpg' height='90'> <img id='selected' src='G_3.jpg' height='90'> <img src='G_9.jpg' height='90'> <img src='G_5.jpg' height='90'>","null","Animation0","",""
"","","","","","html-keyboard-response","22","116735","0.0-14.0","15","1","2025-02-02 03:07:46","bc01a2b6f61d06f6604adb8657495020","47.151.109.216","Mozilla/5.0 (Windows NT 10.0; Win64; x64) AppleWebKit/537.36 (KHTML, like Gecko) Chrome/130.0.0.0 Safari/537.36 OPR/115.0.0.0","WebKit","Opera","115.0.0.0","Windows","10.0","https://app.prolific.com/","en-US,en;q=0.9","5f4d3cb5fdda0b2c403fb801","679edb085803f58d6bbd31ca","679ee17da7ec9ae3889c8c20","","null","<img  src='G_1.jpg' height='90'> <img id='selected'  src='G_7.jpg' height='90'> <img id='selected' src='G_3.jpg' height='90'> <img src='G_9.jpg' height='90'> <img src='G_5.jpg' height='90'>","null","Animation0","",""
"","","","","","html-keyboard-response","23","117047","0.0-15.0","15","1","2025-02-02 03:07:46","bc01a2b6f61d06f6604adb8657495020","47.151.109.216","Mozilla/5.0 (Windows NT 10.0; Win64; x64) AppleWebKit/537.36 (KHTML, like Gecko) Chrome/130.0.0.0 Safari/537.36 OPR/115.0.0.0","WebKit","Opera","115.0.0.0","Windows","10.0","https://app.prolific.com/","en-US,en;q=0.9","5f4d3cb5fdda0b2c403fb801","679edb085803f58d6bbd31ca","679ee17da7ec9ae3889c8c20","","null","<img  src='G_1.jpg' height='90'> <img   src='G_7.jpg' height='90'> <img  src='G_3.jpg' height='90'> <img src='G_9.jpg' height='90'> <img src='G_5.jpg' height='90'>","null","Animation0","",""
"","","","","","html-keyboard-response","24","117558","0.0-16.0","15","1","2025-02-02 03:07:46","bc01a2b6f61d06f6604adb8657495020","47.151.109.216","Mozilla/5.0 (Windows NT 10.0; Win64; x64) AppleWebKit/537.36 (KHTML, like Gecko) Chrome/130.0.0.0 Safari/537.36 OPR/115.0.0.0","WebKit","Opera","115.0.0.0","Windows","10.0","https://app.prolific.com/","en-US,en;q=0.9","5f4d3cb5fdda0b2c403fb801","679edb085803f58d6bbd31ca","679ee17da7ec9ae3889c8c20","","null","<img  src='G_1.jpg' height='90'> <img   src='G_7.jpg' height='90'> <img id='selected'  src='G_3.jpg' height='90'> <img src='G_9.jpg' height='90'> <img src='G_5.jpg' height='90'>","null","Animation0","",""
"","","","","","html-keyboard-response","25","118068","0.0-17.0","15","1","2025-02-02 03:07:46","bc01a2b6f61d06f6604adb8657495020","47.151.109.216","Mozilla/5.0 (Windows NT 10.0; Win64; x64) AppleWebKit/537.36 (KHTML, like Gecko) Chrome/130.0.0.0 Safari/537.36 OPR/115.0.0.0","WebKit","Opera","115.0.0.0","Windows","10.0","https://app.prolific.com/","en-US,en;q=0.9","5f4d3cb5fdda0b2c403fb801","679edb085803f58d6bbd31ca","679ee17da7ec9ae3889c8c20","","null","<img  src='G_1.jpg' height='90'> <img   src='G_7.jpg' height='90'> <img id='selected'  src='G_3.jpg' height='90'> <img id='selected' src='G_9.jpg' height='90'> <img src='G_5.jpg' height='90'>","null","Animation0","",""
"","","","","","html-keyboard-response","26","118580","0.0-18.0","15","1","2025-02-02 03:07:46","bc01a2b6f61d06f6604adb8657495020","47.151.109.216","Mozilla/5.0 (Windows NT 10.0; Win64; x64) AppleWebKit/537.36 (KHTML, like Gecko) Chrome/130.0.0.0 Safari/537.36 OPR/115.0.0.0","WebKit","Opera","115.0.0.0","Windows","10.0","https://app.prolific.com/","en-US,en;q=0.9","5f4d3cb5fdda0b2c403fb801","679edb085803f58d6bbd31ca","679ee17da7ec9ae3889c8c20","","null","<img  src='G_1.jpg' height='90'> <img   src='G_7.jpg' height='90'> <img id='selected'  src='G_3.jpg' height='90'> <img id='selected' src='G_9.jpg' height='90'> <img src='G_5.jpg' height='90'>","null","Animation0","",""
"","","","","","html-keyboard-response","27","118893","0.0-19.0","15","1","2025-02-02 03:07:46","bc01a2b6f61d06f6604adb8657495020","47.151.109.216","Mozilla/5.0 (Windows NT 10.0; Win64; x64) AppleWebKit/537.36 (KHTML, like Gecko) Chrome/130.0.0.0 Safari/537.36 OPR/115.0.0.0","WebKit","Opera","115.0.0.0","Windows","10.0","https://app.prolific.com/","en-US,en;q=0.9","5f4d3cb5fdda0b2c403fb801","679edb085803f58d6bbd31ca","679ee17da7ec9ae3889c8c20","","null","<img  src='G_1.jpg' height='90'> <img   src='G_7.jpg' height='90'> <img   src='G_3.jpg' height='90'> <img  src='G_9.jpg' height='90'> <img src='G_5.jpg' height='90'>","null","Animation0","",""
"","","","","","html-keyboard-response","28","119405","0.0-20.0","15","1","2025-02-02 03:07:46","bc01a2b6f61d06f6604adb8657495020","47.151.109.216","Mozilla/5.0 (Windows NT 10.0; Win64; x64) AppleWebKit/537.36 (KHTML, like Gecko) Chrome/130.0.0.0 Safari/537.36 OPR/115.0.0.0","WebKit","Opera","115.0.0.0","Windows","10.0","https://app.prolific.com/","en-US,en;q=0.9","5f4d3cb5fdda0b2c403fb801","679edb085803f58d6bbd31ca","679ee17da7ec9ae3889c8c20","","null","<img  src='G_1.jpg' height='90'> <img   src='G_7.jpg' height='90'> <img   src='G_3.jpg' height='90'> <img id='selected'  src='G_9.jpg' height='90'> <img src='G_5.jpg' height='90'>","null","Animation0","",""
"","","","","","html-keyboard-response","29","119917","0.0-21.0","15","1","2025-02-02 03:07:46","bc01a2b6f61d06f6604adb8657495020","47.151.109.216","Mozilla/5.0 (Windows NT 10.0; Win64; x64) AppleWebKit/537.36 (KHTML, like Gecko) Chrome/130.0.0.0 Safari/537.36 OPR/115.0.0.0","WebKit","Opera","115.0.0.0","Windows","10.0","https://app.prolific.com/","en-US,en;q=0.9","5f4d3cb5fdda0b2c403fb801","679edb085803f58d6bbd31ca","679ee17da7ec9ae3889c8c20","","null","<img  src='G_1.jpg' height='90'> <img   src='G_7.jpg' height='90'> <img   src='G_3.jpg' height='90'> <img id='selected'  src='G_9.jpg' height='90'> <img id='selected' src='G_5.jpg' height='90'>","null","Animation0","",""
"","","","","","html-keyboard-response","30","120430","0.0-22.0","15","1","2025-02-02 03:07:46","bc01a2b6f61d06f6604adb8657495020","47.151.109.216","Mozilla/5.0 (Windows NT 10.0; Win64; x64) AppleWebKit/537.36 (KHTML, like Gecko) Chrome/130.0.0.0 Safari/537.36 OPR/115.0.0.0","WebKit","Opera","115.0.0.0","Windows","10.0","https://app.prolific.com/","en-US,en;q=0.9","5f4d3cb5fdda0b2c403fb801","679edb085803f58d6bbd31ca","679ee17da7ec9ae3889c8c20","","null","<img  src='G_1.jpg' height='90'> <img   src='G_7.jpg' height='90'> <img   src='G_3.jpg' height='90'> <img id='selected'  src='G_9.jpg' height='90'> <img id='selected' src='G_5.jpg' height='90'>","null","Animation0","",""
"","","","","","html-keyboard-response","31","120738","0.0-23.0","15","1","2025-02-02 03:07:46","bc01a2b6f61d06f6604adb8657495020","47.151.109.216","Mozilla/5.0 (Windows NT 10.0; Win64; x64) AppleWebKit/537.36 (KHTML, like Gecko) Chrome/130.0.0.0 Safari/537.36 OPR/115.0.0.0","WebKit","Opera","115.0.0.0","Windows","10.0","https://app.prolific.com/","en-US,en;q=0.9","5f4d3cb5fdda0b2c403fb801","679edb085803f58d6bbd31ca","679ee17da7ec9ae3889c8c20","","null","<img  src='G_1.jpg' height='90'> <img   src='G_7.jpg' height='90'> <img   src='G_3.jpg' height='90'> <img   src='G_9.jpg' height='90'> <img  src='G_5.jpg' height='90'>","null","Animation0","",""
"","","","","","html-keyboard-response","32","124146","0.0-24.0","15","1","2025-02-02 03:07:46","bc01a2b6f61d06f6604adb8657495020","47.151.109.216","Mozilla/5.0 (Windows NT 10.0; Win64; x64) AppleWebKit/537.36 (KHTML, like Gecko) Chrome/130.0.0.0 Safari/537.36 OPR/115.0.0.0","WebKit","Opera","115.0.0.0","Windows","10.0","https://app.prolific.com/","en-US,en;q=0.9","5f4d3cb5fdda0b2c403fb801","679edb085803f58d6bbd31ca","679ee17da7ec9ae3889c8c20","","3405","[""Did you notice any patterns? <br><br>Press Enter to watch that example again and follow the steps of Omgne Sort.""]","enter","","",""
"","","","","","html-button-response","33","124559","0.0-25.0","15","1","2025-02-02 03:07:46","bc01a2b6f61d06f6604adb8657495020","47.151.109.216","Mozilla/5.0 (Windows NT 10.0; Win64; x64) AppleWebKit/537.36 (KHTML, like Gecko) Chrome/130.0.0.0 Safari/537.36 OPR/115.0.0.0","WebKit","Opera","115.0.0.0","Windows","10.0","https://app.prolific.com/","en-US,en;q=0.9","5f4d3cb5fdda0b2c403fb801","679edb085803f58d6bbd31ca","679ee17da7ec9ae3889c8c20","","null","<img id='selected' src='G_7.jpg' height='90'> <img src='G_1.jpg' height='90'> <img src='G_3.jpg' height='90'> <img src='G_9.jpg' height='90'> <img src='G_5.jpg' height='90'>","null","Learning example 0","",""
"","","","","","html-button-response","34","124868","0.0-26.0","15","1","2025-02-02 03:07:46","bc01a2b6f61d06f6604adb8657495020","47.151.109.216","Mozilla/5.0 (Windows NT 10.0; Win64; x64) AppleWebKit/537.36 (KHTML, like Gecko) Chrome/130.0.0.0 Safari/537.36 OPR/115.0.0.0","WebKit","Opera","115.0.0.0","Windows","10.0","https://app.prolific.com/","en-US,en;q=0.9","5f4d3cb5fdda0b2c403fb801","679edb085803f58d6bbd31ca","679ee17da7ec9ae3889c8c20","","null","<img id='selected' src='G_7.jpg' height='90'> <img id='selected' src='G_1.jpg' height='90'> <img src='G_3.jpg' height='90'> <img src='G_9.jpg' height='90'> <img src='G_5.jpg' height='90'>","null","Learning example 0","",""
"","","","","","html-button-response","35","125178","0.0-27.0","15","1","2025-02-02 03:07:46","bc01a2b6f61d06f6604adb8657495020","47.151.109.216","Mozilla/5.0 (Windows NT 10.0; Win64; x64) AppleWebKit/537.36 (KHTML, like Gecko) Chrome/130.0.0.0 Safari/537.36 OPR/115.0.0.0","WebKit","Opera","115.0.0.0","Windows","10.0","https://app.prolific.com/","en-US,en;q=0.9","5f4d3cb5fdda0b2c403fb801","679edb085803f58d6bbd31ca","679ee17da7ec9ae3889c8c20","","null","<img id='swapped' src='G_1.jpg' height='90'> <img id='swapped' src='G_7.jpg' height='90'> <img src='G_3.jpg' height='90'> <img src='G_9.jpg' height='90'> <img src='G_5.jpg' height='90'>","null","Learning example 0","",""
"","","","","","html-button-response","36","131828","0.0-28.0-0.0-0.0","15","1","2025-02-02 03:07:46","bc01a2b6f61d06f6604adb8657495020","47.151.109.216","Mozilla/5.0 (Windows NT 10.0; Win64; x64) AppleWebKit/537.36 (KHTML, like Gecko) Chrome/130.0.0.0 Safari/537.36 OPR/115.0.0.0","WebKit","Opera","115.0.0.0","Windows","10.0","https://app.prolific.com/","en-US,en;q=0.9","5f4d3cb5fdda0b2c403fb801","679edb085803f58d6bbd31ca","679ee17da7ec9ae3889c8c20","","6646","<img id='swapped' src='G_1.jpg' height='90'> <img id='swapped' src='G_7.jpg' height='90'> <img src='G_3.jpg' height='90'> <img src='G_9.jpg' height='90'> <img src='G_5.jpg' height='90'>","0","Learning example 0","",""
"","","","","","html-button-response","37","133138","0.0-28.1-0.1-0.1","15","1","2025-02-02 03:07:46","bc01a2b6f61d06f6604adb8657495020","47.151.109.216","Mozilla/5.0 (Windows NT 10.0; Win64; x64) AppleWebKit/537.36 (KHTML, like Gecko) Chrome/130.0.0.0 Safari/537.36 OPR/115.0.0.0","WebKit","Opera","115.0.0.0","Windows","10.0","https://app.prolific.com/","en-US,en;q=0.9","5f4d3cb5fdda0b2c403fb801","679edb085803f58d6bbd31ca","679ee17da7ec9ae3889c8c20","","1308","<img id='swapped' src='G_1.jpg' height='90'> <img id='swapped' src='G_7.jpg' height='90'> <img src='G_3.jpg' height='90'> <img src='G_9.jpg' height='90'> <img src='G_5.jpg' height='90'>","1","Learning example 0","",""
"","","","","","html-button-response","38","133342","0.0-29.0","15","1","2025-02-02 03:07:46","bc01a2b6f61d06f6604adb8657495020","47.151.109.216","Mozilla/5.0 (Windows NT 10.0; Win64; x64) AppleWebKit/537.36 (KHTML, like Gecko) Chrome/130.0.0.0 Safari/537.36 OPR/115.0.0.0","WebKit","Opera","115.0.0.0","Windows","10.0","https://app.prolific.com/","en-US,en;q=0.9","5f4d3cb5fdda0b2c403fb801","679edb085803f58d6bbd31ca","679ee17da7ec9ae3889c8c20","","null","<img  src='G_1.jpg' height='90'> <img  src='G_7.jpg' height='90'> <img src='G_3.jpg' height='90'> <img src='G_9.jpg' height='90'> <img src='G_5.jpg' height='90'>","null","Learning example 0","",""
"","","","","","html-button-response","39","133758","0.0-30.0","15","1","2025-02-02 03:07:46","bc01a2b6f61d06f6604adb8657495020","47.151.109.216","Mozilla/5.0 (Windows NT 10.0; Win64; x64) AppleWebKit/537.36 (KHTML, like Gecko) Chrome/130.0.0.0 Safari/537.36 OPR/115.0.0.0","WebKit","Opera","115.0.0.0","Windows","10.0","https://app.prolific.com/","en-US,en;q=0.9","5f4d3cb5fdda0b2c403fb801","679edb085803f58d6bbd31ca","679ee17da7ec9ae3889c8c20","","null","<img  src='G_1.jpg' height='90'> <img id='selected'  src='G_7.jpg' height='90'> <img src='G_3.jpg' height='90'> <img src='G_9.jpg' height='90'> <img src='G_5.jpg' height='90'>","null","Learning example 0","",""
"","","","","","html-button-response","40","134064","0.0-31.0","15","1","2025-02-02 03:07:46","bc01a2b6f61d06f6604adb8657495020","47.151.109.216","Mozilla/5.0 (Windows NT 10.0; Win64; x64) AppleWebKit/537.36 (KHTML, like Gecko) Chrome/130.0.0.0 Safari/537.36 OPR/115.0.0.0","WebKit","Opera","115.0.0.0","Windows","10.0","https://app.prolific.com/","en-US,en;q=0.9","5f4d3cb5fdda0b2c403fb801","679edb085803f58d6bbd31ca","679ee17da7ec9ae3889c8c20","","null","<img  src='G_1.jpg' height='90'> <img id='selected'  src='G_7.jpg' height='90'> <img id='selected' src='G_3.jpg' height='90'> <img src='G_9.jpg' height='90'> <img src='G_5.jpg' height='90'>","null","Learning example 0","",""
"","","","","","html-button-response","41","134372","0.0-32.0","15","1","2025-02-02 03:07:46","bc01a2b6f61d06f6604adb8657495020","47.151.109.216","Mozilla/5.0 (Windows NT 10.0; Win64; x64) AppleWebKit/537.36 (KHTML, like Gecko) Chrome/130.0.0.0 Safari/537.36 OPR/115.0.0.0","WebKit","Opera","115.0.0.0","Windows","10.0","https://app.prolific.com/","en-US,en;q=0.9","5f4d3cb5fdda0b2c403fb801","679edb085803f58d6bbd31ca","679ee17da7ec9ae3889c8c20","","null","<img  src='G_1.jpg' height='90'> <img id='selected'  src='G_7.jpg' height='90'> <img id='selected' src='G_3.jpg' height='90'> <img src='G_9.jpg' height='90'> <img src='G_5.jpg' height='90'>","null","Learning example 0","",""
"","","","","","html-button-response","42","136170","0.0-33.0-0.0-0.0","15","1","2025-02-02 03:07:46","bc01a2b6f61d06f6604adb8657495020","47.151.109.216","Mozilla/5.0 (Windows NT 10.0; Win64; x64) AppleWebKit/537.36 (KHTML, like Gecko) Chrome/130.0.0.0 Safari/537.36 OPR/115.0.0.0","WebKit","Opera","115.0.0.0","Windows","10.0","https://app.prolific.com/","en-US,en;q=0.9","5f4d3cb5fdda0b2c403fb801","679edb085803f58d6bbd31ca","679ee17da7ec9ae3889c8c20","","1795","<img  src='G_1.jpg' height='90'> <img id='selected'  src='G_7.jpg' height='90'> <img id='selected' src='G_3.jpg' height='90'> <img src='G_9.jpg' height='90'> <img src='G_5.jpg' height='90'>","1","Learning example 0","",""
"","","","","","html-button-response","43","136754","0.0-33.1-0.1-0.1","15","1","2025-02-02 03:07:46","bc01a2b6f61d06f6604adb8657495020","47.151.109.216","Mozilla/5.0 (Windows NT 10.0; Win64; x64) AppleWebKit/537.36 (KHTML, like Gecko) Chrome/130.0.0.0 Safari/537.36 OPR/115.0.0.0","WebKit","Opera","115.0.0.0","Windows","10.0","https://app.prolific.com/","en-US,en;q=0.9","5f4d3cb5fdda0b2c403fb801","679edb085803f58d6bbd31ca","679ee17da7ec9ae3889c8c20","","581","<img  src='G_1.jpg' height='90'> <img id='selected'  src='G_7.jpg' height='90'> <img id='selected' src='G_3.jpg' height='90'> <img src='G_9.jpg' height='90'> <img src='G_5.jpg' height='90'>","2","Learning example 0","",""
"","","","","","html-button-response","44","136962","0.0-34.0","15","1","2025-02-02 03:07:46","bc01a2b6f61d06f6604adb8657495020","47.151.109.216","Mozilla/5.0 (Windows NT 10.0; Win64; x64) AppleWebKit/537.36 (KHTML, like Gecko) Chrome/130.0.0.0 Safari/537.36 OPR/115.0.0.0","WebKit","Opera","115.0.0.0","Windows","10.0","https://app.prolific.com/","en-US,en;q=0.9","5f4d3cb5fdda0b2c403fb801","679edb085803f58d6bbd31ca","679ee17da7ec9ae3889c8c20","","null","<img  src='G_1.jpg' height='90'> <img   src='G_7.jpg' height='90'> <img  src='G_3.jpg' height='90'> <img src='G_9.jpg' height='90'> <img src='G_5.jpg' height='90'>","null","Learning example 0","",""
"","","","","","html-button-response","45","137365","0.0-35.0","15","1","2025-02-02 03:07:46","bc01a2b6f61d06f6604adb8657495020","47.151.109.216","Mozilla/5.0 (Windows NT 10.0; Win64; x64) AppleWebKit/537.36 (KHTML, like Gecko) Chrome/130.0.0.0 Safari/537.36 OPR/115.0.0.0","WebKit","Opera","115.0.0.0","Windows","10.0","https://app.prolific.com/","en-US,en;q=0.9","5f4d3cb5fdda0b2c403fb801","679edb085803f58d6bbd31ca","679ee17da7ec9ae3889c8c20","","null","<img  src='G_1.jpg' height='90'> <img   src='G_7.jpg' height='90'> <img id='selected'  src='G_3.jpg' height='90'> <img src='G_9.jpg' height='90'> <img src='G_5.jpg' height='90'>","null","Learning example 0","",""
"","","","","","html-button-response","46","137677","0.0-36.0","15","1","2025-02-02 03:07:46","bc01a2b6f61d06f6604adb8657495020","47.151.109.216","Mozilla/5.0 (Windows NT 10.0; Win64; x64) AppleWebKit/537.36 (KHTML, like Gecko) Chrome/130.0.0.0 Safari/537.36 OPR/115.0.0.0","WebKit","Opera","115.0.0.0","Windows","10.0","https://app.prolific.com/","en-US,en;q=0.9","5f4d3cb5fdda0b2c403fb801","679edb085803f58d6bbd31ca","679ee17da7ec9ae3889c8c20","","null","<img  src='G_1.jpg' height='90'> <img   src='G_7.jpg' height='90'> <img id='selected'  src='G_3.jpg' height='90'> <img id='selected' src='G_9.jpg' height='90'> <img src='G_5.jpg' height='90'>","null","Learning example 0","",""
"","","","","","html-button-response","47","137979","0.0-37.0","15","1","2025-02-02 03:07:46","bc01a2b6f61d06f6604adb8657495020","47.151.109.216","Mozilla/5.0 (Windows NT 10.0; Win64; x64) AppleWebKit/537.36 (KHTML, like Gecko) Chrome/130.0.0.0 Safari/537.36 OPR/115.0.0.0","WebKit","Opera","115.0.0.0","Windows","10.0","https://app.prolific.com/","en-US,en;q=0.9","5f4d3cb5fdda0b2c403fb801","679edb085803f58d6bbd31ca","679ee17da7ec9ae3889c8c20","","null","<img  src='G_1.jpg' height='90'> <img   src='G_7.jpg' height='90'> <img id='selected'  src='G_3.jpg' height='90'> <img id='selected' src='G_9.jpg' height='90'> <img src='G_5.jpg' height='90'>","null","Learning example 0","",""
"","","","","","html-button-response","48","139050","0.0-38.0-0.0-0.0","15","1","2025-02-02 03:07:46","bc01a2b6f61d06f6604adb8657495020","47.151.109.216","Mozilla/5.0 (Windows NT 10.0; Win64; x64) AppleWebKit/537.36 (KHTML, like Gecko) Chrome/130.0.0.0 Safari/537.36 OPR/115.0.0.0","WebKit","Opera","115.0.0.0","Windows","10.0","https://app.prolific.com/","en-US,en;q=0.9","5f4d3cb5fdda0b2c403fb801","679edb085803f58d6bbd31ca","679ee17da7ec9ae3889c8c20","","1070","<img  src='G_1.jpg' height='90'> <img   src='G_7.jpg' height='90'> <img id='selected'  src='G_3.jpg' height='90'> <img id='selected' src='G_9.jpg' height='90'> <img src='G_5.jpg' height='90'>","2","Learning example 0","",""
"","","","","","html-button-response","49","139594","0.0-38.1-0.1-0.1","15","1","2025-02-02 03:07:46","bc01a2b6f61d06f6604adb8657495020","47.151.109.216","Mozilla/5.0 (Windows NT 10.0; Win64; x64) AppleWebKit/537.36 (KHTML, like Gecko) Chrome/130.0.0.0 Safari/537.36 OPR/115.0.0.0","WebKit","Opera","115.0.0.0","Windows","10.0","https://app.prolific.com/","en-US,en;q=0.9","5f4d3cb5fdda0b2c403fb801","679edb085803f58d6bbd31ca","679ee17da7ec9ae3889c8c20","","542","<img  src='G_1.jpg' height='90'> <img   src='G_7.jpg' height='90'> <img id='selected'  src='G_3.jpg' height='90'> <img id='selected' src='G_9.jpg' height='90'> <img src='G_5.jpg' height='90'>","3","Learning example 0","",""
"","","","","","html-button-response","50","139805","0.0-39.0","15","1","2025-02-02 03:07:46","bc01a2b6f61d06f6604adb8657495020","47.151.109.216","Mozilla/5.0 (Windows NT 10.0; Win64; x64) AppleWebKit/537.36 (KHTML, like Gecko) Chrome/130.0.0.0 Safari/537.36 OPR/115.0.0.0","WebKit","Opera","115.0.0.0","Windows","10.0","https://app.prolific.com/","en-US,en;q=0.9","5f4d3cb5fdda0b2c403fb801","679edb085803f58d6bbd31ca","679ee17da7ec9ae3889c8c20","","null","<img  src='G_1.jpg' height='90'> <img   src='G_7.jpg' height='90'> <img   src='G_3.jpg' height='90'> <img  src='G_9.jpg' height='90'> <img src='G_5.jpg' height='90'>","null","Learning example 0","",""
"","","","","","html-button-response","51","140223","0.0-40.0","15","1","2025-02-02 03:07:46","bc01a2b6f61d06f6604adb8657495020","47.151.109.216","Mozilla/5.0 (Windows NT 10.0; Win64; x64) AppleWebKit/537.36 (KHTML, like Gecko) Chrome/130.0.0.0 Safari/537.36 OPR/115.0.0.0","WebKit","Opera","115.0.0.0","Windows","10.0","https://app.prolific.com/","en-US,en;q=0.9","5f4d3cb5fdda0b2c403fb801","679edb085803f58d6bbd31ca","679ee17da7ec9ae3889c8c20","","null","<img  src='G_1.jpg' height='90'> <img   src='G_7.jpg' height='90'> <img   src='G_3.jpg' height='90'> <img id='selected'  src='G_9.jpg' height='90'> <img src='G_5.jpg' height='90'>","null","Learning example 0","",""
"","","","","","html-button-response","52","140530","0.0-41.0","15","1","2025-02-02 03:07:46","bc01a2b6f61d06f6604adb8657495020","47.151.109.216","Mozilla/5.0 (Windows NT 10.0; Win64; x64) AppleWebKit/537.36 (KHTML, like Gecko) Chrome/130.0.0.0 Safari/537.36 OPR/115.0.0.0","WebKit","Opera","115.0.0.0","Windows","10.0","https://app.prolific.com/","en-US,en;q=0.9","5f4d3cb5fdda0b2c403fb801","679edb085803f58d6bbd31ca","679ee17da7ec9ae3889c8c20","","null","<img  src='G_1.jpg' height='90'> <img   src='G_7.jpg' height='90'> <img   src='G_3.jpg' height='90'> <img id='selected'  src='G_9.jpg' height='90'> <img id='selected' src='G_5.jpg' height='90'>","null","Learning example 0","",""
"","","","","","html-button-response","53","140831","0.0-42.0","15","1","2025-02-02 03:07:46","bc01a2b6f61d06f6604adb8657495020","47.151.109.216","Mozilla/5.0 (Windows NT 10.0; Win64; x64) AppleWebKit/537.36 (KHTML, like Gecko) Chrome/130.0.0.0 Safari/537.36 OPR/115.0.0.0","WebKit","Opera","115.0.0.0","Windows","10.0","https://app.prolific.com/","en-US,en;q=0.9","5f4d3cb5fdda0b2c403fb801","679edb085803f58d6bbd31ca","679ee17da7ec9ae3889c8c20","","null","<img  src='G_1.jpg' height='90'> <img   src='G_7.jpg' height='90'> <img   src='G_3.jpg' height='90'> <img id='selected'  src='G_9.jpg' height='90'> <img id='selected' src='G_5.jpg' height='90'>","null","Learning example 0","",""
"","","","","","html-button-response","54","141826","0.0-43.0-0.0-0.0","15","1","2025-02-02 03:07:46","bc01a2b6f61d06f6604adb8657495020","47.151.109.216","Mozilla/5.0 (Windows NT 10.0; Win64; x64) AppleWebKit/537.36 (KHTML, like Gecko) Chrome/130.0.0.0 Safari/537.36 OPR/115.0.0.0","WebKit","Opera","115.0.0.0","Windows","10.0","https://app.prolific.com/","en-US,en;q=0.9","5f4d3cb5fdda0b2c403fb801","679edb085803f58d6bbd31ca","679ee17da7ec9ae3889c8c20","","992","<img  src='G_1.jpg' height='90'> <img   src='G_7.jpg' height='90'> <img   src='G_3.jpg' height='90'> <img id='selected'  src='G_9.jpg' height='90'> <img id='selected' src='G_5.jpg' height='90'>","3","Learning example 0","",""
"","","","","","html-button-response","55","142402","0.0-43.1-0.1-0.1","15","1","2025-02-02 03:07:46","bc01a2b6f61d06f6604adb8657495020","47.151.109.216","Mozilla/5.0 (Windows NT 10.0; Win64; x64) AppleWebKit/537.36 (KHTML, like Gecko) Chrome/130.0.0.0 Safari/537.36 OPR/115.0.0.0","WebKit","Opera","115.0.0.0","Windows","10.0","https://app.prolific.com/","en-US,en;q=0.9","5f4d3cb5fdda0b2c403fb801","679edb085803f58d6bbd31ca","679ee17da7ec9ae3889c8c20","","573","<img  src='G_1.jpg' height='90'> <img   src='G_7.jpg' height='90'> <img   src='G_3.jpg' height='90'> <img id='selected'  src='G_9.jpg' height='90'> <img id='selected' src='G_5.jpg' height='90'>","4","Learning example 0","",""
"","","","","","html-button-response","56","142615","0.0-44.0","15","1","2025-02-02 03:07:46","bc01a2b6f61d06f6604adb8657495020","47.151.109.216","Mozilla/5.0 (Windows NT 10.0; Win64; x64) AppleWebKit/537.36 (KHTML, like Gecko) Chrome/130.0.0.0 Safari/537.36 OPR/115.0.0.0","WebKit","Opera","115.0.0.0","Windows","10.0","https://app.prolific.com/","en-US,en;q=0.9","5f4d3cb5fdda0b2c403fb801","679edb085803f58d6bbd31ca","679ee17da7ec9ae3889c8c20","","null","<img  src='G_1.jpg' height='90'> <img   src='G_7.jpg' height='90'> <img   src='G_3.jpg' height='90'> <img   src='G_9.jpg' height='90'> <img  src='G_5.jpg' height='90'>","null","Learning example 0","",""
"","","","","","html-keyboard-response","57","149523","0.0-45.0","15","1","2025-02-02 03:07:46","bc01a2b6f61d06f6604adb8657495020","47.151.109.216","Mozilla/5.0 (Windows NT 10.0; Win64; x64) AppleWebKit/537.36 (KHTML, like Gecko) Chrome/130.0.0.0 Safari/537.36 OPR/115.0.0.0","WebKit","Opera","115.0.0.0","Windows","10.0","https://app.prolific.com/","en-US,en;q=0.9","5f4d3cb5fdda0b2c403fb801","679edb085803f58d6bbd31ca","679ee17da7ec9ae3889c8c20","","6904","[""Final order was 1,2,3,4,5. The initial order was 2,1,3,4,5.<br>It took 1 swaps to sort it correctly with Omgne Sort. <br><br>Press Enter to continue.""]","enter","","",""
"","","","","","html-keyboard-response","58","152938","0.0-46.0","15","1","2025-02-02 03:07:46","bc01a2b6f61d06f6604adb8657495020","47.151.109.216","Mozilla/5.0 (Windows NT 10.0; Win64; x64) AppleWebKit/537.36 (KHTML, like Gecko) Chrome/130.0.0.0 Safari/537.36 OPR/115.0.0.0","WebKit","Opera","115.0.0.0","Windows","10.0","https://app.prolific.com/","en-US,en;q=0.9","5f4d3cb5fdda0b2c403fb801","679edb085803f58d6bbd31ca","679ee17da7ec9ae3889c8c20","","3413","[""Example 2<br><br>You will watch Omnge Sort in action. Try to identify any patterns in the comparisons made by this method. <br><br>Press Enter to continue.""]","enter","","",""
"","","","","","html-keyboard-response","59","153453","0.0-47.0","15","1","2025-02-02 03:07:46","bc01a2b6f61d06f6604adb8657495020","47.151.109.216","Mozilla/5.0 (Windows NT 10.0; Win64; x64) AppleWebKit/537.36 (KHTML, like Gecko) Chrome/130.0.0.0 Safari/537.36 OPR/115.0.0.0","WebKit","Opera","115.0.0.0","Windows","10.0","https://app.prolific.com/","en-US,en;q=0.9","5f4d3cb5fdda0b2c403fb801","679edb085803f58d6bbd31ca","679ee17da7ec9ae3889c8c20","","null","<img id='selected' src='G_6.jpg' height='90'> <img src='G_8.jpg' height='90'> <img src='G_3.jpg' height='90'> <img src='G_2.jpg' height='90'> <img src='G_4.jpg' height='90'> <img src='G_5.jpg' height='90'> <img src='G_1.jpg' height='90'> <img src='G_7.jpg' height='90'>","null","Animation1","",""
"","","","","","html-keyboard-response","60","153967","0.0-48.0","15","1","2025-02-02 03:07:46","bc01a2b6f61d06f6604adb8657495020","47.151.109.216","Mozilla/5.0 (Windows NT 10.0; Win64; x64) AppleWebKit/537.36 (KHTML, like Gecko) Chrome/130.0.0.0 Safari/537.36 OPR/115.0.0.0","WebKit","Opera","115.0.0.0","Windows","10.0","https://app.prolific.com/","en-US,en;q=0.9","5f4d3cb5fdda0b2c403fb801","679edb085803f58d6bbd31ca","679ee17da7ec9ae3889c8c20","","null","<img id='selected' src='G_6.jpg' height='90'> <img id='selected' src='G_8.jpg' height='90'> <img src='G_3.jpg' height='90'> <img src='G_2.jpg' height='90'> <img src='G_4.jpg' height='90'> <img src='G_5.jpg' height='90'> <img src='G_1.jpg' height='90'> <img src='G_7.jpg' height='90'>","null","Animation1","",""
"","","","","","html-keyboard-response","61","154482","0.0-49.0","15","1","2025-02-02 03:07:46","bc01a2b6f61d06f6604adb8657495020","47.151.109.216","Mozilla/5.0 (Windows NT 10.0; Win64; x64) AppleWebKit/537.36 (KHTML, like Gecko) Chrome/130.0.0.0 Safari/537.36 OPR/115.0.0.0","WebKit","Opera","115.0.0.0","Windows","10.0","https://app.prolific.com/","en-US,en;q=0.9","5f4d3cb5fdda0b2c403fb801","679edb085803f58d6bbd31ca","679ee17da7ec9ae3889c8c20","","null","<img id='selected' src='G_6.jpg' height='90'> <img id='selected' src='G_8.jpg' height='90'> <img src='G_3.jpg' height='90'> <img src='G_2.jpg' height='90'> <img src='G_4.jpg' height='90'> <img src='G_5.jpg' height='90'> <img src='G_1.jpg' height='90'> <img src='G_7.jpg' height='90'>","null","Animation1","",""
"","","","","","html-keyboard-response","62","154792","0.0-50.0","15","1","2025-02-02 03:07:46","bc01a2b6f61d06f6604adb8657495020","47.151.109.216","Mozilla/5.0 (Windows NT 10.0; Win64; x64) AppleWebKit/537.36 (KHTML, like Gecko) Chrome/130.0.0.0 Safari/537.36 OPR/115.0.0.0","WebKit","Opera","115.0.0.0","Windows","10.0","https://app.prolific.com/","en-US,en;q=0.9","5f4d3cb5fdda0b2c403fb801","679edb085803f58d6bbd31ca","679ee17da7ec9ae3889c8c20","","null","<img  src='G_6.jpg' height='90'> <img  src='G_8.jpg' height='90'> <img src='G_3.jpg' height='90'> <img src='G_2.jpg' height='90'> <img src='G_4.jpg' height='90'> <img src='G_5.jpg' height='90'> <img src='G_1.jpg' height='90'> <img src='G_7.jpg' height='90'>","null","Animation1","",""
"","","","","","html-keyboard-response","63","155305","0.0-51.0","15","1","2025-02-02 03:07:46","bc01a2b6f61d06f6604adb8657495020","47.151.109.216","Mozilla/5.0 (Windows NT 10.0; Win64; x64) AppleWebKit/537.36 (KHTML, like Gecko) Chrome/130.0.0.0 Safari/537.36 OPR/115.0.0.0","WebKit","Opera","115.0.0.0","Windows","10.0","https://app.prolific.com/","en-US,en;q=0.9","5f4d3cb5fdda0b2c403fb801","679edb085803f58d6bbd31ca","679ee17da7ec9ae3889c8c20","","null","<img  src='G_6.jpg' height='90'> <img id='selected'  src='G_8.jpg' height='90'> <img src='G_3.jpg' height='90'> <img src='G_2.jpg' height='90'> <img src='G_4.jpg' height='90'> <img src='G_5.jpg' height='90'> <img src='G_1.jpg' height='90'> <img src='G_7.jpg' height='90'>","null","Animation1","",""
"","","","","","html-keyboard-response","64","155817","0.0-52.0","15","1","2025-02-02 03:07:46","bc01a2b6f61d06f6604adb8657495020","47.151.109.216","Mozilla/5.0 (Windows NT 10.0; Win64; x64) AppleWebKit/537.36 (KHTML, like Gecko) Chrome/130.0.0.0 Safari/537.36 OPR/115.0.0.0","WebKit","Opera","115.0.0.0","Windows","10.0","https://app.prolific.com/","en-US,en;q=0.9","5f4d3cb5fdda0b2c403fb801","679edb085803f58d6bbd31ca","679ee17da7ec9ae3889c8c20","","null","<img  src='G_6.jpg' height='90'> <img id='selected'  src='G_8.jpg' height='90'> <img id='selected' src='G_3.jpg' height='90'> <img src='G_2.jpg' height='90'> <img src='G_4.jpg' height='90'> <img src='G_5.jpg' height='90'> <img src='G_1.jpg' height='90'> <img src='G_7.jpg' height='90'>","null","Animation1","",""
"","","","","","html-keyboard-response","65","156331","0.0-53.0","15","1","2025-02-02 03:07:46","bc01a2b6f61d06f6604adb8657495020","47.151.109.216","Mozilla/5.0 (Windows NT 10.0; Win64; x64) AppleWebKit/537.36 (KHTML, like Gecko) Chrome/130.0.0.0 Safari/537.36 OPR/115.0.0.0","WebKit","Opera","115.0.0.0","Windows","10.0","https://app.prolific.com/","en-US,en;q=0.9","5f4d3cb5fdda0b2c403fb801","679edb085803f58d6bbd31ca","679ee17da7ec9ae3889c8c20","","null","<img  src='G_6.jpg' height='90'> <img id='swapped' src='G_3.jpg' height='90'> <img id='swapped'  src='G_8.jpg' height='90'> <img src='G_2.jpg' height='90'> <img src='G_4.jpg' height='90'> <img src='G_5.jpg' height='90'> <img src='G_1.jpg' height='90'> <img src='G_7.jpg' height='90'>","null","Animation1","",""
"","","","","","html-keyboard-response","66","156642","0.0-54.0","15","1","2025-02-02 03:07:46","bc01a2b6f61d06f6604adb8657495020","47.151.109.216","Mozilla/5.0 (Windows NT 10.0; Win64; x64) AppleWebKit/537.36 (KHTML, like Gecko) Chrome/130.0.0.0 Safari/537.36 OPR/115.0.0.0","WebKit","Opera","115.0.0.0","Windows","10.0","https://app.prolific.com/","en-US,en;q=0.9","5f4d3cb5fdda0b2c403fb801","679edb085803f58d6bbd31ca","679ee17da7ec9ae3889c8c20","","null","<img  src='G_6.jpg' height='90'> <img  src='G_3.jpg' height='90'> <img   src='G_8.jpg' height='90'> <img src='G_2.jpg' height='90'> <img src='G_4.jpg' height='90'> <img src='G_5.jpg' height='90'> <img src='G_1.jpg' height='90'> <img src='G_7.jpg' height='90'>","null","Animation1","",""
"","","","","","html-keyboard-response","67","157152","0.0-55.0","15","1","2025-02-02 03:07:46","bc01a2b6f61d06f6604adb8657495020","47.151.109.216","Mozilla/5.0 (Windows NT 10.0; Win64; x64) AppleWebKit/537.36 (KHTML, like Gecko) Chrome/130.0.0.0 Safari/537.36 OPR/115.0.0.0","WebKit","Opera","115.0.0.0","Windows","10.0","https://app.prolific.com/","en-US,en;q=0.9","5f4d3cb5fdda0b2c403fb801","679edb085803f58d6bbd31ca","679ee17da7ec9ae3889c8c20","","null","<img id='selected'  src='G_6.jpg' height='90'> <img  src='G_3.jpg' height='90'> <img   src='G_8.jpg' height='90'> <img src='G_2.jpg' height='90'> <img src='G_4.jpg' height='90'> <img src='G_5.jpg' height='90'> <img src='G_1.jpg' height='90'> <img src='G_7.jpg' height='90'>","null","Animation1","",""
"","","","","","html-keyboard-response","68","157663","0.0-56.0","15","1","2025-02-02 03:07:46","bc01a2b6f61d06f6604adb8657495020","47.151.109.216","Mozilla/5.0 (Windows NT 10.0; Win64; x64) AppleWebKit/537.36 (KHTML, like Gecko) Chrome/130.0.0.0 Safari/537.36 OPR/115.0.0.0","WebKit","Opera","115.0.0.0","Windows","10.0","https://app.prolific.com/","en-US,en;q=0.9","5f4d3cb5fdda0b2c403fb801","679edb085803f58d6bbd31ca","679ee17da7ec9ae3889c8c20","","null","<img id='selected'  src='G_6.jpg' height='90'> <img id='selected'  src='G_3.jpg' height='90'> <img   src='G_8.jpg' height='90'> <img src='G_2.jpg' height='90'> <img src='G_4.jpg' height='90'> <img src='G_5.jpg' height='90'> <img src='G_1.jpg' height='90'> <img src='G_7.jpg' height='90'>","null","Animation1","",""
"","","","","","html-keyboard-response","69","158174","0.0-57.0","15","1","2025-02-02 03:07:46","bc01a2b6f61d06f6604adb8657495020","47.151.109.216","Mozilla/5.0 (Windows NT 10.0; Win64; x64) AppleWebKit/537.36 (KHTML, like Gecko) Chrome/130.0.0.0 Safari/537.36 OPR/115.0.0.0","WebKit","Opera","115.0.0.0","Windows","10.0","https://app.prolific.com/","en-US,en;q=0.9","5f4d3cb5fdda0b2c403fb801","679edb085803f58d6bbd31ca","679ee17da7ec9ae3889c8c20","","null","<img id='swapped'  src='G_3.jpg' height='90'> <img id='swapped'  src='G_6.jpg' height='90'> <img   src='G_8.jpg' height='90'> <img src='G_2.jpg' height='90'> <img src='G_4.jpg' height='90'> <img src='G_5.jpg' height='90'> <img src='G_1.jpg' height='90'> <img src='G_7.jpg' height='90'>","null","Animation1","",""
"","","","","","html-keyboard-response","70","158484","0.0-58.0","15","1","2025-02-02 03:07:46","bc01a2b6f61d06f6604adb8657495020","47.151.109.216","Mozilla/5.0 (Windows NT 10.0; Win64; x64) AppleWebKit/537.36 (KHTML, like Gecko) Chrome/130.0.0.0 Safari/537.36 OPR/115.0.0.0","WebKit","Opera","115.0.0.0","Windows","10.0","https://app.prolific.com/","en-US,en;q=0.9","5f4d3cb5fdda0b2c403fb801","679edb085803f58d6bbd31ca","679ee17da7ec9ae3889c8c20","","null","<img   src='G_3.jpg' height='90'> <img   src='G_6.jpg' height='90'> <img   src='G_8.jpg' height='90'> <img src='G_2.jpg' height='90'> <img src='G_4.jpg' height='90'> <img src='G_5.jpg' height='90'> <img src='G_1.jpg' height='90'> <img src='G_7.jpg' height='90'>","null","Animation1","",""
"","","","","","html-keyboard-response","71","158997","0.0-59.0","15","1","2025-02-02 03:07:46","bc01a2b6f61d06f6604adb8657495020","47.151.109.216","Mozilla/5.0 (Windows NT 10.0; Win64; x64) AppleWebKit/537.36 (KHTML, like Gecko) Chrome/130.0.0.0 Safari/537.36 OPR/115.0.0.0","WebKit","Opera","115.0.0.0","Windows","10.0","https://app.prolific.com/","en-US,en;q=0.9","5f4d3cb5fdda0b2c403fb801","679edb085803f58d6bbd31ca","679ee17da7ec9ae3889c8c20","","null","<img   src='G_3.jpg' height='90'> <img   src='G_6.jpg' height='90'> <img id='selected'   src='G_8.jpg' height='90'> <img src='G_2.jpg' height='90'> <img src='G_4.jpg' height='90'> <img src='G_5.jpg' height='90'> <img src='G_1.jpg' height='90'> <img src='G_7.jpg' height='90'>","null","Animation1","",""
"","","","","","html-keyboard-response","72","159506","0.0-60.0","15","1","2025-02-02 03:07:46","bc01a2b6f61d06f6604adb8657495020","47.151.109.216","Mozilla/5.0 (Windows NT 10.0; Win64; x64) AppleWebKit/537.36 (KHTML, like Gecko) Chrome/130.0.0.0 Safari/537.36 OPR/115.0.0.0","WebKit","Opera","115.0.0.0","Windows","10.0","https://app.prolific.com/","en-US,en;q=0.9","5f4d3cb5fdda0b2c403fb801","679edb085803f58d6bbd31ca","679ee17da7ec9ae3889c8c20","","null","<img   src='G_3.jpg' height='90'> <img   src='G_6.jpg' height='90'> <img id='selected'   src='G_8.jpg' height='90'> <img id='selected' src='G_2.jpg' height='90'> <img src='G_4.jpg' height='90'> <img src='G_5.jpg' height='90'> <img src='G_1.jpg' height='90'> <img src='G_7.jpg' height='90'>","null","Animation1","",""
"","","","","","html-keyboard-response","73","160018","0.0-61.0","15","1","2025-02-02 03:07:46","bc01a2b6f61d06f6604adb8657495020","47.151.109.216","Mozilla/5.0 (Windows NT 10.0; Win64; x64) AppleWebKit/537.36 (KHTML, like Gecko) Chrome/130.0.0.0 Safari/537.36 OPR/115.0.0.0","WebKit","Opera","115.0.0.0","Windows","10.0","https://app.prolific.com/","en-US,en;q=0.9","5f4d3cb5fdda0b2c403fb801","679edb085803f58d6bbd31ca","679ee17da7ec9ae3889c8c20","","null","<img   src='G_3.jpg' height='90'> <img   src='G_6.jpg' height='90'> <img id='swapped' src='G_2.jpg' height='90'> <img id='swapped'   src='G_8.jpg' height='90'> <img src='G_4.jpg' height='90'> <img src='G_5.jpg' height='90'> <img src='G_1.jpg' height='90'> <img src='G_7.jpg' height='90'>","null","Animation1","",""
"","","","","","html-keyboard-response","74","160327","0.0-62.0","15","1","2025-02-02 03:07:46","bc01a2b6f61d06f6604adb8657495020","47.151.109.216","Mozilla/5.0 (Windows NT 10.0; Win64; x64) AppleWebKit/537.36 (KHTML, like Gecko) Chrome/130.0.0.0 Safari/537.36 OPR/115.0.0.0","WebKit","Opera","115.0.0.0","Windows","10.0","https://app.prolific.com/","en-US,en;q=0.9","5f4d3cb5fdda0b2c403fb801","679edb085803f58d6bbd31ca","679ee17da7ec9ae3889c8c20","","null","<img   src='G_3.jpg' height='90'> <img   src='G_6.jpg' height='90'> <img  src='G_2.jpg' height='90'> <img    src='G_8.jpg' height='90'> <img src='G_4.jpg' height='90'> <img src='G_5.jpg' height='90'> <img src='G_1.jpg' height='90'> <img src='G_7.jpg' height='90'>","null","Animation1","",""
"","","","","","html-keyboard-response","75","160837","0.0-63.0","15","1","2025-02-02 03:07:46","bc01a2b6f61d06f6604adb8657495020","47.151.109.216","Mozilla/5.0 (Windows NT 10.0; Win64; x64) AppleWebKit/537.36 (KHTML, like Gecko) Chrome/130.0.0.0 Safari/537.36 OPR/115.0.0.0","WebKit","Opera","115.0.0.0","Windows","10.0","https://app.prolific.com/","en-US,en;q=0.9","5f4d3cb5fdda0b2c403fb801","679edb085803f58d6bbd31ca","679ee17da7ec9ae3889c8c20","","null","<img   src='G_3.jpg' height='90'> <img id='selected'   src='G_6.jpg' height='90'> <img  src='G_2.jpg' height='90'> <img    src='G_8.jpg' height='90'> <img src='G_4.jpg' height='90'> <img src='G_5.jpg' height='90'> <img src='G_1.jpg' height='90'> <img src='G_7.jpg' height='90'>","null","Animation1","",""
"","","","","","html-keyboard-response","76","161352","0.0-64.0","15","1","2025-02-02 03:07:46","bc01a2b6f61d06f6604adb8657495020","47.151.109.216","Mozilla/5.0 (Windows NT 10.0; Win64; x64) AppleWebKit/537.36 (KHTML, like Gecko) Chrome/130.0.0.0 Safari/537.36 OPR/115.0.0.0","WebKit","Opera","115.0.0.0","Windows","10.0","https://app.prolific.com/","en-US,en;q=0.9","5f4d3cb5fdda0b2c403fb801","679edb085803f58d6bbd31ca","679ee17da7ec9ae3889c8c20","","null","<img   src='G_3.jpg' height='90'> <img id='selected'   src='G_6.jpg' height='90'> <img id='selected'  src='G_2.jpg' height='90'> <img    src='G_8.jpg' height='90'> <img src='G_4.jpg' height='90'> <img src='G_5.jpg' height='90'> <img src='G_1.jpg' height='90'> <img src='G_7.jpg' height='90'>","null","Animation1","",""
"","","","","","html-keyboard-response","77","161863","0.0-65.0","15","1","2025-02-02 03:07:46","bc01a2b6f61d06f6604adb8657495020","47.151.109.216","Mozilla/5.0 (Windows NT 10.0; Win64; x64) AppleWebKit/537.36 (KHTML, like Gecko) Chrome/130.0.0.0 Safari/537.36 OPR/115.0.0.0","WebKit","Opera","115.0.0.0","Windows","10.0","https://app.prolific.com/","en-US,en;q=0.9","5f4d3cb5fdda0b2c403fb801","679edb085803f58d6bbd31ca","679ee17da7ec9ae3889c8c20","","null","<img   src='G_3.jpg' height='90'> <img id='swapped'  src='G_2.jpg' height='90'> <img id='swapped'   src='G_6.jpg' height='90'> <img    src='G_8.jpg' height='90'> <img src='G_4.jpg' height='90'> <img src='G_5.jpg' height='90'> <img src='G_1.jpg' height='90'> <img src='G_7.jpg' height='90'>","null","Animation1","",""
"","","","","","html-keyboard-response","78","162177","0.0-66.0","15","1","2025-02-02 03:07:46","bc01a2b6f61d06f6604adb8657495020","47.151.109.216","Mozilla/5.0 (Windows NT 10.0; Win64; x64) AppleWebKit/537.36 (KHTML, like Gecko) Chrome/130.0.0.0 Safari/537.36 OPR/115.0.0.0","WebKit","Opera","115.0.0.0","Windows","10.0","https://app.prolific.com/","en-US,en;q=0.9","5f4d3cb5fdda0b2c403fb801","679edb085803f58d6bbd31ca","679ee17da7ec9ae3889c8c20","","null","<img   src='G_3.jpg' height='90'> <img   src='G_2.jpg' height='90'> <img    src='G_6.jpg' height='90'> <img    src='G_8.jpg' height='90'> <img src='G_4.jpg' height='90'> <img src='G_5.jpg' height='90'> <img src='G_1.jpg' height='90'> <img src='G_7.jpg' height='90'>","null","Animation1","",""
"","","","","","html-keyboard-response","79","162692","0.0-67.0","15","1","2025-02-02 03:07:46","bc01a2b6f61d06f6604adb8657495020","47.151.109.216","Mozilla/5.0 (Windows NT 10.0; Win64; x64) AppleWebKit/537.36 (KHTML, like Gecko) Chrome/130.0.0.0 Safari/537.36 OPR/115.0.0.0","WebKit","Opera","115.0.0.0","Windows","10.0","https://app.prolific.com/","en-US,en;q=0.9","5f4d3cb5fdda0b2c403fb801","679edb085803f58d6bbd31ca","679ee17da7ec9ae3889c8c20","","null","<img id='selected'   src='G_3.jpg' height='90'> <img   src='G_2.jpg' height='90'> <img    src='G_6.jpg' height='90'> <img    src='G_8.jpg' height='90'> <img src='G_4.jpg' height='90'> <img src='G_5.jpg' height='90'> <img src='G_1.jpg' height='90'> <img src='G_7.jpg' height='90'>","null","Animation1","",""
"","","","","","html-keyboard-response","80","163202","0.0-68.0","15","1","2025-02-02 03:07:46","bc01a2b6f61d06f6604adb8657495020","47.151.109.216","Mozilla/5.0 (Windows NT 10.0; Win64; x64) AppleWebKit/537.36 (KHTML, like Gecko) Chrome/130.0.0.0 Safari/537.36 OPR/115.0.0.0","WebKit","Opera","115.0.0.0","Windows","10.0","https://app.prolific.com/","en-US,en;q=0.9","5f4d3cb5fdda0b2c403fb801","679edb085803f58d6bbd31ca","679ee17da7ec9ae3889c8c20","","null","<img id='selected'   src='G_3.jpg' height='90'> <img id='selected'   src='G_2.jpg' height='90'> <img    src='G_6.jpg' height='90'> <img    src='G_8.jpg' height='90'> <img src='G_4.jpg' height='90'> <img src='G_5.jpg' height='90'> <img src='G_1.jpg' height='90'> <img src='G_7.jpg' height='90'>","null","Animation1","",""
"","","","","","html-keyboard-response","81","163724","0.0-69.0","15","1","2025-02-02 03:07:46","bc01a2b6f61d06f6604adb8657495020","47.151.109.216","Mozilla/5.0 (Windows NT 10.0; Win64; x64) AppleWebKit/537.36 (KHTML, like Gecko) Chrome/130.0.0.0 Safari/537.36 OPR/115.0.0.0","WebKit","Opera","115.0.0.0","Windows","10.0","https://app.prolific.com/","en-US,en;q=0.9","5f4d3cb5fdda0b2c403fb801","679edb085803f58d6bbd31ca","679ee17da7ec9ae3889c8c20","","null","<img id='swapped'   src='G_2.jpg' height='90'> <img id='swapped'   src='G_3.jpg' height='90'> <img    src='G_6.jpg' height='90'> <img    src='G_8.jpg' height='90'> <img src='G_4.jpg' height='90'> <img src='G_5.jpg' height='90'> <img src='G_1.jpg' height='90'> <img src='G_7.jpg' height='90'>","null","Animation1","",""
"","","","","","html-keyboard-response","82","164035","0.0-70.0","15","1","2025-02-02 03:07:46","bc01a2b6f61d06f6604adb8657495020","47.151.109.216","Mozilla/5.0 (Windows NT 10.0; Win64; x64) AppleWebKit/537.36 (KHTML, like Gecko) Chrome/130.0.0.0 Safari/537.36 OPR/115.0.0.0","WebKit","Opera","115.0.0.0","Windows","10.0","https://app.prolific.com/","en-US,en;q=0.9","5f4d3cb5fdda0b2c403fb801","679edb085803f58d6bbd31ca","679ee17da7ec9ae3889c8c20","","null","<img    src='G_2.jpg' height='90'> <img    src='G_3.jpg' height='90'> <img    src='G_6.jpg' height='90'> <img    src='G_8.jpg' height='90'> <img src='G_4.jpg' height='90'> <img src='G_5.jpg' height='90'> <img src='G_1.jpg' height='90'> <img src='G_7.jpg' height='90'>","null","Animation1","",""
"","","","","","html-keyboard-response","83","164547","0.0-71.0","15","1","2025-02-02 03:07:46","bc01a2b6f61d06f6604adb8657495020","47.151.109.216","Mozilla/5.0 (Windows NT 10.0; Win64; x64) AppleWebKit/537.36 (KHTML, like Gecko) Chrome/130.0.0.0 Safari/537.36 OPR/115.0.0.0","WebKit","Opera","115.0.0.0","Windows","10.0","https://app.prolific.com/","en-US,en;q=0.9","5f4d3cb5fdda0b2c403fb801","679edb085803f58d6bbd31ca","679ee17da7ec9ae3889c8c20","","null","<img    src='G_2.jpg' height='90'> <img    src='G_3.jpg' height='90'> <img    src='G_6.jpg' height='90'> <img id='selected'    src='G_8.jpg' height='90'> <img src='G_4.jpg' height='90'> <img src='G_5.jpg' height='90'> <img src='G_1.jpg' height='90'> <img src='G_7.jpg' height='90'>","null","Animation1","",""
"","","","","","html-keyboard-response","84","165058","0.0-72.0","15","1","2025-02-02 03:07:46","bc01a2b6f61d06f6604adb8657495020","47.151.109.216","Mozilla/5.0 (Windows NT 10.0; Win64; x64) AppleWebKit/537.36 (KHTML, like Gecko) Chrome/130.0.0.0 Safari/537.36 OPR/115.0.0.0","WebKit","Opera","115.0.0.0","Windows","10.0","https://app.prolific.com/","en-US,en;q=0.9","5f4d3cb5fdda0b2c403fb801","679edb085803f58d6bbd31ca","679ee17da7ec9ae3889c8c20","","null","<img    src='G_2.jpg' height='90'> <img    src='G_3.jpg' height='90'> <img    src='G_6.jpg' height='90'> <img id='selected'    src='G_8.jpg' height='90'> <img id='selected' src='G_4.jpg' height='90'> <img src='G_5.jpg' height='90'> <img src='G_1.jpg' height='90'> <img src='G_7.jpg' height='90'>","null","Animation1","",""
"","","","","","html-keyboard-response","85","165569","0.0-73.0","15","1","2025-02-02 03:07:46","bc01a2b6f61d06f6604adb8657495020","47.151.109.216","Mozilla/5.0 (Windows NT 10.0; Win64; x64) AppleWebKit/537.36 (KHTML, like Gecko) Chrome/130.0.0.0 Safari/537.36 OPR/115.0.0.0","WebKit","Opera","115.0.0.0","Windows","10.0","https://app.prolific.com/","en-US,en;q=0.9","5f4d3cb5fdda0b2c403fb801","679edb085803f58d6bbd31ca","679ee17da7ec9ae3889c8c20","","null","<img    src='G_2.jpg' height='90'> <img    src='G_3.jpg' height='90'> <img    src='G_6.jpg' height='90'> <img id='swapped' src='G_4.jpg' height='90'> <img id='swapped'    src='G_8.jpg' height='90'> <img src='G_5.jpg' height='90'> <img src='G_1.jpg' height='90'> <img src='G_7.jpg' height='90'>","null","Animation1","",""
"","","","","","html-keyboard-response","86","165876","0.0-74.0","15","1","2025-02-02 03:07:46","bc01a2b6f61d06f6604adb8657495020","47.151.109.216","Mozilla/5.0 (Windows NT 10.0; Win64; x64) AppleWebKit/537.36 (KHTML, like Gecko) Chrome/130.0.0.0 Safari/537.36 OPR/115.0.0.0","WebKit","Opera","115.0.0.0","Windows","10.0","https://app.prolific.com/","en-US,en;q=0.9","5f4d3cb5fdda0b2c403fb801","679edb085803f58d6bbd31ca","679ee17da7ec9ae3889c8c20","","null","<img    src='G_2.jpg' height='90'> <img    src='G_3.jpg' height='90'> <img    src='G_6.jpg' height='90'> <img  src='G_4.jpg' height='90'> <img     src='G_8.jpg' height='90'> <img src='G_5.jpg' height='90'> <img src='G_1.jpg' height='90'> <img src='G_7.jpg' height='90'>","null","Animation1","",""
"","","","","","html-keyboard-response","87","166384","0.0-75.0","15","1","2025-02-02 03:07:46","bc01a2b6f61d06f6604adb8657495020","47.151.109.216","Mozilla/5.0 (Windows NT 10.0; Win64; x64) AppleWebKit/537.36 (KHTML, like Gecko) Chrome/130.0.0.0 Safari/537.36 OPR/115.0.0.0","WebKit","Opera","115.0.0.0","Windows","10.0","https://app.prolific.com/","en-US,en;q=0.9","5f4d3cb5fdda0b2c403fb801","679edb085803f58d6bbd31ca","679ee17da7ec9ae3889c8c20","","null","<img    src='G_2.jpg' height='90'> <img    src='G_3.jpg' height='90'> <img id='selected'    src='G_6.jpg' height='90'> <img  src='G_4.jpg' height='90'> <img     src='G_8.jpg' height='90'> <img src='G_5.jpg' height='90'> <img src='G_1.jpg' height='90'> <img src='G_7.jpg' height='90'>","null","Animation1","",""
"","","","","","html-keyboard-response","88","166891","0.0-76.0","15","1","2025-02-02 03:07:46","bc01a2b6f61d06f6604adb8657495020","47.151.109.216","Mozilla/5.0 (Windows NT 10.0; Win64; x64) AppleWebKit/537.36 (KHTML, like Gecko) Chrome/130.0.0.0 Safari/537.36 OPR/115.0.0.0","WebKit","Opera","115.0.0.0","Windows","10.0","https://app.prolific.com/","en-US,en;q=0.9","5f4d3cb5fdda0b2c403fb801","679edb085803f58d6bbd31ca","679ee17da7ec9ae3889c8c20","","null","<img    src='G_2.jpg' height='90'> <img    src='G_3.jpg' height='90'> <img id='selected'    src='G_6.jpg' height='90'> <img id='selected'  src='G_4.jpg' height='90'> <img     src='G_8.jpg' height='90'> <img src='G_5.jpg' height='90'> <img src='G_1.jpg' height='90'> <img src='G_7.jpg' height='90'>","null","Animation1","",""
"","","","","","html-keyboard-response","89","167403","0.0-77.0","15","1","2025-02-02 03:07:46","bc01a2b6f61d06f6604adb8657495020","47.151.109.216","Mozilla/5.0 (Windows NT 10.0; Win64; x64) AppleWebKit/537.36 (KHTML, like Gecko) Chrome/130.0.0.0 Safari/537.36 OPR/115.0.0.0","WebKit","Opera","115.0.0.0","Windows","10.0","https://app.prolific.com/","en-US,en;q=0.9","5f4d3cb5fdda0b2c403fb801","679edb085803f58d6bbd31ca","679ee17da7ec9ae3889c8c20","","null","<img    src='G_2.jpg' height='90'> <img    src='G_3.jpg' height='90'> <img id='swapped'  src='G_4.jpg' height='90'> <img id='swapped'    src='G_6.jpg' height='90'> <img     src='G_8.jpg' height='90'> <img src='G_5.jpg' height='90'> <img src='G_1.jpg' height='90'> <img src='G_7.jpg' height='90'>","null","Animation1","",""
"","","","","","html-keyboard-response","90","167712","0.0-78.0","15","1","2025-02-02 03:07:46","bc01a2b6f61d06f6604adb8657495020","47.151.109.216","Mozilla/5.0 (Windows NT 10.0; Win64; x64) AppleWebKit/537.36 (KHTML, like Gecko) Chrome/130.0.0.0 Safari/537.36 OPR/115.0.0.0","WebKit","Opera","115.0.0.0","Windows","10.0","https://app.prolific.com/","en-US,en;q=0.9","5f4d3cb5fdda0b2c403fb801","679edb085803f58d6bbd31ca","679ee17da7ec9ae3889c8c20","","null","<img    src='G_2.jpg' height='90'> <img    src='G_3.jpg' height='90'> <img   src='G_4.jpg' height='90'> <img     src='G_6.jpg' height='90'> <img     src='G_8.jpg' height='90'> <img src='G_5.jpg' height='90'> <img src='G_1.jpg' height='90'> <img src='G_7.jpg' height='90'>","null","Animation1","",""
"","","","","","html-keyboard-response","91","168222","0.0-79.0","15","1","2025-02-02 03:07:46","bc01a2b6f61d06f6604adb8657495020","47.151.109.216","Mozilla/5.0 (Windows NT 10.0; Win64; x64) AppleWebKit/537.36 (KHTML, like Gecko) Chrome/130.0.0.0 Safari/537.36 OPR/115.0.0.0","WebKit","Opera","115.0.0.0","Windows","10.0","https://app.prolific.com/","en-US,en;q=0.9","5f4d3cb5fdda0b2c403fb801","679edb085803f58d6bbd31ca","679ee17da7ec9ae3889c8c20","","null","<img    src='G_2.jpg' height='90'> <img id='selected'    src='G_3.jpg' height='90'> <img   src='G_4.jpg' height='90'> <img     src='G_6.jpg' height='90'> <img     src='G_8.jpg' height='90'> <img src='G_5.jpg' height='90'> <img src='G_1.jpg' height='90'> <img src='G_7.jpg' height='90'>","null","Animation1","",""
"","","","","","html-keyboard-response","92","168735","0.0-80.0","15","1","2025-02-02 03:07:46","bc01a2b6f61d06f6604adb8657495020","47.151.109.216","Mozilla/5.0 (Windows NT 10.0; Win64; x64) AppleWebKit/537.36 (KHTML, like Gecko) Chrome/130.0.0.0 Safari/537.36 OPR/115.0.0.0","WebKit","Opera","115.0.0.0","Windows","10.0","https://app.prolific.com/","en-US,en;q=0.9","5f4d3cb5fdda0b2c403fb801","679edb085803f58d6bbd31ca","679ee17da7ec9ae3889c8c20","","null","<img    src='G_2.jpg' height='90'> <img id='selected'    src='G_3.jpg' height='90'> <img id='selected'   src='G_4.jpg' height='90'> <img     src='G_6.jpg' height='90'> <img     src='G_8.jpg' height='90'> <img src='G_5.jpg' height='90'> <img src='G_1.jpg' height='90'> <img src='G_7.jpg' height='90'>","null","Animation1","",""
"","","","","","html-keyboard-response","93","169246","0.0-81.0","15","1","2025-02-02 03:07:46","bc01a2b6f61d06f6604adb8657495020","47.151.109.216","Mozilla/5.0 (Windows NT 10.0; Win64; x64) AppleWebKit/537.36 (KHTML, like Gecko) Chrome/130.0.0.0 Safari/537.36 OPR/115.0.0.0","WebKit","Opera","115.0.0.0","Windows","10.0","https://app.prolific.com/","en-US,en;q=0.9","5f4d3cb5fdda0b2c403fb801","679edb085803f58d6bbd31ca","679ee17da7ec9ae3889c8c20","","null","<img    src='G_2.jpg' height='90'> <img id='swapped'   src='G_4.jpg' height='90'> <img id='swapped'    src='G_3.jpg' height='90'> <img     src='G_6.jpg' height='90'> <img     src='G_8.jpg' height='90'> <img src='G_5.jpg' height='90'> <img src='G_1.jpg' height='90'> <img src='G_7.jpg' height='90'>","null","Animation1","",""
"","","","","","html-keyboard-response","94","169559","0.0-82.0","15","1","2025-02-02 03:07:46","bc01a2b6f61d06f6604adb8657495020","47.151.109.216","Mozilla/5.0 (Windows NT 10.0; Win64; x64) AppleWebKit/537.36 (KHTML, like Gecko) Chrome/130.0.0.0 Safari/537.36 OPR/115.0.0.0","WebKit","Opera","115.0.0.0","Windows","10.0","https://app.prolific.com/","en-US,en;q=0.9","5f4d3cb5fdda0b2c403fb801","679edb085803f58d6bbd31ca","679ee17da7ec9ae3889c8c20","","null","<img    src='G_2.jpg' height='90'> <img    src='G_4.jpg' height='90'> <img     src='G_3.jpg' height='90'> <img     src='G_6.jpg' height='90'> <img     src='G_8.jpg' height='90'> <img src='G_5.jpg' height='90'> <img src='G_1.jpg' height='90'> <img src='G_7.jpg' height='90'>","null","Animation1","",""
"","","","","","html-keyboard-response","95","170071","0.0-83.0","15","1","2025-02-02 03:07:46","bc01a2b6f61d06f6604adb8657495020","47.151.109.216","Mozilla/5.0 (Windows NT 10.0; Win64; x64) AppleWebKit/537.36 (KHTML, like Gecko) Chrome/130.0.0.0 Safari/537.36 OPR/115.0.0.0","WebKit","Opera","115.0.0.0","Windows","10.0","https://app.prolific.com/","en-US,en;q=0.9","5f4d3cb5fdda0b2c403fb801","679edb085803f58d6bbd31ca","679ee17da7ec9ae3889c8c20","","null","<img id='selected'    src='G_2.jpg' height='90'> <img    src='G_4.jpg' height='90'> <img     src='G_3.jpg' height='90'> <img     src='G_6.jpg' height='90'> <img     src='G_8.jpg' height='90'> <img src='G_5.jpg' height='90'> <img src='G_1.jpg' height='90'> <img src='G_7.jpg' height='90'>","null","Animation1","",""
"","","","","","html-keyboard-response","96","170582","0.0-84.0","15","1","2025-02-02 03:07:46","bc01a2b6f61d06f6604adb8657495020","47.151.109.216","Mozilla/5.0 (Windows NT 10.0; Win64; x64) AppleWebKit/537.36 (KHTML, like Gecko) Chrome/130.0.0.0 Safari/537.36 OPR/115.0.0.0","WebKit","Opera","115.0.0.0","Windows","10.0","https://app.prolific.com/","en-US,en;q=0.9","5f4d3cb5fdda0b2c403fb801","679edb085803f58d6bbd31ca","679ee17da7ec9ae3889c8c20","","null","<img id='selected'    src='G_2.jpg' height='90'> <img id='selected'    src='G_4.jpg' height='90'> <img     src='G_3.jpg' height='90'> <img     src='G_6.jpg' height='90'> <img     src='G_8.jpg' height='90'> <img src='G_5.jpg' height='90'> <img src='G_1.jpg' height='90'> <img src='G_7.jpg' height='90'>","null","Animation1","",""
"","","","","","html-keyboard-response","97","171096","0.0-85.0","15","1","2025-02-02 03:07:46","bc01a2b6f61d06f6604adb8657495020","47.151.109.216","Mozilla/5.0 (Windows NT 10.0; Win64; x64) AppleWebKit/537.36 (KHTML, like Gecko) Chrome/130.0.0.0 Safari/537.36 OPR/115.0.0.0","WebKit","Opera","115.0.0.0","Windows","10.0","https://app.prolific.com/","en-US,en;q=0.9","5f4d3cb5fdda0b2c403fb801","679edb085803f58d6bbd31ca","679ee17da7ec9ae3889c8c20","","null","<img id='selected'    src='G_2.jpg' height='90'> <img id='selected'    src='G_4.jpg' height='90'> <img     src='G_3.jpg' height='90'> <img     src='G_6.jpg' height='90'> <img     src='G_8.jpg' height='90'> <img src='G_5.jpg' height='90'> <img src='G_1.jpg' height='90'> <img src='G_7.jpg' height='90'>","null","Animation1","",""
"","","","","","html-keyboard-response","98","171405","0.0-86.0","15","1","2025-02-02 03:07:46","bc01a2b6f61d06f6604adb8657495020","47.151.109.216","Mozilla/5.0 (Windows NT 10.0; Win64; x64) AppleWebKit/537.36 (KHTML, like Gecko) Chrome/130.0.0.0 Safari/537.36 OPR/115.0.0.0","WebKit","Opera","115.0.0.0","Windows","10.0","https://app.prolific.com/","en-US,en;q=0.9","5f4d3cb5fdda0b2c403fb801","679edb085803f58d6bbd31ca","679ee17da7ec9ae3889c8c20","","null","<img     src='G_2.jpg' height='90'> <img     src='G_4.jpg' height='90'> <img     src='G_3.jpg' height='90'> <img     src='G_6.jpg' height='90'> <img     src='G_8.jpg' height='90'> <img src='G_5.jpg' height='90'> <img src='G_1.jpg' height='90'> <img src='G_7.jpg' height='90'>","null","Animation1","",""
"","","","","","html-keyboard-response","99","171914","0.0-87.0","15","1","2025-02-02 03:07:46","bc01a2b6f61d06f6604adb8657495020","47.151.109.216","Mozilla/5.0 (Windows NT 10.0; Win64; x64) AppleWebKit/537.36 (KHTML, like Gecko) Chrome/130.0.0.0 Safari/537.36 OPR/115.0.0.0","WebKit","Opera","115.0.0.0","Windows","10.0","https://app.prolific.com/","en-US,en;q=0.9","5f4d3cb5fdda0b2c403fb801","679edb085803f58d6bbd31ca","679ee17da7ec9ae3889c8c20","","null","<img     src='G_2.jpg' height='90'> <img     src='G_4.jpg' height='90'> <img     src='G_3.jpg' height='90'> <img     src='G_6.jpg' height='90'> <img id='selected'     src='G_8.jpg' height='90'> <img src='G_5.jpg' height='90'> <img src='G_1.jpg' height='90'> <img src='G_7.jpg' height='90'>","null","Animation1","",""
"","","","","","html-keyboard-response","100","172428","0.0-88.0","15","1","2025-02-02 03:07:46","bc01a2b6f61d06f6604adb8657495020","47.151.109.216","Mozilla/5.0 (Windows NT 10.0; Win64; x64) AppleWebKit/537.36 (KHTML, like Gecko) Chrome/130.0.0.0 Safari/537.36 OPR/115.0.0.0","WebKit","Opera","115.0.0.0","Windows","10.0","https://app.prolific.com/","en-US,en;q=0.9","5f4d3cb5fdda0b2c403fb801","679edb085803f58d6bbd31ca","679ee17da7ec9ae3889c8c20","","null","<img     src='G_2.jpg' height='90'> <img     src='G_4.jpg' height='90'> <img     src='G_3.jpg' height='90'> <img     src='G_6.jpg' height='90'> <img id='selected'     src='G_8.jpg' height='90'> <img id='selected' src='G_5.jpg' height='90'> <img src='G_1.jpg' height='90'> <img src='G_7.jpg' height='90'>","null","Animation1","",""
"","","","","","html-keyboard-response","101","172938","0.0-89.0","15","1","2025-02-02 03:07:46","bc01a2b6f61d06f6604adb8657495020","47.151.109.216","Mozilla/5.0 (Windows NT 10.0; Win64; x64) AppleWebKit/537.36 (KHTML, like Gecko) Chrome/130.0.0.0 Safari/537.36 OPR/115.0.0.0","WebKit","Opera","115.0.0.0","Windows","10.0","https://app.prolific.com/","en-US,en;q=0.9","5f4d3cb5fdda0b2c403fb801","679edb085803f58d6bbd31ca","679ee17da7ec9ae3889c8c20","","null","<img     src='G_2.jpg' height='90'> <img     src='G_4.jpg' height='90'> <img     src='G_3.jpg' height='90'> <img     src='G_6.jpg' height='90'> <img id='swapped' src='G_5.jpg' height='90'> <img id='swapped'     src='G_8.jpg' height='90'> <img src='G_1.jpg' height='90'> <img src='G_7.jpg' height='90'>","null","Animation1","",""
"","","","","","html-keyboard-response","102","173249","0.0-90.0","15","1","2025-02-02 03:07:46","bc01a2b6f61d06f6604adb8657495020","47.151.109.216","Mozilla/5.0 (Windows NT 10.0; Win64; x64) AppleWebKit/537.36 (KHTML, like Gecko) Chrome/130.0.0.0 Safari/537.36 OPR/115.0.0.0","WebKit","Opera","115.0.0.0","Windows","10.0","https://app.prolific.com/","en-US,en;q=0.9","5f4d3cb5fdda0b2c403fb801","679edb085803f58d6bbd31ca","679ee17da7ec9ae3889c8c20","","null","<img     src='G_2.jpg' height='90'> <img     src='G_4.jpg' height='90'> <img     src='G_3.jpg' height='90'> <img     src='G_6.jpg' height='90'> <img  src='G_5.jpg' height='90'> <img      src='G_8.jpg' height='90'> <img src='G_1.jpg' height='90'> <img src='G_7.jpg' height='90'>","null","Animation1","",""
"","","","","","html-keyboard-response","103","173761","0.0-91.0","15","1","2025-02-02 03:07:46","bc01a2b6f61d06f6604adb8657495020","47.151.109.216","Mozilla/5.0 (Windows NT 10.0; Win64; x64) AppleWebKit/537.36 (KHTML, like Gecko) Chrome/130.0.0.0 Safari/537.36 OPR/115.0.0.0","WebKit","Opera","115.0.0.0","Windows","10.0","https://app.prolific.com/","en-US,en;q=0.9","5f4d3cb5fdda0b2c403fb801","679edb085803f58d6bbd31ca","679ee17da7ec9ae3889c8c20","","null","<img     src='G_2.jpg' height='90'> <img     src='G_4.jpg' height='90'> <img     src='G_3.jpg' height='90'> <img id='selected'     src='G_6.jpg' height='90'> <img  src='G_5.jpg' height='90'> <img      src='G_8.jpg' height='90'> <img src='G_1.jpg' height='90'> <img src='G_7.jpg' height='90'>","null","Animation1","",""
"","","","","","html-keyboard-response","104","174273","0.0-92.0","15","1","2025-02-02 03:07:46","bc01a2b6f61d06f6604adb8657495020","47.151.109.216","Mozilla/5.0 (Windows NT 10.0; Win64; x64) AppleWebKit/537.36 (KHTML, like Gecko) Chrome/130.0.0.0 Safari/537.36 OPR/115.0.0.0","WebKit","Opera","115.0.0.0","Windows","10.0","https://app.prolific.com/","en-US,en;q=0.9","5f4d3cb5fdda0b2c403fb801","679edb085803f58d6bbd31ca","679ee17da7ec9ae3889c8c20","","null","<img     src='G_2.jpg' height='90'> <img     src='G_4.jpg' height='90'> <img     src='G_3.jpg' height='90'> <img id='selected'     src='G_6.jpg' height='90'> <img id='selected'  src='G_5.jpg' height='90'> <img      src='G_8.jpg' height='90'> <img src='G_1.jpg' height='90'> <img src='G_7.jpg' height='90'>","null","Animation1","",""
"","","","","","html-keyboard-response","105","174786","0.0-93.0","15","1","2025-02-02 03:07:46","bc01a2b6f61d06f6604adb8657495020","47.151.109.216","Mozilla/5.0 (Windows NT 10.0; Win64; x64) AppleWebKit/537.36 (KHTML, like Gecko) Chrome/130.0.0.0 Safari/537.36 OPR/115.0.0.0","WebKit","Opera","115.0.0.0","Windows","10.0","https://app.prolific.com/","en-US,en;q=0.9","5f4d3cb5fdda0b2c403fb801","679edb085803f58d6bbd31ca","679ee17da7ec9ae3889c8c20","","null","<img     src='G_2.jpg' height='90'> <img     src='G_4.jpg' height='90'> <img     src='G_3.jpg' height='90'> <img id='selected'     src='G_6.jpg' height='90'> <img id='selected'  src='G_5.jpg' height='90'> <img      src='G_8.jpg' height='90'> <img src='G_1.jpg' height='90'> <img src='G_7.jpg' height='90'>","null","Animation1","",""
"","","","","","html-keyboard-response","106","175095","0.0-94.0","15","1","2025-02-02 03:07:46","bc01a2b6f61d06f6604adb8657495020","47.151.109.216","Mozilla/5.0 (Windows NT 10.0; Win64; x64) AppleWebKit/537.36 (KHTML, like Gecko) Chrome/130.0.0.0 Safari/537.36 OPR/115.0.0.0","WebKit","Opera","115.0.0.0","Windows","10.0","https://app.prolific.com/","en-US,en;q=0.9","5f4d3cb5fdda0b2c403fb801","679edb085803f58d6bbd31ca","679ee17da7ec9ae3889c8c20","","null","<img     src='G_2.jpg' height='90'> <img     src='G_4.jpg' height='90'> <img     src='G_3.jpg' height='90'> <img      src='G_6.jpg' height='90'> <img   src='G_5.jpg' height='90'> <img      src='G_8.jpg' height='90'> <img src='G_1.jpg' height='90'> <img src='G_7.jpg' height='90'>","null","Animation1","",""
"","","","","","html-keyboard-response","107","175610","0.0-95.0","15","1","2025-02-02 03:07:46","bc01a2b6f61d06f6604adb8657495020","47.151.109.216","Mozilla/5.0 (Windows NT 10.0; Win64; x64) AppleWebKit/537.36 (KHTML, like Gecko) Chrome/130.0.0.0 Safari/537.36 OPR/115.0.0.0","WebKit","Opera","115.0.0.0","Windows","10.0","https://app.prolific.com/","en-US,en;q=0.9","5f4d3cb5fdda0b2c403fb801","679edb085803f58d6bbd31ca","679ee17da7ec9ae3889c8c20","","null","<img     src='G_2.jpg' height='90'> <img     src='G_4.jpg' height='90'> <img     src='G_3.jpg' height='90'> <img      src='G_6.jpg' height='90'> <img   src='G_5.jpg' height='90'> <img id='selected'      src='G_8.jpg' height='90'> <img src='G_1.jpg' height='90'> <img src='G_7.jpg' height='90'>","null","Animation1","",""
"","","","","","html-keyboard-response","108","176120","0.0-96.0","15","1","2025-02-02 03:07:46","bc01a2b6f61d06f6604adb8657495020","47.151.109.216","Mozilla/5.0 (Windows NT 10.0; Win64; x64) AppleWebKit/537.36 (KHTML, like Gecko) Chrome/130.0.0.0 Safari/537.36 OPR/115.0.0.0","WebKit","Opera","115.0.0.0","Windows","10.0","https://app.prolific.com/","en-US,en;q=0.9","5f4d3cb5fdda0b2c403fb801","679edb085803f58d6bbd31ca","679ee17da7ec9ae3889c8c20","","null","<img     src='G_2.jpg' height='90'> <img     src='G_4.jpg' height='90'> <img     src='G_3.jpg' height='90'> <img      src='G_6.jpg' height='90'> <img   src='G_5.jpg' height='90'> <img id='selected'      src='G_8.jpg' height='90'> <img id='selected' src='G_1.jpg' height='90'> <img src='G_7.jpg' height='90'>","null","Animation1","",""
"","","","","","html-keyboard-response","109","176630","0.0-97.0","15","1","2025-02-02 03:07:46","bc01a2b6f61d06f6604adb8657495020","47.151.109.216","Mozilla/5.0 (Windows NT 10.0; Win64; x64) AppleWebKit/537.36 (KHTML, like Gecko) Chrome/130.0.0.0 Safari/537.36 OPR/115.0.0.0","WebKit","Opera","115.0.0.0","Windows","10.0","https://app.prolific.com/","en-US,en;q=0.9","5f4d3cb5fdda0b2c403fb801","679edb085803f58d6bbd31ca","679ee17da7ec9ae3889c8c20","","null","<img     src='G_2.jpg' height='90'> <img     src='G_4.jpg' height='90'> <img     src='G_3.jpg' height='90'> <img      src='G_6.jpg' height='90'> <img   src='G_5.jpg' height='90'> <img id='selected'      src='G_8.jpg' height='90'> <img id='selected' src='G_1.jpg' height='90'> <img src='G_7.jpg' height='90'>","null","Animation1","",""
"","","","","","html-keyboard-response","110","176941","0.0-98.0","15","1","2025-02-02 03:07:46","bc01a2b6f61d06f6604adb8657495020","47.151.109.216","Mozilla/5.0 (Windows NT 10.0; Win64; x64) AppleWebKit/537.36 (KHTML, like Gecko) Chrome/130.0.0.0 Safari/537.36 OPR/115.0.0.0","WebKit","Opera","115.0.0.0","Windows","10.0","https://app.prolific.com/","en-US,en;q=0.9","5f4d3cb5fdda0b2c403fb801","679edb085803f58d6bbd31ca","679ee17da7ec9ae3889c8c20","","null","<img     src='G_2.jpg' height='90'> <img     src='G_4.jpg' height='90'> <img     src='G_3.jpg' height='90'> <img      src='G_6.jpg' height='90'> <img   src='G_5.jpg' height='90'> <img       src='G_8.jpg' height='90'> <img  src='G_1.jpg' height='90'> <img src='G_7.jpg' height='90'>","null","Animation1","",""
"","","","","","html-keyboard-response","111","177456","0.0-99.0","15","1","2025-02-02 03:07:46","bc01a2b6f61d06f6604adb8657495020","47.151.109.216","Mozilla/5.0 (Windows NT 10.0; Win64; x64) AppleWebKit/537.36 (KHTML, like Gecko) Chrome/130.0.0.0 Safari/537.36 OPR/115.0.0.0","WebKit","Opera","115.0.0.0","Windows","10.0","https://app.prolific.com/","en-US,en;q=0.9","5f4d3cb5fdda0b2c403fb801","679edb085803f58d6bbd31ca","679ee17da7ec9ae3889c8c20","","null","<img     src='G_2.jpg' height='90'> <img     src='G_4.jpg' height='90'> <img     src='G_3.jpg' height='90'> <img      src='G_6.jpg' height='90'> <img   src='G_5.jpg' height='90'> <img       src='G_8.jpg' height='90'> <img id='selected'  src='G_1.jpg' height='90'> <img src='G_7.jpg' height='90'>","null","Animation1","",""
"","","","","","html-keyboard-response","112","177978","0.0-100.0","15","1","2025-02-02 03:07:46","bc01a2b6f61d06f6604adb8657495020","47.151.109.216","Mozilla/5.0 (Windows NT 10.0; Win64; x64) AppleWebKit/537.36 (KHTML, like Gecko) Chrome/130.0.0.0 Safari/537.36 OPR/115.0.0.0","WebKit","Opera","115.0.0.0","Windows","10.0","https://app.prolific.com/","en-US,en;q=0.9","5f4d3cb5fdda0b2c403fb801","679edb085803f58d6bbd31ca","679ee17da7ec9ae3889c8c20","","null","<img     src='G_2.jpg' height='90'> <img     src='G_4.jpg' height='90'> <img     src='G_3.jpg' height='90'> <img      src='G_6.jpg' height='90'> <img   src='G_5.jpg' height='90'> <img       src='G_8.jpg' height='90'> <img id='selected'  src='G_1.jpg' height='90'> <img id='selected' src='G_7.jpg' height='90'>","null","Animation1","",""
"","","","","","html-keyboard-response","113","178487","0.0-101.0","15","1","2025-02-02 03:07:46","bc01a2b6f61d06f6604adb8657495020","47.151.109.216","Mozilla/5.0 (Windows NT 10.0; Win64; x64) AppleWebKit/537.36 (KHTML, like Gecko) Chrome/130.0.0.0 Safari/537.36 OPR/115.0.0.0","WebKit","Opera","115.0.0.0","Windows","10.0","https://app.prolific.com/","en-US,en;q=0.9","5f4d3cb5fdda0b2c403fb801","679edb085803f58d6bbd31ca","679ee17da7ec9ae3889c8c20","","null","<img     src='G_2.jpg' height='90'> <img     src='G_4.jpg' height='90'> <img     src='G_3.jpg' height='90'> <img      src='G_6.jpg' height='90'> <img   src='G_5.jpg' height='90'> <img       src='G_8.jpg' height='90'> <img id='swapped' src='G_7.jpg' height='90'> <img id='swapped'  src='G_1.jpg' height='90'>","null","Animation1","",""
"","","","","","html-keyboard-response","114","178798","0.0-102.0","15","1","2025-02-02 03:07:46","bc01a2b6f61d06f6604adb8657495020","47.151.109.216","Mozilla/5.0 (Windows NT 10.0; Win64; x64) AppleWebKit/537.36 (KHTML, like Gecko) Chrome/130.0.0.0 Safari/537.36 OPR/115.0.0.0","WebKit","Opera","115.0.0.0","Windows","10.0","https://app.prolific.com/","en-US,en;q=0.9","5f4d3cb5fdda0b2c403fb801","679edb085803f58d6bbd31ca","679ee17da7ec9ae3889c8c20","","null","<img     src='G_2.jpg' height='90'> <img     src='G_4.jpg' height='90'> <img     src='G_3.jpg' height='90'> <img      src='G_6.jpg' height='90'> <img   src='G_5.jpg' height='90'> <img       src='G_8.jpg' height='90'> <img  src='G_7.jpg' height='90'> <img   src='G_1.jpg' height='90'>","null","Animation1","",""
"","","","","","html-keyboard-response","115","179310","0.0-103.0","15","1","2025-02-02 03:07:46","bc01a2b6f61d06f6604adb8657495020","47.151.109.216","Mozilla/5.0 (Windows NT 10.0; Win64; x64) AppleWebKit/537.36 (KHTML, like Gecko) Chrome/130.0.0.0 Safari/537.36 OPR/115.0.0.0","WebKit","Opera","115.0.0.0","Windows","10.0","https://app.prolific.com/","en-US,en;q=0.9","5f4d3cb5fdda0b2c403fb801","679edb085803f58d6bbd31ca","679ee17da7ec9ae3889c8c20","","null","<img     src='G_2.jpg' height='90'> <img     src='G_4.jpg' height='90'> <img     src='G_3.jpg' height='90'> <img      src='G_6.jpg' height='90'> <img   src='G_5.jpg' height='90'> <img id='selected'       src='G_8.jpg' height='90'> <img  src='G_7.jpg' height='90'> <img   src='G_1.jpg' height='90'>","null","Animation1","",""
"","","","","","html-keyboard-response","116","179823","0.0-104.0","15","1","2025-02-02 03:07:46","bc01a2b6f61d06f6604adb8657495020","47.151.109.216","Mozilla/5.0 (Windows NT 10.0; Win64; x64) AppleWebKit/537.36 (KHTML, like Gecko) Chrome/130.0.0.0 Safari/537.36 OPR/115.0.0.0","WebKit","Opera","115.0.0.0","Windows","10.0","https://app.prolific.com/","en-US,en;q=0.9","5f4d3cb5fdda0b2c403fb801","679edb085803f58d6bbd31ca","679ee17da7ec9ae3889c8c20","","null","<img     src='G_2.jpg' height='90'> <img     src='G_4.jpg' height='90'> <img     src='G_3.jpg' height='90'> <img      src='G_6.jpg' height='90'> <img   src='G_5.jpg' height='90'> <img id='selected'       src='G_8.jpg' height='90'> <img id='selected'  src='G_7.jpg' height='90'> <img   src='G_1.jpg' height='90'>","null","Animation1","",""
"","","","","","html-keyboard-response","117","180332","0.0-105.0","15","1","2025-02-02 03:07:46","bc01a2b6f61d06f6604adb8657495020","47.151.109.216","Mozilla/5.0 (Windows NT 10.0; Win64; x64) AppleWebKit/537.36 (KHTML, like Gecko) Chrome/130.0.0.0 Safari/537.36 OPR/115.0.0.0","WebKit","Opera","115.0.0.0","Windows","10.0","https://app.prolific.com/","en-US,en;q=0.9","5f4d3cb5fdda0b2c403fb801","679edb085803f58d6bbd31ca","679ee17da7ec9ae3889c8c20","","null","<img     src='G_2.jpg' height='90'> <img     src='G_4.jpg' height='90'> <img     src='G_3.jpg' height='90'> <img      src='G_6.jpg' height='90'> <img   src='G_5.jpg' height='90'> <img id='selected'       src='G_8.jpg' height='90'> <img id='selected'  src='G_7.jpg' height='90'> <img   src='G_1.jpg' height='90'>","null","Animation1","",""
"","","","","","html-keyboard-response","118","180640","0.0-106.0","15","1","2025-02-02 03:07:46","bc01a2b6f61d06f6604adb8657495020","47.151.109.216","Mozilla/5.0 (Windows NT 10.0; Win64; x64) AppleWebKit/537.36 (KHTML, like Gecko) Chrome/130.0.0.0 Safari/537.36 OPR/115.0.0.0","WebKit","Opera","115.0.0.0","Windows","10.0","https://app.prolific.com/","en-US,en;q=0.9","5f4d3cb5fdda0b2c403fb801","679edb085803f58d6bbd31ca","679ee17da7ec9ae3889c8c20","","null","<img     src='G_2.jpg' height='90'> <img     src='G_4.jpg' height='90'> <img     src='G_3.jpg' height='90'> <img      src='G_6.jpg' height='90'> <img   src='G_5.jpg' height='90'> <img        src='G_8.jpg' height='90'> <img   src='G_7.jpg' height='90'> <img   src='G_1.jpg' height='90'>","null","Animation1","",""
"","","","","","html-keyboard-response","119","183187","0.0-107.0","15","1","2025-02-02 03:07:46","bc01a2b6f61d06f6604adb8657495020","47.151.109.216","Mozilla/5.0 (Windows NT 10.0; Win64; x64) AppleWebKit/537.36 (KHTML, like Gecko) Chrome/130.0.0.0 Safari/537.36 OPR/115.0.0.0","WebKit","Opera","115.0.0.0","Windows","10.0","https://app.prolific.com/","en-US,en;q=0.9","5f4d3cb5fdda0b2c403fb801","679edb085803f58d6bbd31ca","679ee17da7ec9ae3889c8c20","","2542","[""Did you notice any patterns? <br><br>Press Enter to watch that example again and follow the steps of Omgne Sort.""]","enter","","",""
"","","","","","html-button-response","120","183600","0.0-108.0","15","1","2025-02-02 03:07:46","bc01a2b6f61d06f6604adb8657495020","47.151.109.216","Mozilla/5.0 (Windows NT 10.0; Win64; x64) AppleWebKit/537.36 (KHTML, like Gecko) Chrome/130.0.0.0 Safari/537.36 OPR/115.0.0.0","WebKit","Opera","115.0.0.0","Windows","10.0","https://app.prolific.com/","en-US,en;q=0.9","5f4d3cb5fdda0b2c403fb801","679edb085803f58d6bbd31ca","679ee17da7ec9ae3889c8c20","","null","<img id='selected' src='G_6.jpg' height='90'> <img src='G_8.jpg' height='90'> <img src='G_3.jpg' height='90'> <img src='G_2.jpg' height='90'> <img src='G_4.jpg' height='90'> <img src='G_5.jpg' height='90'> <img src='G_1.jpg' height='90'> <img src='G_7.jpg' height='90'>","null","Learning example 1","",""
"","","","","","html-button-response","121","183908","0.0-109.0","15","1","2025-02-02 03:07:46","bc01a2b6f61d06f6604adb8657495020","47.151.109.216","Mozilla/5.0 (Windows NT 10.0; Win64; x64) AppleWebKit/537.36 (KHTML, like Gecko) Chrome/130.0.0.0 Safari/537.36 OPR/115.0.0.0","WebKit","Opera","115.0.0.0","Windows","10.0","https://app.prolific.com/","en-US,en;q=0.9","5f4d3cb5fdda0b2c403fb801","679edb085803f58d6bbd31ca","679ee17da7ec9ae3889c8c20","","null","<img id='selected' src='G_6.jpg' height='90'> <img id='selected' src='G_8.jpg' height='90'> <img src='G_3.jpg' height='90'> <img src='G_2.jpg' height='90'> <img src='G_4.jpg' height='90'> <img src='G_5.jpg' height='90'> <img src='G_1.jpg' height='90'> <img src='G_7.jpg' height='90'>","null","Learning example 1","",""
"","","","","","html-button-response","122","184215","0.0-110.0","15","1","2025-02-02 03:07:46","bc01a2b6f61d06f6604adb8657495020","47.151.109.216","Mozilla/5.0 (Windows NT 10.0; Win64; x64) AppleWebKit/537.36 (KHTML, like Gecko) Chrome/130.0.0.0 Safari/537.36 OPR/115.0.0.0","WebKit","Opera","115.0.0.0","Windows","10.0","https://app.prolific.com/","en-US,en;q=0.9","5f4d3cb5fdda0b2c403fb801","679edb085803f58d6bbd31ca","679ee17da7ec9ae3889c8c20","","null","<img id='selected' src='G_6.jpg' height='90'> <img id='selected' src='G_8.jpg' height='90'> <img src='G_3.jpg' height='90'> <img src='G_2.jpg' height='90'> <img src='G_4.jpg' height='90'> <img src='G_5.jpg' height='90'> <img src='G_1.jpg' height='90'> <img src='G_7.jpg' height='90'>","null","Learning example 1","",""
"","","","","","html-button-response","123","186923","0.0-111.0-0.0-0.0","15","1","2025-02-02 03:07:46","bc01a2b6f61d06f6604adb8657495020","47.151.109.216","Mozilla/5.0 (Windows NT 10.0; Win64; x64) AppleWebKit/537.36 (KHTML, like Gecko) Chrome/130.0.0.0 Safari/537.36 OPR/115.0.0.0","WebKit","Opera","115.0.0.0","Windows","10.0","https://app.prolific.com/","en-US,en;q=0.9","5f4d3cb5fdda0b2c403fb801","679edb085803f58d6bbd31ca","679ee17da7ec9ae3889c8c20","","2704","<img id='selected' src='G_6.jpg' height='90'> <img id='selected' src='G_8.jpg' height='90'> <img src='G_3.jpg' height='90'> <img src='G_2.jpg' height='90'> <img src='G_4.jpg' height='90'> <img src='G_5.jpg' height='90'> <img src='G_1.jpg' height='90'> <img src='G_7.jpg' height='90'>","0","Learning example 1","",""
"","","","","","html-button-response","124","187482","0.0-111.1-0.1-0.1","15","1","2025-02-02 03:07:46","bc01a2b6f61d06f6604adb8657495020","47.151.109.216","Mozilla/5.0 (Windows NT 10.0; Win64; x64) AppleWebKit/537.36 (KHTML, like Gecko) Chrome/130.0.0.0 Safari/537.36 OPR/115.0.0.0","WebKit","Opera","115.0.0.0","Windows","10.0","https://app.prolific.com/","en-US,en;q=0.9","5f4d3cb5fdda0b2c403fb801","679edb085803f58d6bbd31ca","679ee17da7ec9ae3889c8c20","","556","<img id='selected' src='G_6.jpg' height='90'> <img id='selected' src='G_8.jpg' height='90'> <img src='G_3.jpg' height='90'> <img src='G_2.jpg' height='90'> <img src='G_4.jpg' height='90'> <img src='G_5.jpg' height='90'> <img src='G_1.jpg' height='90'> <img src='G_7.jpg' height='90'>","1","Learning example 1","",""
"","","","","","html-button-response","125","187690","0.0-112.0","15","1","2025-02-02 03:07:46","bc01a2b6f61d06f6604adb8657495020","47.151.109.216","Mozilla/5.0 (Windows NT 10.0; Win64; x64) AppleWebKit/537.36 (KHTML, like Gecko) Chrome/130.0.0.0 Safari/537.36 OPR/115.0.0.0","WebKit","Opera","115.0.0.0","Windows","10.0","https://app.prolific.com/","en-US,en;q=0.9","5f4d3cb5fdda0b2c403fb801","679edb085803f58d6bbd31ca","679ee17da7ec9ae3889c8c20","","null","<img  src='G_6.jpg' height='90'> <img  src='G_8.jpg' height='90'> <img src='G_3.jpg' height='90'> <img src='G_2.jpg' height='90'> <img src='G_4.jpg' height='90'> <img src='G_5.jpg' height='90'> <img src='G_1.jpg' height='90'> <img src='G_7.jpg' height='90'>","null","Learning example 1","",""
"","","","","","html-button-response","126","188103","0.0-113.0","15","1","2025-02-02 03:07:46","bc01a2b6f61d06f6604adb8657495020","47.151.109.216","Mozilla/5.0 (Windows NT 10.0; Win64; x64) AppleWebKit/537.36 (KHTML, like Gecko) Chrome/130.0.0.0 Safari/537.36 OPR/115.0.0.0","WebKit","Opera","115.0.0.0","Windows","10.0","https://app.prolific.com/","en-US,en;q=0.9","5f4d3cb5fdda0b2c403fb801","679edb085803f58d6bbd31ca","679ee17da7ec9ae3889c8c20","","null","<img  src='G_6.jpg' height='90'> <img id='selected'  src='G_8.jpg' height='90'> <img src='G_3.jpg' height='90'> <img src='G_2.jpg' height='90'> <img src='G_4.jpg' height='90'> <img src='G_5.jpg' height='90'> <img src='G_1.jpg' height='90'> <img src='G_7.jpg' height='90'>","null","Learning example 1","",""
"","","","","","html-button-response","127","188414","0.0-114.0","15","1","2025-02-02 03:07:46","bc01a2b6f61d06f6604adb8657495020","47.151.109.216","Mozilla/5.0 (Windows NT 10.0; Win64; x64) AppleWebKit/537.36 (KHTML, like Gecko) Chrome/130.0.0.0 Safari/537.36 OPR/115.0.0.0","WebKit","Opera","115.0.0.0","Windows","10.0","https://app.prolific.com/","en-US,en;q=0.9","5f4d3cb5fdda0b2c403fb801","679edb085803f58d6bbd31ca","679ee17da7ec9ae3889c8c20","","null","<img  src='G_6.jpg' height='90'> <img id='selected'  src='G_8.jpg' height='90'> <img id='selected' src='G_3.jpg' height='90'> <img src='G_2.jpg' height='90'> <img src='G_4.jpg' height='90'> <img src='G_5.jpg' height='90'> <img src='G_1.jpg' height='90'> <img src='G_7.jpg' height='90'>","null","Learning example 1","",""
"","","","","","html-button-response","128","188727","0.0-115.0","15","1","2025-02-02 03:07:46","bc01a2b6f61d06f6604adb8657495020","47.151.109.216","Mozilla/5.0 (Windows NT 10.0; Win64; x64) AppleWebKit/537.36 (KHTML, like Gecko) Chrome/130.0.0.0 Safari/537.36 OPR/115.0.0.0","WebKit","Opera","115.0.0.0","Windows","10.0","https://app.prolific.com/","en-US,en;q=0.9","5f4d3cb5fdda0b2c403fb801","679edb085803f58d6bbd31ca","679ee17da7ec9ae3889c8c20","","null","<img  src='G_6.jpg' height='90'> <img id='swapped' src='G_3.jpg' height='90'> <img id='swapped'  src='G_8.jpg' height='90'> <img src='G_2.jpg' height='90'> <img src='G_4.jpg' height='90'> <img src='G_5.jpg' height='90'> <img src='G_1.jpg' height='90'> <img src='G_7.jpg' height='90'>","null","Learning example 1","",""
"","","","","","html-button-response","129","188930","0.0-116.0-0.0-0.0","15","1","2025-02-02 03:07:46","bc01a2b6f61d06f6604adb8657495020","47.151.109.216","Mozilla/5.0 (Windows NT 10.0; Win64; x64) AppleWebKit/537.36 (KHTML, like Gecko) Chrome/130.0.0.0 Safari/537.36 OPR/115.0.0.0","WebKit","Opera","115.0.0.0","Windows","10.0","https://app.prolific.com/","en-US,en;q=0.9","5f4d3cb5fdda0b2c403fb801","679edb085803f58d6bbd31ca","679ee17da7ec9ae3889c8c20","","198","<img  src='G_6.jpg' height='90'> <img id='swapped' src='G_3.jpg' height='90'> <img id='swapped'  src='G_8.jpg' height='90'> <img src='G_2.jpg' height='90'> <img src='G_4.jpg' height='90'> <img src='G_5.jpg' height='90'> <img src='G_1.jpg' height='90'> <img src='G_7.jpg' height='90'>","1","Learning example 1","",""
"","","","","","html-button-response","130","189635","0.0-116.1-0.1-0.1","15","1","2025-02-02 03:07:46","bc01a2b6f61d06f6604adb8657495020","47.151.109.216","Mozilla/5.0 (Windows NT 10.0; Win64; x64) AppleWebKit/537.36 (KHTML, like Gecko) Chrome/130.0.0.0 Safari/537.36 OPR/115.0.0.0","WebKit","Opera","115.0.0.0","Windows","10.0","https://app.prolific.com/","en-US,en;q=0.9","5f4d3cb5fdda0b2c403fb801","679edb085803f58d6bbd31ca","679ee17da7ec9ae3889c8c20","","699","<img  src='G_6.jpg' height='90'> <img id='swapped' src='G_3.jpg' height='90'> <img id='swapped'  src='G_8.jpg' height='90'> <img src='G_2.jpg' height='90'> <img src='G_4.jpg' height='90'> <img src='G_5.jpg' height='90'> <img src='G_1.jpg' height='90'> <img src='G_7.jpg' height='90'>","2","Learning example 1","",""
"","","","","","html-button-response","131","189854","0.0-117.0","15","1","2025-02-02 03:07:46","bc01a2b6f61d06f6604adb8657495020","47.151.109.216","Mozilla/5.0 (Windows NT 10.0; Win64; x64) AppleWebKit/537.36 (KHTML, like Gecko) Chrome/130.0.0.0 Safari/537.36 OPR/115.0.0.0","WebKit","Opera","115.0.0.0","Windows","10.0","https://app.prolific.com/","en-US,en;q=0.9","5f4d3cb5fdda0b2c403fb801","679edb085803f58d6bbd31ca","679ee17da7ec9ae3889c8c20","","null","<img  src='G_6.jpg' height='90'> <img  src='G_3.jpg' height='90'> <img   src='G_8.jpg' height='90'> <img src='G_2.jpg' height='90'> <img src='G_4.jpg' height='90'> <img src='G_5.jpg' height='90'> <img src='G_1.jpg' height='90'> <img src='G_7.jpg' height='90'>","null","Learning example 1","",""
"","","","","","html-button-response","132","190270","0.0-118.0","15","1","2025-02-02 03:07:46","bc01a2b6f61d06f6604adb8657495020","47.151.109.216","Mozilla/5.0 (Windows NT 10.0; Win64; x64) AppleWebKit/537.36 (KHTML, like Gecko) Chrome/130.0.0.0 Safari/537.36 OPR/115.0.0.0","WebKit","Opera","115.0.0.0","Windows","10.0","https://app.prolific.com/","en-US,en;q=0.9","5f4d3cb5fdda0b2c403fb801","679edb085803f58d6bbd31ca","679ee17da7ec9ae3889c8c20","","null","<img id='selected'  src='G_6.jpg' height='90'> <img  src='G_3.jpg' height='90'> <img   src='G_8.jpg' height='90'> <img src='G_2.jpg' height='90'> <img src='G_4.jpg' height='90'> <img src='G_5.jpg' height='90'> <img src='G_1.jpg' height='90'> <img src='G_7.jpg' height='90'>","null","Learning example 1","",""
"","","","","","html-button-response","133","190583","0.0-119.0","15","1","2025-02-02 03:07:46","bc01a2b6f61d06f6604adb8657495020","47.151.109.216","Mozilla/5.0 (Windows NT 10.0; Win64; x64) AppleWebKit/537.36 (KHTML, like Gecko) Chrome/130.0.0.0 Safari/537.36 OPR/115.0.0.0","WebKit","Opera","115.0.0.0","Windows","10.0","https://app.prolific.com/","en-US,en;q=0.9","5f4d3cb5fdda0b2c403fb801","679edb085803f58d6bbd31ca","679ee17da7ec9ae3889c8c20","","null","<img id='selected'  src='G_6.jpg' height='90'> <img id='selected'  src='G_3.jpg' height='90'> <img   src='G_8.jpg' height='90'> <img src='G_2.jpg' height='90'> <img src='G_4.jpg' height='90'> <img src='G_5.jpg' height='90'> <img src='G_1.jpg' height='90'> <img src='G_7.jpg' height='90'>","null","Learning example 1","",""
"","","","","","html-button-response","134","190895","0.0-120.0","15","1","2025-02-02 03:07:46","bc01a2b6f61d06f6604adb8657495020","47.151.109.216","Mozilla/5.0 (Windows NT 10.0; Win64; x64) AppleWebKit/537.36 (KHTML, like Gecko) Chrome/130.0.0.0 Safari/537.36 OPR/115.0.0.0","WebKit","Opera","115.0.0.0","Windows","10.0","https://app.prolific.com/","en-US,en;q=0.9","5f4d3cb5fdda0b2c403fb801","679edb085803f58d6bbd31ca","679ee17da7ec9ae3889c8c20","","null","<img id='swapped'  src='G_3.jpg' height='90'> <img id='swapped'  src='G_6.jpg' height='90'> <img   src='G_8.jpg' height='90'> <img src='G_2.jpg' height='90'> <img src='G_4.jpg' height='90'> <img src='G_5.jpg' height='90'> <img src='G_1.jpg' height='90'> <img src='G_7.jpg' height='90'>","null","Learning example 1","",""
"","","","","","html-button-response","135","191538","0.0-121.0-0.0-0.0","15","1","2025-02-02 03:07:46","bc01a2b6f61d06f6604adb8657495020","47.151.109.216","Mozilla/5.0 (Windows NT 10.0; Win64; x64) AppleWebKit/537.36 (KHTML, like Gecko) Chrome/130.0.0.0 Safari/537.36 OPR/115.0.0.0","WebKit","Opera","115.0.0.0","Windows","10.0","https://app.prolific.com/","en-US,en;q=0.9","5f4d3cb5fdda0b2c403fb801","679edb085803f58d6bbd31ca","679ee17da7ec9ae3889c8c20","","633","<img id='swapped'  src='G_3.jpg' height='90'> <img id='swapped'  src='G_6.jpg' height='90'> <img   src='G_8.jpg' height='90'> <img src='G_2.jpg' height='90'> <img src='G_4.jpg' height='90'> <img src='G_5.jpg' height='90'> <img src='G_1.jpg' height='90'> <img src='G_7.jpg' height='90'>","1","Learning example 1","",""
"","","","","","html-button-response","136","192187","0.0-121.1-0.1-0.1","15","1","2025-02-02 03:07:46","bc01a2b6f61d06f6604adb8657495020","47.151.109.216","Mozilla/5.0 (Windows NT 10.0; Win64; x64) AppleWebKit/537.36 (KHTML, like Gecko) Chrome/130.0.0.0 Safari/537.36 OPR/115.0.0.0","WebKit","Opera","115.0.0.0","Windows","10.0","https://app.prolific.com/","en-US,en;q=0.9","5f4d3cb5fdda0b2c403fb801","679edb085803f58d6bbd31ca","679ee17da7ec9ae3889c8c20","","644","<img id='swapped'  src='G_3.jpg' height='90'> <img id='swapped'  src='G_6.jpg' height='90'> <img   src='G_8.jpg' height='90'> <img src='G_2.jpg' height='90'> <img src='G_4.jpg' height='90'> <img src='G_5.jpg' height='90'> <img src='G_1.jpg' height='90'> <img src='G_7.jpg' height='90'>","0","Learning example 1","",""
"","","","","","html-button-response","137","192401","0.0-122.0","15","1","2025-02-02 03:07:46","bc01a2b6f61d06f6604adb8657495020","47.151.109.216","Mozilla/5.0 (Windows NT 10.0; Win64; x64) AppleWebKit/537.36 (KHTML, like Gecko) Chrome/130.0.0.0 Safari/537.36 OPR/115.0.0.0","WebKit","Opera","115.0.0.0","Windows","10.0","https://app.prolific.com/","en-US,en;q=0.9","5f4d3cb5fdda0b2c403fb801","679edb085803f58d6bbd31ca","679ee17da7ec9ae3889c8c20","","null","<img   src='G_3.jpg' height='90'> <img   src='G_6.jpg' height='90'> <img   src='G_8.jpg' height='90'> <img src='G_2.jpg' height='90'> <img src='G_4.jpg' height='90'> <img src='G_5.jpg' height='90'> <img src='G_1.jpg' height='90'> <img src='G_7.jpg' height='90'>","null","Learning example 1","",""
"","","","","","html-button-response","138","192817","0.0-123.0","15","1","2025-02-02 03:07:46","bc01a2b6f61d06f6604adb8657495020","47.151.109.216","Mozilla/5.0 (Windows NT 10.0; Win64; x64) AppleWebKit/537.36 (KHTML, like Gecko) Chrome/130.0.0.0 Safari/537.36 OPR/115.0.0.0","WebKit","Opera","115.0.0.0","Windows","10.0","https://app.prolific.com/","en-US,en;q=0.9","5f4d3cb5fdda0b2c403fb801","679edb085803f58d6bbd31ca","679ee17da7ec9ae3889c8c20","","null","<img   src='G_3.jpg' height='90'> <img   src='G_6.jpg' height='90'> <img id='selected'   src='G_8.jpg' height='90'> <img src='G_2.jpg' height='90'> <img src='G_4.jpg' height='90'> <img src='G_5.jpg' height='90'> <img src='G_1.jpg' height='90'> <img src='G_7.jpg' height='90'>","null","Learning example 1","",""
