"success","timeout","failed_images","failed_audio","failed_video","trial_type","trial_index","time_elapsed","internal_node_id","run_id","condition","recorded_at","source_code_version","ip","user_agent","device","browser","browser_version","platform","platform_version","referer","accept_language","PROLIFIC_PID","STUDY_ID","SESSION_ID","view_history","rt","stimulus","response","phase","question_order","presented_choices"
"true","false","[]","[]","[]","preload","0","508","0.0-0.0","16","1","2025-02-02 03:07:54","bc01a2b6f61d06f6604adb8657495020","65.128.101.158","Mozilla/5.0 (Windows NT 10.0; Win64; x64; rv:134.0) Gecko/20100101 Firefox/134.0","","Firefox","134.0","Windows","10.0","https://app.prolific.com/","en-US,en;q=0.5","6685bda9fe63421c0f632414","679edb085803f58d6bbd31ca","679ee1811e5ee26e9178f22b","","","","","","",""
"","","","","","instructions","1","20189","0.0-1.0","16","1","2025-02-02 03:07:54","bc01a2b6f61d06f6604adb8657495020","65.128.101.158","Mozilla/5.0 (Windows NT 10.0; Win64; x64; rv:134.0) Gecko/20100101 Firefox/134.0","","Firefox","134.0","Windows","10.0","https://app.prolific.com/","en-US,en;q=0.5","6685bda9fe63421c0f632414","679edb085803f58d6bbd31ca","679ee1811e5ee26e9178f22b","[{""page_index"":0,""viewing_time"":19677}]","19678","","","","",""
"","","","","","html-keyboard-response","2","20697","0.0-2.0","16","1","2025-02-02 03:07:54","bc01a2b6f61d06f6604adb8657495020","65.128.101.158","Mozilla/5.0 (Windows NT 10.0; Win64; x64; rv:134.0) Gecko/20100101 Firefox/134.0","","Firefox","134.0","Windows","10.0","https://app.prolific.com/","en-US,en;q=0.5","6685bda9fe63421c0f632414","679edb085803f58d6bbd31ca","679ee1811e5ee26e9178f22b","","null","<p> + <p/>","null","","",""
"","","","","","instructions","3","49481","0.0-3.0","16","1","2025-02-02 03:07:54","bc01a2b6f61d06f6604adb8657495020","65.128.101.158","Mozilla/5.0 (Windows NT 10.0; Win64; x64; rv:134.0) Gecko/20100101 Firefox/134.0","","Firefox","134.0","Windows","10.0","https://app.prolific.com/","en-US,en;q=0.5","6685bda9fe63421c0f632414","679edb085803f58d6bbd31ca","679ee1811e5ee26e9178f22b","[{""page_index"":0,""viewing_time"":1960},{""page_index"":1,""viewing_time"":9327},{""page_index"":2,""viewing_time"":7376},{""page_index"":3,""viewing_time"":2795},{""page_index"":4,""viewing_time"":7322}]","28780","","","","",""
"","","","","","html-button-response","4","52796","0.0-4.0-0.0-0.0","16","1","2025-02-02 03:07:54","bc01a2b6f61d06f6604adb8657495020","65.128.101.158","Mozilla/5.0 (Windows NT 10.0; Win64; x64; rv:134.0) Gecko/20100101 Firefox/134.0","","Firefox","134.0","Windows","10.0","https://app.prolific.com/","en-US,en;q=0.5","6685bda9fe63421c0f632414","679edb085803f58d6bbd31ca","679ee1811e5ee26e9178f22b","","3314","","0","Intro Trial","",""
"","","","","","html-button-response","5","53401","0.0-4.1-0.1-0.1","16","1","2025-02-02 03:07:54","bc01a2b6f61d06f6604adb8657495020","65.128.101.158","Mozilla/5.0 (Windows NT 10.0; Win64; x64; rv:134.0) Gecko/20100101 Firefox/134.0","","Firefox","134.0","Windows","10.0","https://app.prolific.com/","en-US,en;q=0.5","6685bda9fe63421c0f632414","679edb085803f58d6bbd31ca","679ee1811e5ee26e9178f22b","","603","","2","Intro Trial","",""
"","","","","","html-button-response","6","60864","0.0-4.2-0.2-0.2","16","1","2025-02-02 03:07:54","bc01a2b6f61d06f6604adb8657495020","65.128.101.158","Mozilla/5.0 (Windows NT 10.0; Win64; x64; rv:134.0) Gecko/20100101 Firefox/134.0","","Firefox","134.0","Windows","10.0","https://app.prolific.com/","en-US,en;q=0.5","6685bda9fe63421c0f632414","679edb085803f58d6bbd31ca","679ee1811e5ee26e9178f22b","","7460","","1","Intro Trial","",""
"","","","","","html-button-response","7","61260","0.0-4.3-0.3-0.3","16","1","2025-02-02 03:07:54","bc01a2b6f61d06f6604adb8657495020","65.128.101.158","Mozilla/5.0 (Windows NT 10.0; Win64; x64; rv:134.0) Gecko/20100101 Firefox/134.0","","Firefox","134.0","Windows","10.0","https://app.prolific.com/","en-US,en;q=0.5","6685bda9fe63421c0f632414","679edb085803f58d6bbd31ca","679ee1811e5ee26e9178f22b","","394","","2","Intro Trial","",""
"","","","","","html-button-response","8","64001","0.0-4.4-0.4-0.4","16","1","2025-02-02 03:07:54","bc01a2b6f61d06f6604adb8657495020","65.128.101.158","Mozilla/5.0 (Windows NT 10.0; Win64; x64; rv:134.0) Gecko/20100101 Firefox/134.0","","Firefox","134.0","Windows","10.0","https://app.prolific.com/","en-US,en;q=0.5","6685bda9fe63421c0f632414","679edb085803f58d6bbd31ca","679ee1811e5ee26e9178f22b","","2739","","0","Intro Trial","",""
"","","","","","html-button-response","9","64344","0.0-4.5-0.5-0.5","16","1","2025-02-02 03:07:54","bc01a2b6f61d06f6604adb8657495020","65.128.101.158","Mozilla/5.0 (Windows NT 10.0; Win64; x64; rv:134.0) Gecko/20100101 Firefox/134.0","","Firefox","134.0","Windows","10.0","https://app.prolific.com/","en-US,en;q=0.5","6685bda9fe63421c0f632414","679edb085803f58d6bbd31ca","679ee1811e5ee26e9178f22b","","341","","1","Intro Trial","",""
"","","","","","html-button-response","10","67336","0.0-4.6-0.6-0.6","16","1","2025-02-02 03:07:54","bc01a2b6f61d06f6604adb8657495020","65.128.101.158","Mozilla/5.0 (Windows NT 10.0; Win64; x64; rv:134.0) Gecko/20100101 Firefox/134.0","","Firefox","134.0","Windows","10.0","https://app.prolific.com/","en-US,en;q=0.5","6685bda9fe63421c0f632414","679edb085803f58d6bbd31ca","679ee1811e5ee26e9178f22b","","2990","","2","Intro Trial","",""
"","","","","","html-button-response","11","67654","0.0-4.7-0.7-0.7","16","1","2025-02-02 03:07:54","bc01a2b6f61d06f6604adb8657495020","65.128.101.158","Mozilla/5.0 (Windows NT 10.0; Win64; x64; rv:134.0) Gecko/20100101 Firefox/134.0","","Firefox","134.0","Windows","10.0","https://app.prolific.com/","en-US,en;q=0.5","6685bda9fe63421c0f632414","679edb085803f58d6bbd31ca","679ee1811e5ee26e9178f22b","","315","","3","Intro Trial","",""
"","","","","","html-button-response","12","69741","0.0-4.8-0.8-0.8","16","1","2025-02-02 03:07:54","bc01a2b6f61d06f6604adb8657495020","65.128.101.158","Mozilla/5.0 (Windows NT 10.0; Win64; x64; rv:134.0) Gecko/20100101 Firefox/134.0","","Firefox","134.0","Windows","10.0","https://app.prolific.com/","en-US,en;q=0.5","6685bda9fe63421c0f632414","679edb085803f58d6bbd31ca","679ee1811e5ee26e9178f22b","","2086","","2","Intro Trial","",""
"","","","","","html-button-response","13","70177","0.0-4.9-0.9-0.9","16","1","2025-02-02 03:07:54","bc01a2b6f61d06f6604adb8657495020","65.128.101.158","Mozilla/5.0 (Windows NT 10.0; Win64; x64; rv:134.0) Gecko/20100101 Firefox/134.0","","Firefox","134.0","Windows","10.0","https://app.prolific.com/","en-US,en;q=0.5","6685bda9fe63421c0f632414","679edb085803f58d6bbd31ca","679ee1811e5ee26e9178f22b","","435","","4","Intro Trial","",""
"","","","","","html-button-response","14","71734","0.0-4.10-0.10-0.10","16","1","2025-02-02 03:07:54","bc01a2b6f61d06f6604adb8657495020","65.128.101.158","Mozilla/5.0 (Windows NT 10.0; Win64; x64; rv:134.0) Gecko/20100101 Firefox/134.0","","Firefox","134.0","Windows","10.0","https://app.prolific.com/","en-US,en;q=0.5","6685bda9fe63421c0f632414","679edb085803f58d6bbd31ca","679ee1811e5ee26e9178f22b","","1554","","3","Intro Trial","",""
"","","","","","html-button-response","15","72180","0.0-4.11-0.11-0.11","16","1","2025-02-02 03:07:54","bc01a2b6f61d06f6604adb8657495020","65.128.101.158","Mozilla/5.0 (Windows NT 10.0; Win64; x64; rv:134.0) Gecko/20100101 Firefox/134.0","","Firefox","134.0","Windows","10.0","https://app.prolific.com/","en-US,en;q=0.5","6685bda9fe63421c0f632414","679edb085803f58d6bbd31ca","679ee1811e5ee26e9178f22b","","441","","4","Intro Trial","",""
"","","","","","html-button-response","16","73238","0.0-4.12-0.12-0.12","16","1","2025-02-02 03:07:54","bc01a2b6f61d06f6604adb8657495020","65.128.101.158","Mozilla/5.0 (Windows NT 10.0; Win64; x64; rv:134.0) Gecko/20100101 Firefox/134.0","","Firefox","134.0","Windows","10.0","https://app.prolific.com/","en-US,en;q=0.5","6685bda9fe63421c0f632414","679edb085803f58d6bbd31ca","679ee1811e5ee26e9178f22b","","1055","","2","Intro Trial","",""
"","","","","","html-button-response","17","73859","0.0-4.13-0.13-0.13","16","1","2025-02-02 03:07:54","bc01a2b6f61d06f6604adb8657495020","65.128.101.158","Mozilla/5.0 (Windows NT 10.0; Win64; x64; rv:134.0) Gecko/20100101 Firefox/134.0","","Firefox","134.0","Windows","10.0","https://app.prolific.com/","en-US,en;q=0.5","6685bda9fe63421c0f632414","679edb085803f58d6bbd31ca","679ee1811e5ee26e9178f22b","","620","","4","Intro Trial","",""
"","","","","","html-button-response","18","81819","0.0-4.14-0.14-0.14","16","1","2025-02-02 03:07:54","bc01a2b6f61d06f6604adb8657495020","65.128.101.158","Mozilla/5.0 (Windows NT 10.0; Win64; x64; rv:134.0) Gecko/20100101 Firefox/134.0","","Firefox","134.0","Windows","10.0","https://app.prolific.com/","en-US,en;q=0.5","6685bda9fe63421c0f632414","679edb085803f58d6bbd31ca","679ee1811e5ee26e9178f22b","","7956","","2","Intro Trial","",""
"","","","","","html-button-response","19","82215","0.0-4.15-0.15-0.15","16","1","2025-02-02 03:07:54","bc01a2b6f61d06f6604adb8657495020","65.128.101.158","Mozilla/5.0 (Windows NT 10.0; Win64; x64; rv:134.0) Gecko/20100101 Firefox/134.0","","Firefox","134.0","Windows","10.0","https://app.prolific.com/","en-US,en;q=0.5","6685bda9fe63421c0f632414","679edb085803f58d6bbd31ca","679ee1811e5ee26e9178f22b","","394","","3","Intro Trial","",""
"","","","","","html-button-response","20","82994","0.0-4.16-0.16-0.16","16","1","2025-02-02 03:07:54","bc01a2b6f61d06f6604adb8657495020","65.128.101.158","Mozilla/5.0 (Windows NT 10.0; Win64; x64; rv:134.0) Gecko/20100101 Firefox/134.0","","Firefox","134.0","Windows","10.0","https://app.prolific.com/","en-US,en;q=0.5","6685bda9fe63421c0f632414","679edb085803f58d6bbd31ca","679ee1811e5ee26e9178f22b","","776","","1","Intro Trial","",""
"","","","","","html-button-response","21","83648","0.0-4.17-0.17-0.17","16","1","2025-02-02 03:07:54","bc01a2b6f61d06f6604adb8657495020","65.128.101.158","Mozilla/5.0 (Windows NT 10.0; Win64; x64; rv:134.0) Gecko/20100101 Firefox/134.0","","Firefox","134.0","Windows","10.0","https://app.prolific.com/","en-US,en;q=0.5","6685bda9fe63421c0f632414","679edb085803f58d6bbd31ca","679ee1811e5ee26e9178f22b","","653","","3","Intro Trial","",""
"","","","","","html-button-response","22","84449","0.0-4.18-0.18-0.18","16","1","2025-02-02 03:07:54","bc01a2b6f61d06f6604adb8657495020","65.128.101.158","Mozilla/5.0 (Windows NT 10.0; Win64; x64; rv:134.0) Gecko/20100101 Firefox/134.0","","Firefox","134.0","Windows","10.0","https://app.prolific.com/","en-US,en;q=0.5","6685bda9fe63421c0f632414","679edb085803f58d6bbd31ca","679ee1811e5ee26e9178f22b","","799","","0","Intro Trial","",""
"","","","","","html-button-response","23","84745","0.0-4.19-0.19-0.19","16","1","2025-02-02 03:07:54","bc01a2b6f61d06f6604adb8657495020","65.128.101.158","Mozilla/5.0 (Windows NT 10.0; Win64; x64; rv:134.0) Gecko/20100101 Firefox/134.0","","Firefox","134.0","Windows","10.0","https://app.prolific.com/","en-US,en;q=0.5","6685bda9fe63421c0f632414","679edb085803f58d6bbd31ca","679ee1811e5ee26e9178f22b","","294","","1","Intro Trial","",""
"","","","","","html-button-response","24","85867","0.0-4.20-0.20-0.20","16","1","2025-02-02 03:07:54","bc01a2b6f61d06f6604adb8657495020","65.128.101.158","Mozilla/5.0 (Windows NT 10.0; Win64; x64; rv:134.0) Gecko/20100101 Firefox/134.0","","Firefox","134.0","Windows","10.0","https://app.prolific.com/","en-US,en;q=0.5","6685bda9fe63421c0f632414","679edb085803f58d6bbd31ca","679ee1811e5ee26e9178f22b","","1120","","0","Intro Trial","",""
"","","","","","html-button-response","25","86342","0.0-4.21-0.21-0.21","16","1","2025-02-02 03:07:54","bc01a2b6f61d06f6604adb8657495020","65.128.101.158","Mozilla/5.0 (Windows NT 10.0; Win64; x64; rv:134.0) Gecko/20100101 Firefox/134.0","","Firefox","134.0","Windows","10.0","https://app.prolific.com/","en-US,en;q=0.5","6685bda9fe63421c0f632414","679edb085803f58d6bbd31ca","679ee1811e5ee26e9178f22b","","471","","2","Intro Trial","",""
"","","","","","html-button-response","26","87168","0.0-4.22-0.22-0.22","16","1","2025-02-02 03:07:54","bc01a2b6f61d06f6604adb8657495020","65.128.101.158","Mozilla/5.0 (Windows NT 10.0; Win64; x64; rv:134.0) Gecko/20100101 Firefox/134.0","","Firefox","134.0","Windows","10.0","https://app.prolific.com/","en-US,en;q=0.5","6685bda9fe63421c0f632414","679edb085803f58d6bbd31ca","679ee1811e5ee26e9178f22b","","824","","1","Intro Trial","",""
"","","","","","html-button-response","27","87525","0.0-4.23-0.23-0.23","16","1","2025-02-02 03:07:54","bc01a2b6f61d06f6604adb8657495020","65.128.101.158","Mozilla/5.0 (Windows NT 10.0; Win64; x64; rv:134.0) Gecko/20100101 Firefox/134.0","","Firefox","134.0","Windows","10.0","https://app.prolific.com/","en-US,en;q=0.5","6685bda9fe63421c0f632414","679edb085803f58d6bbd31ca","679ee1811e5ee26e9178f22b","","354","","2","Intro Trial","",""
"","","","","","html-button-response","28","88911","0.0-4.24-0.24-0.24","16","1","2025-02-02 03:07:54","bc01a2b6f61d06f6604adb8657495020","65.128.101.158","Mozilla/5.0 (Windows NT 10.0; Win64; x64; rv:134.0) Gecko/20100101 Firefox/134.0","","Firefox","134.0","Windows","10.0","https://app.prolific.com/","en-US,en;q=0.5","6685bda9fe63421c0f632414","679edb085803f58d6bbd31ca","679ee1811e5ee26e9178f22b","","1385","","0","Intro Trial","",""
"","","","","","html-button-response","29","89208","0.0-4.25-0.25-0.25","16","1","2025-02-02 03:07:54","bc01a2b6f61d06f6604adb8657495020","65.128.101.158","Mozilla/5.0 (Windows NT 10.0; Win64; x64; rv:134.0) Gecko/20100101 Firefox/134.0","","Firefox","134.0","Windows","10.0","https://app.prolific.com/","en-US,en;q=0.5","6685bda9fe63421c0f632414","679edb085803f58d6bbd31ca","679ee1811e5ee26e9178f22b","","295","","1","Intro Trial","",""
"","","","","","html-button-response","30","89667","0.0-4.26-0.26-0.26","16","1","2025-02-02 03:07:54","bc01a2b6f61d06f6604adb8657495020","65.128.101.158","Mozilla/5.0 (Windows NT 10.0; Win64; x64; rv:134.0) Gecko/20100101 Firefox/134.0","","Firefox","134.0","Windows","10.0","https://app.prolific.com/","en-US,en;q=0.5","6685bda9fe63421c0f632414","679edb085803f58d6bbd31ca","679ee1811e5ee26e9178f22b","","456","","1","Intro Trial","",""
"","","","","","html-button-response","31","90001","0.0-4.27-0.27-0.27","16","1","2025-02-02 03:07:54","bc01a2b6f61d06f6604adb8657495020","65.128.101.158","Mozilla/5.0 (Windows NT 10.0; Win64; x64; rv:134.0) Gecko/20100101 Firefox/134.0","","Firefox","134.0","Windows","10.0","https://app.prolific.com/","en-US,en;q=0.5","6685bda9fe63421c0f632414","679edb085803f58d6bbd31ca","679ee1811e5ee26e9178f22b","","332","","2","Intro Trial","",""
"","","","","","html-button-response","32","90469","0.0-4.28-0.28-0.28","16","1","2025-02-02 03:07:54","bc01a2b6f61d06f6604adb8657495020","65.128.101.158","Mozilla/5.0 (Windows NT 10.0; Win64; x64; rv:134.0) Gecko/20100101 Firefox/134.0","","Firefox","134.0","Windows","10.0","https://app.prolific.com/","en-US,en;q=0.5","6685bda9fe63421c0f632414","679edb085803f58d6bbd31ca","679ee1811e5ee26e9178f22b","","466","","2","Intro Trial","",""
"","","","","","html-button-response","33","90906","0.0-4.29-0.29-0.29","16","1","2025-02-02 03:07:54","bc01a2b6f61d06f6604adb8657495020","65.128.101.158","Mozilla/5.0 (Windows NT 10.0; Win64; x64; rv:134.0) Gecko/20100101 Firefox/134.0","","Firefox","134.0","Windows","10.0","https://app.prolific.com/","en-US,en;q=0.5","6685bda9fe63421c0f632414","679edb085803f58d6bbd31ca","679ee1811e5ee26e9178f22b","","434","","3","Intro Trial","",""
"","","","","","html-button-response","34","91856","0.0-4.30-0.30-0.30","16","1","2025-02-02 03:07:54","bc01a2b6f61d06f6604adb8657495020","65.128.101.158","Mozilla/5.0 (Windows NT 10.0; Win64; x64; rv:134.0) Gecko/20100101 Firefox/134.0","","Firefox","134.0","Windows","10.0","https://app.prolific.com/","en-US,en;q=0.5","6685bda9fe63421c0f632414","679edb085803f58d6bbd31ca","679ee1811e5ee26e9178f22b","","948","","3","Intro Trial","",""
"","","","","","html-button-response","35","92189","0.0-4.31-0.31-0.31","16","1","2025-02-02 03:07:54","bc01a2b6f61d06f6604adb8657495020","65.128.101.158","Mozilla/5.0 (Windows NT 10.0; Win64; x64; rv:134.0) Gecko/20100101 Firefox/134.0","","Firefox","134.0","Windows","10.0","https://app.prolific.com/","en-US,en;q=0.5","6685bda9fe63421c0f632414","679edb085803f58d6bbd31ca","679ee1811e5ee26e9178f22b","","331","","4","Intro Trial","",""
"","","","","","html-button-response","36","93887","0.0-4.32-0.32-0.32","16","1","2025-02-02 03:07:54","bc01a2b6f61d06f6604adb8657495020","65.128.101.158","Mozilla/5.0 (Windows NT 10.0; Win64; x64; rv:134.0) Gecko/20100101 Firefox/134.0","","Firefox","134.0","Windows","10.0","https://app.prolific.com/","en-US,en;q=0.5","6685bda9fe63421c0f632414","679edb085803f58d6bbd31ca","679ee1811e5ee26e9178f22b","","1696","","4","Intro Trial","",""
"","","","","","html-button-response","37","94449","0.0-4.33-0.33-0.33","16","1","2025-02-02 03:07:54","bc01a2b6f61d06f6604adb8657495020","65.128.101.158","Mozilla/5.0 (Windows NT 10.0; Win64; x64; rv:134.0) Gecko/20100101 Firefox/134.0","","Firefox","134.0","Windows","10.0","https://app.prolific.com/","en-US,en;q=0.5","6685bda9fe63421c0f632414","679edb085803f58d6bbd31ca","679ee1811e5ee26e9178f22b","","559","","3","Intro Trial","",""
"","","","","","html-button-response","38","94784","0.0-4.34-0.34-0.34","16","1","2025-02-02 03:07:54","bc01a2b6f61d06f6604adb8657495020","65.128.101.158","Mozilla/5.0 (Windows NT 10.0; Win64; x64; rv:134.0) Gecko/20100101 Firefox/134.0","","Firefox","134.0","Windows","10.0","https://app.prolific.com/","en-US,en;q=0.5","6685bda9fe63421c0f632414","679edb085803f58d6bbd31ca","679ee1811e5ee26e9178f22b","","332","","4","Intro Trial","",""
"","","","","","html-button-response","39","95694","0.0-4.35-0.35-0.35","16","1","2025-02-02 03:07:54","bc01a2b6f61d06f6604adb8657495020","65.128.101.158","Mozilla/5.0 (Windows NT 10.0; Win64; x64; rv:134.0) Gecko/20100101 Firefox/134.0","","Firefox","134.0","Windows","10.0","https://app.prolific.com/","en-US,en;q=0.5","6685bda9fe63421c0f632414","679edb085803f58d6bbd31ca","679ee1811e5ee26e9178f22b","","907","","1","Intro Trial","",""
"","","","","","html-button-response","40","96201","0.0-4.36-0.36-0.36","16","1","2025-02-02 03:07:54","bc01a2b6f61d06f6604adb8657495020","65.128.101.158","Mozilla/5.0 (Windows NT 10.0; Win64; x64; rv:134.0) Gecko/20100101 Firefox/134.0","","Firefox","134.0","Windows","10.0","https://app.prolific.com/","en-US,en;q=0.5","6685bda9fe63421c0f632414","679edb085803f58d6bbd31ca","679ee1811e5ee26e9178f22b","","506","","4","Intro Trial","",""
"","","","","","html-button-response","41","96948","0.0-4.37-0.37-0.37","16","1","2025-02-02 03:07:54","bc01a2b6f61d06f6604adb8657495020","65.128.101.158","Mozilla/5.0 (Windows NT 10.0; Win64; x64; rv:134.0) Gecko/20100101 Firefox/134.0","","Firefox","134.0","Windows","10.0","https://app.prolific.com/","en-US,en;q=0.5","6685bda9fe63421c0f632414","679edb085803f58d6bbd31ca","679ee1811e5ee26e9178f22b","","744","","0","Intro Trial","",""
"","","","","","html-button-response","42","97609","0.0-4.38-0.38-0.38","16","1","2025-02-02 03:07:54","bc01a2b6f61d06f6604adb8657495020","65.128.101.158","Mozilla/5.0 (Windows NT 10.0; Win64; x64; rv:134.0) Gecko/20100101 Firefox/134.0","","Firefox","134.0","Windows","10.0","https://app.prolific.com/","en-US,en;q=0.5","6685bda9fe63421c0f632414","679edb085803f58d6bbd31ca","679ee1811e5ee26e9178f22b","","659","","4","Intro Trial","",""
"","","","","","html-button-response","43","98498","0.0-4.39-0.39-0.39","16","1","2025-02-02 03:07:54","bc01a2b6f61d06f6604adb8657495020","65.128.101.158","Mozilla/5.0 (Windows NT 10.0; Win64; x64; rv:134.0) Gecko/20100101 Firefox/134.0","","Firefox","134.0","Windows","10.0","https://app.prolific.com/","en-US,en;q=0.5","6685bda9fe63421c0f632414","679edb085803f58d6bbd31ca","679ee1811e5ee26e9178f22b","","886","","5","Intro Trial","",""
"","","","","","html-keyboard-response","44","105191","0.0-5.0","16","1","2025-02-02 03:07:54","bc01a2b6f61d06f6604adb8657495020","65.128.101.158","Mozilla/5.0 (Windows NT 10.0; Win64; x64; rv:134.0) Gecko/20100101 Firefox/134.0","","Firefox","134.0","Windows","10.0","https://app.prolific.com/","en-US,en;q=0.5","6685bda9fe63421c0f632414","679edb085803f58d6bbd31ca","679ee1811e5ee26e9178f22b","","6691","[""You sorted correctly by using the balance 19 times. <br><br> <img src='G_5.jpg' height='90'><img src='G_2.jpg' height='90'><img src='G_3.jpg' height='90'><img src='G_1.jpg' height='90'><img src='G_4.jpg' height='90'><br><br> Your final order is 1,2,3,4,5<br><br><br>Omgne Sort in this game will allow you to sort correctly by using the balance 8 times. Press Enter to learn it!""]","enter","","",""
"","","","","","html-keyboard-response","45","112346","0.0-6.0","16","1","2025-02-02 03:07:54","bc01a2b6f61d06f6604adb8657495020","65.128.101.158","Mozilla/5.0 (Windows NT 10.0; Win64; x64; rv:134.0) Gecko/20100101 Firefox/134.0","","Firefox","134.0","Windows","10.0","https://app.prolific.com/","en-US,en;q=0.5","6685bda9fe63421c0f632414","679edb085803f58d6bbd31ca","679ee1811e5ee26e9178f22b","","7153","<p>Welcome to the learning phase! <br><br> You will learn by six examples. The following learning trials will not be used to calculate your performance. <br><br> Press Enter to continue.<p/>","enter","","",""
"","","","","","html-keyboard-response","46","116601","0.0-7.0","16","1","2025-02-02 03:07:54","bc01a2b6f61d06f6604adb8657495020","65.128.101.158","Mozilla/5.0 (Windows NT 10.0; Win64; x64; rv:134.0) Gecko/20100101 Firefox/134.0","","Firefox","134.0","Windows","10.0","https://app.prolific.com/","en-US,en;q=0.5","6685bda9fe63421c0f632414","679edb085803f58d6bbd31ca","679ee1811e5ee26e9178f22b","","4254","[""Example 1<br><br>You will watch Omnge Sort in action. Try to identify any patterns in the comparisons made by this method. <br><br>Press Enter to continue.""]","enter","","",""
"","","","","","html-keyboard-response","47","117116","0.0-8.0","16","1","2025-02-02 03:07:54","bc01a2b6f61d06f6604adb8657495020","65.128.101.158","Mozilla/5.0 (Windows NT 10.0; Win64; x64; rv:134.0) Gecko/20100101 Firefox/134.0","","Firefox","134.0","Windows","10.0","https://app.prolific.com/","en-US,en;q=0.5","6685bda9fe63421c0f632414","679edb085803f58d6bbd31ca","679ee1811e5ee26e9178f22b","","null","<img id='selected' src='G_1.jpg' height='90'> <img src='G_7.jpg' height='90'> <img src='G_3.jpg' height='90'> <img src='G_5.jpg' height='90'> <img src='G_9.jpg' height='90'>","null","Animation0","",""
"","","","","","html-keyboard-response","48","117634","0.0-9.0","16","1","2025-02-02 03:07:54","bc01a2b6f61d06f6604adb8657495020","65.128.101.158","Mozilla/5.0 (Windows NT 10.0; Win64; x64; rv:134.0) Gecko/20100101 Firefox/134.0","","Firefox","134.0","Windows","10.0","https://app.prolific.com/","en-US,en;q=0.5","6685bda9fe63421c0f632414","679edb085803f58d6bbd31ca","679ee1811e5ee26e9178f22b","","null","<img id='selected' src='G_1.jpg' height='90'> <img id='selected' src='G_7.jpg' height='90'> <img src='G_3.jpg' height='90'> <img src='G_5.jpg' height='90'> <img src='G_9.jpg' height='90'>","null","Animation0","",""
"","","","","","html-keyboard-response","49","118150","0.0-10.0","16","1","2025-02-02 03:07:54","bc01a2b6f61d06f6604adb8657495020","65.128.101.158","Mozilla/5.0 (Windows NT 10.0; Win64; x64; rv:134.0) Gecko/20100101 Firefox/134.0","","Firefox","134.0","Windows","10.0","https://app.prolific.com/","en-US,en;q=0.5","6685bda9fe63421c0f632414","679edb085803f58d6bbd31ca","679ee1811e5ee26e9178f22b","","null","<img id='swapped' src='G_7.jpg' height='90'> <img id='swapped' src='G_1.jpg' height='90'> <img src='G_3.jpg' height='90'> <img src='G_5.jpg' height='90'> <img src='G_9.jpg' height='90'>","null","Animation0","",""
"","","","","","html-keyboard-response","50","118464","0.0-11.0","16","1","2025-02-02 03:07:54","bc01a2b6f61d06f6604adb8657495020","65.128.101.158","Mozilla/5.0 (Windows NT 10.0; Win64; x64; rv:134.0) Gecko/20100101 Firefox/134.0","","Firefox","134.0","Windows","10.0","https://app.prolific.com/","en-US,en;q=0.5","6685bda9fe63421c0f632414","679edb085803f58d6bbd31ca","679ee1811e5ee26e9178f22b","","null","<img  src='G_7.jpg' height='90'> <img  src='G_1.jpg' height='90'> <img src='G_3.jpg' height='90'> <img src='G_5.jpg' height='90'> <img src='G_9.jpg' height='90'>","null","Animation0","",""
"","","","","","html-keyboard-response","51","118978","0.0-12.0","16","1","2025-02-02 03:07:54","bc01a2b6f61d06f6604adb8657495020","65.128.101.158","Mozilla/5.0 (Windows NT 10.0; Win64; x64; rv:134.0) Gecko/20100101 Firefox/134.0","","Firefox","134.0","Windows","10.0","https://app.prolific.com/","en-US,en;q=0.5","6685bda9fe63421c0f632414","679edb085803f58d6bbd31ca","679ee1811e5ee26e9178f22b","","null","<img  src='G_7.jpg' height='90'> <img id='selected'  src='G_1.jpg' height='90'> <img src='G_3.jpg' height='90'> <img src='G_5.jpg' height='90'> <img src='G_9.jpg' height='90'>","null","Animation0","",""
"","","","","","html-keyboard-response","52","119495","0.0-13.0","16","1","2025-02-02 03:07:54","bc01a2b6f61d06f6604adb8657495020","65.128.101.158","Mozilla/5.0 (Windows NT 10.0; Win64; x64; rv:134.0) Gecko/20100101 Firefox/134.0","","Firefox","134.0","Windows","10.0","https://app.prolific.com/","en-US,en;q=0.5","6685bda9fe63421c0f632414","679edb085803f58d6bbd31ca","679ee1811e5ee26e9178f22b","","null","<img  src='G_7.jpg' height='90'> <img id='selected'  src='G_1.jpg' height='90'> <img id='selected' src='G_3.jpg' height='90'> <img src='G_5.jpg' height='90'> <img src='G_9.jpg' height='90'>","null","Animation0","",""
"","","","","","html-keyboard-response","53","120010","0.0-14.0","16","1","2025-02-02 03:07:54","bc01a2b6f61d06f6604adb8657495020","65.128.101.158","Mozilla/5.0 (Windows NT 10.0; Win64; x64; rv:134.0) Gecko/20100101 Firefox/134.0","","Firefox","134.0","Windows","10.0","https://app.prolific.com/","en-US,en;q=0.5","6685bda9fe63421c0f632414","679edb085803f58d6bbd31ca","679ee1811e5ee26e9178f22b","","null","<img  src='G_7.jpg' height='90'> <img id='selected'  src='G_1.jpg' height='90'> <img id='selected' src='G_3.jpg' height='90'> <img src='G_5.jpg' height='90'> <img src='G_9.jpg' height='90'>","null","Animation0","",""
"","","","","","html-keyboard-response","54","120319","0.0-15.0","16","1","2025-02-02 03:07:54","bc01a2b6f61d06f6604adb8657495020","65.128.101.158","Mozilla/5.0 (Windows NT 10.0; Win64; x64; rv:134.0) Gecko/20100101 Firefox/134.0","","Firefox","134.0","Windows","10.0","https://app.prolific.com/","en-US,en;q=0.5","6685bda9fe63421c0f632414","679edb085803f58d6bbd31ca","679ee1811e5ee26e9178f22b","","null","<img  src='G_7.jpg' height='90'> <img   src='G_1.jpg' height='90'> <img  src='G_3.jpg' height='90'> <img src='G_5.jpg' height='90'> <img src='G_9.jpg' height='90'>","null","Animation0","",""
"","","","","","html-keyboard-response","55","120836","0.0-16.0","16","1","2025-02-02 03:07:54","bc01a2b6f61d06f6604adb8657495020","65.128.101.158","Mozilla/5.0 (Windows NT 10.0; Win64; x64; rv:134.0) Gecko/20100101 Firefox/134.0","","Firefox","134.0","Windows","10.0","https://app.prolific.com/","en-US,en;q=0.5","6685bda9fe63421c0f632414","679edb085803f58d6bbd31ca","679ee1811e5ee26e9178f22b","","null","<img  src='G_7.jpg' height='90'> <img   src='G_1.jpg' height='90'> <img id='selected'  src='G_3.jpg' height='90'> <img src='G_5.jpg' height='90'> <img src='G_9.jpg' height='90'>","null","Animation0","",""
"","","","","","html-keyboard-response","56","121353","0.0-17.0","16","1","2025-02-02 03:07:54","bc01a2b6f61d06f6604adb8657495020","65.128.101.158","Mozilla/5.0 (Windows NT 10.0; Win64; x64; rv:134.0) Gecko/20100101 Firefox/134.0","","Firefox","134.0","Windows","10.0","https://app.prolific.com/","en-US,en;q=0.5","6685bda9fe63421c0f632414","679edb085803f58d6bbd31ca","679ee1811e5ee26e9178f22b","","null","<img  src='G_7.jpg' height='90'> <img   src='G_1.jpg' height='90'> <img id='selected'  src='G_3.jpg' height='90'> <img id='selected' src='G_5.jpg' height='90'> <img src='G_9.jpg' height='90'>","null","Animation0","",""
"","","","","","html-keyboard-response","57","121867","0.0-18.0","16","1","2025-02-02 03:07:54","bc01a2b6f61d06f6604adb8657495020","65.128.101.158","Mozilla/5.0 (Windows NT 10.0; Win64; x64; rv:134.0) Gecko/20100101 Firefox/134.0","","Firefox","134.0","Windows","10.0","https://app.prolific.com/","en-US,en;q=0.5","6685bda9fe63421c0f632414","679edb085803f58d6bbd31ca","679ee1811e5ee26e9178f22b","","null","<img  src='G_7.jpg' height='90'> <img   src='G_1.jpg' height='90'> <img id='selected'  src='G_3.jpg' height='90'> <img id='selected' src='G_5.jpg' height='90'> <img src='G_9.jpg' height='90'>","null","Animation0","",""
"","","","","","html-keyboard-response","58","122178","0.0-19.0","16","1","2025-02-02 03:07:54","bc01a2b6f61d06f6604adb8657495020","65.128.101.158","Mozilla/5.0 (Windows NT 10.0; Win64; x64; rv:134.0) Gecko/20100101 Firefox/134.0","","Firefox","134.0","Windows","10.0","https://app.prolific.com/","en-US,en;q=0.5","6685bda9fe63421c0f632414","679edb085803f58d6bbd31ca","679ee1811e5ee26e9178f22b","","null","<img  src='G_7.jpg' height='90'> <img   src='G_1.jpg' height='90'> <img   src='G_3.jpg' height='90'> <img  src='G_5.jpg' height='90'> <img src='G_9.jpg' height='90'>","null","Animation0","",""
"","","","","","html-keyboard-response","59","122695","0.0-20.0","16","1","2025-02-02 03:07:54","bc01a2b6f61d06f6604adb8657495020","65.128.101.158","Mozilla/5.0 (Windows NT 10.0; Win64; x64; rv:134.0) Gecko/20100101 Firefox/134.0","","Firefox","134.0","Windows","10.0","https://app.prolific.com/","en-US,en;q=0.5","6685bda9fe63421c0f632414","679edb085803f58d6bbd31ca","679ee1811e5ee26e9178f22b","","null","<img  src='G_7.jpg' height='90'> <img   src='G_1.jpg' height='90'> <img   src='G_3.jpg' height='90'> <img id='selected'  src='G_5.jpg' height='90'> <img src='G_9.jpg' height='90'>","null","Animation0","",""
"","","","","","html-keyboard-response","60","123211","0.0-21.0","16","1","2025-02-02 03:07:54","bc01a2b6f61d06f6604adb8657495020","65.128.101.158","Mozilla/5.0 (Windows NT 10.0; Win64; x64; rv:134.0) Gecko/20100101 Firefox/134.0","","Firefox","134.0","Windows","10.0","https://app.prolific.com/","en-US,en;q=0.5","6685bda9fe63421c0f632414","679edb085803f58d6bbd31ca","679ee1811e5ee26e9178f22b","","null","<img  src='G_7.jpg' height='90'> <img   src='G_1.jpg' height='90'> <img   src='G_3.jpg' height='90'> <img id='selected'  src='G_5.jpg' height='90'> <img id='selected' src='G_9.jpg' height='90'>","null","Animation0","",""
"","","","","","html-keyboard-response","61","123728","0.0-22.0","16","1","2025-02-02 03:07:54","bc01a2b6f61d06f6604adb8657495020","65.128.101.158","Mozilla/5.0 (Windows NT 10.0; Win64; x64; rv:134.0) Gecko/20100101 Firefox/134.0","","Firefox","134.0","Windows","10.0","https://app.prolific.com/","en-US,en;q=0.5","6685bda9fe63421c0f632414","679edb085803f58d6bbd31ca","679ee1811e5ee26e9178f22b","","null","<img  src='G_7.jpg' height='90'> <img   src='G_1.jpg' height='90'> <img   src='G_3.jpg' height='90'> <img id='selected'  src='G_5.jpg' height='90'> <img id='selected' src='G_9.jpg' height='90'>","null","Animation0","",""
"","","","","","html-keyboard-response","62","124044","0.0-23.0","16","1","2025-02-02 03:07:54","bc01a2b6f61d06f6604adb8657495020","65.128.101.158","Mozilla/5.0 (Windows NT 10.0; Win64; x64; rv:134.0) Gecko/20100101 Firefox/134.0","","Firefox","134.0","Windows","10.0","https://app.prolific.com/","en-US,en;q=0.5","6685bda9fe63421c0f632414","679edb085803f58d6bbd31ca","679ee1811e5ee26e9178f22b","","null","<img  src='G_7.jpg' height='90'> <img   src='G_1.jpg' height='90'> <img   src='G_3.jpg' height='90'> <img   src='G_5.jpg' height='90'> <img  src='G_9.jpg' height='90'>","null","Animation0","",""
"","","","","","html-keyboard-response","63","127140","0.0-24.0","16","1","2025-02-02 03:07:54","bc01a2b6f61d06f6604adb8657495020","65.128.101.158","Mozilla/5.0 (Windows NT 10.0; Win64; x64; rv:134.0) Gecko/20100101 Firefox/134.0","","Firefox","134.0","Windows","10.0","https://app.prolific.com/","en-US,en;q=0.5","6685bda9fe63421c0f632414","679edb085803f58d6bbd31ca","679ee1811e5ee26e9178f22b","","3093","[""Did you notice any patterns? <br><br>Press Enter to watch that example again and follow the steps of Omgne Sort.""]","enter","","",""
"","","","","","html-button-response","64","127547","0.0-25.0","16","1","2025-02-02 03:07:54","bc01a2b6f61d06f6604adb8657495020","65.128.101.158","Mozilla/5.0 (Windows NT 10.0; Win64; x64; rv:134.0) Gecko/20100101 Firefox/134.0","","Firefox","134.0","Windows","10.0","https://app.prolific.com/","en-US,en;q=0.5","6685bda9fe63421c0f632414","679edb085803f58d6bbd31ca","679ee1811e5ee26e9178f22b","","null","<img id='selected' src='G_1.jpg' height='90'> <img src='G_7.jpg' height='90'> <img src='G_3.jpg' height='90'> <img src='G_5.jpg' height='90'> <img src='G_9.jpg' height='90'>","null","Learning example 0","",""
"","","","","","html-button-response","65","127860","0.0-26.0","16","1","2025-02-02 03:07:54","bc01a2b6f61d06f6604adb8657495020","65.128.101.158","Mozilla/5.0 (Windows NT 10.0; Win64; x64; rv:134.0) Gecko/20100101 Firefox/134.0","","Firefox","134.0","Windows","10.0","https://app.prolific.com/","en-US,en;q=0.5","6685bda9fe63421c0f632414","679edb085803f58d6bbd31ca","679ee1811e5ee26e9178f22b","","null","<img id='selected' src='G_1.jpg' height='90'> <img id='selected' src='G_7.jpg' height='90'> <img src='G_3.jpg' height='90'> <img src='G_5.jpg' height='90'> <img src='G_9.jpg' height='90'>","null","Learning example 0","",""
"","","","","","html-button-response","66","128170","0.0-27.0","16","1","2025-02-02 03:07:54","bc01a2b6f61d06f6604adb8657495020","65.128.101.158","Mozilla/5.0 (Windows NT 10.0; Win64; x64; rv:134.0) Gecko/20100101 Firefox/134.0","","Firefox","134.0","Windows","10.0","https://app.prolific.com/","en-US,en;q=0.5","6685bda9fe63421c0f632414","679edb085803f58d6bbd31ca","679ee1811e5ee26e9178f22b","","null","<img id='swapped' src='G_7.jpg' height='90'> <img id='swapped' src='G_1.jpg' height='90'> <img src='G_3.jpg' height='90'> <img src='G_5.jpg' height='90'> <img src='G_9.jpg' height='90'>","null","Learning example 0","",""
"","","","","","html-button-response","67","138112","0.0-28.0-0.0-0.0","16","1","2025-02-02 03:07:54","bc01a2b6f61d06f6604adb8657495020","65.128.101.158","Mozilla/5.0 (Windows NT 10.0; Win64; x64; rv:134.0) Gecko/20100101 Firefox/134.0","","Firefox","134.0","Windows","10.0","https://app.prolific.com/","en-US,en;q=0.5","6685bda9fe63421c0f632414","679edb085803f58d6bbd31ca","679ee1811e5ee26e9178f22b","","9931","<img id='swapped' src='G_7.jpg' height='90'> <img id='swapped' src='G_1.jpg' height='90'> <img src='G_3.jpg' height='90'> <img src='G_5.jpg' height='90'> <img src='G_9.jpg' height='90'>","0","Learning example 0","",""
"","","","","","html-button-response","68","138796","0.0-28.1-0.1-0.1","16","1","2025-02-02 03:07:54","bc01a2b6f61d06f6604adb8657495020","65.128.101.158","Mozilla/5.0 (Windows NT 10.0; Win64; x64; rv:134.0) Gecko/20100101 Firefox/134.0","","Firefox","134.0","Windows","10.0","https://app.prolific.com/","en-US,en;q=0.5","6685bda9fe63421c0f632414","679edb085803f58d6bbd31ca","679ee1811e5ee26e9178f22b","","676","<img id='swapped' src='G_7.jpg' height='90'> <img id='swapped' src='G_1.jpg' height='90'> <img src='G_3.jpg' height='90'> <img src='G_5.jpg' height='90'> <img src='G_9.jpg' height='90'>","1","Learning example 0","",""
"","","","","","html-button-response","69","139009","0.0-29.0","16","1","2025-02-02 03:07:54","bc01a2b6f61d06f6604adb8657495020","65.128.101.158","Mozilla/5.0 (Windows NT 10.0; Win64; x64; rv:134.0) Gecko/20100101 Firefox/134.0","","Firefox","134.0","Windows","10.0","https://app.prolific.com/","en-US,en;q=0.5","6685bda9fe63421c0f632414","679edb085803f58d6bbd31ca","679ee1811e5ee26e9178f22b","","null","<img  src='G_7.jpg' height='90'> <img  src='G_1.jpg' height='90'> <img src='G_3.jpg' height='90'> <img src='G_5.jpg' height='90'> <img src='G_9.jpg' height='90'>","null","Learning example 0","",""
"","","","","","html-button-response","70","139414","0.0-30.0","16","1","2025-02-02 03:07:54","bc01a2b6f61d06f6604adb8657495020","65.128.101.158","Mozilla/5.0 (Windows NT 10.0; Win64; x64; rv:134.0) Gecko/20100101 Firefox/134.0","","Firefox","134.0","Windows","10.0","https://app.prolific.com/","en-US,en;q=0.5","6685bda9fe63421c0f632414","679edb085803f58d6bbd31ca","679ee1811e5ee26e9178f22b","","null","<img  src='G_7.jpg' height='90'> <img id='selected'  src='G_1.jpg' height='90'> <img src='G_3.jpg' height='90'> <img src='G_5.jpg' height='90'> <img src='G_9.jpg' height='90'>","null","Learning example 0","",""
"","","","","","html-button-response","71","139759","0.0-31.0","16","1","2025-02-02 03:07:54","bc01a2b6f61d06f6604adb8657495020","65.128.101.158","Mozilla/5.0 (Windows NT 10.0; Win64; x64; rv:134.0) Gecko/20100101 Firefox/134.0","","Firefox","134.0","Windows","10.0","https://app.prolific.com/","en-US,en;q=0.5","6685bda9fe63421c0f632414","679edb085803f58d6bbd31ca","679ee1811e5ee26e9178f22b","","null","<img  src='G_7.jpg' height='90'> <img id='selected'  src='G_1.jpg' height='90'> <img id='selected' src='G_3.jpg' height='90'> <img src='G_5.jpg' height='90'> <img src='G_9.jpg' height='90'>","null","Learning example 0","",""
"","","","","","html-button-response","72","140074","0.0-32.0","16","1","2025-02-02 03:07:54","bc01a2b6f61d06f6604adb8657495020","65.128.101.158","Mozilla/5.0 (Windows NT 10.0; Win64; x64; rv:134.0) Gecko/20100101 Firefox/134.0","","Firefox","134.0","Windows","10.0","https://app.prolific.com/","en-US,en;q=0.5","6685bda9fe63421c0f632414","679edb085803f58d6bbd31ca","679ee1811e5ee26e9178f22b","","null","<img  src='G_7.jpg' height='90'> <img id='selected'  src='G_1.jpg' height='90'> <img id='selected' src='G_3.jpg' height='90'> <img src='G_5.jpg' height='90'> <img src='G_9.jpg' height='90'>","null","Learning example 0","",""
"","","","","","html-button-response","73","141045","0.0-33.0-0.0-0.0","16","1","2025-02-02 03:07:54","bc01a2b6f61d06f6604adb8657495020","65.128.101.158","Mozilla/5.0 (Windows NT 10.0; Win64; x64; rv:134.0) Gecko/20100101 Firefox/134.0","","Firefox","134.0","Windows","10.0","https://app.prolific.com/","en-US,en;q=0.5","6685bda9fe63421c0f632414","679edb085803f58d6bbd31ca","679ee1811e5ee26e9178f22b","","969","<img  src='G_7.jpg' height='90'> <img id='selected'  src='G_1.jpg' height='90'> <img id='selected' src='G_3.jpg' height='90'> <img src='G_5.jpg' height='90'> <img src='G_9.jpg' height='90'>","1","Learning example 0","",""
"","","","","","html-button-response","74","141521","0.0-33.1-0.1-0.1","16","1","2025-02-02 03:07:54","bc01a2b6f61d06f6604adb8657495020","65.128.101.158","Mozilla/5.0 (Windows NT 10.0; Win64; x64; rv:134.0) Gecko/20100101 Firefox/134.0","","Firefox","134.0","Windows","10.0","https://app.prolific.com/","en-US,en;q=0.5","6685bda9fe63421c0f632414","679edb085803f58d6bbd31ca","679ee1811e5ee26e9178f22b","","473","<img  src='G_7.jpg' height='90'> <img id='selected'  src='G_1.jpg' height='90'> <img id='selected' src='G_3.jpg' height='90'> <img src='G_5.jpg' height='90'> <img src='G_9.jpg' height='90'>","2","Learning example 0","",""
"","","","","","html-button-response","75","141728","0.0-34.0","16","1","2025-02-02 03:07:54","bc01a2b6f61d06f6604adb8657495020","65.128.101.158","Mozilla/5.0 (Windows NT 10.0; Win64; x64; rv:134.0) Gecko/20100101 Firefox/134.0","","Firefox","134.0","Windows","10.0","https://app.prolific.com/","en-US,en;q=0.5","6685bda9fe63421c0f632414","679edb085803f58d6bbd31ca","679ee1811e5ee26e9178f22b","","null","<img  src='G_7.jpg' height='90'> <img   src='G_1.jpg' height='90'> <img  src='G_3.jpg' height='90'> <img src='G_5.jpg' height='90'> <img src='G_9.jpg' height='90'>","null","Learning example 0","",""
"","","","","","html-button-response","76","142137","0.0-35.0","16","1","2025-02-02 03:07:54","bc01a2b6f61d06f6604adb8657495020","65.128.101.158","Mozilla/5.0 (Windows NT 10.0; Win64; x64; rv:134.0) Gecko/20100101 Firefox/134.0","","Firefox","134.0","Windows","10.0","https://app.prolific.com/","en-US,en;q=0.5","6685bda9fe63421c0f632414","679edb085803f58d6bbd31ca","679ee1811e5ee26e9178f22b","","null","<img  src='G_7.jpg' height='90'> <img   src='G_1.jpg' height='90'> <img id='selected'  src='G_3.jpg' height='90'> <img src='G_5.jpg' height='90'> <img src='G_9.jpg' height='90'>","null","Learning example 0","",""
"","","","","","html-button-response","77","142468","0.0-36.0","16","1","2025-02-02 03:07:54","bc01a2b6f61d06f6604adb8657495020","65.128.101.158","Mozilla/5.0 (Windows NT 10.0; Win64; x64; rv:134.0) Gecko/20100101 Firefox/134.0","","Firefox","134.0","Windows","10.0","https://app.prolific.com/","en-US,en;q=0.5","6685bda9fe63421c0f632414","679edb085803f58d6bbd31ca","679ee1811e5ee26e9178f22b","","null","<img  src='G_7.jpg' height='90'> <img   src='G_1.jpg' height='90'> <img id='selected'  src='G_3.jpg' height='90'> <img id='selected' src='G_5.jpg' height='90'> <img src='G_9.jpg' height='90'>","null","Learning example 0","",""
"","","","","","html-button-response","78","142779","0.0-37.0","16","1","2025-02-02 03:07:54","bc01a2b6f61d06f6604adb8657495020","65.128.101.158","Mozilla/5.0 (Windows NT 10.0; Win64; x64; rv:134.0) Gecko/20100101 Firefox/134.0","","Firefox","134.0","Windows","10.0","https://app.prolific.com/","en-US,en;q=0.5","6685bda9fe63421c0f632414","679edb085803f58d6bbd31ca","679ee1811e5ee26e9178f22b","","null","<img  src='G_7.jpg' height='90'> <img   src='G_1.jpg' height='90'> <img id='selected'  src='G_3.jpg' height='90'> <img id='selected' src='G_5.jpg' height='90'> <img src='G_9.jpg' height='90'>","null","Learning example 0","",""
"","","","","","html-button-response","79","143561","0.0-38.0-0.0-0.0","16","1","2025-02-02 03:07:54","bc01a2b6f61d06f6604adb8657495020","65.128.101.158","Mozilla/5.0 (Windows NT 10.0; Win64; x64; rv:134.0) Gecko/20100101 Firefox/134.0","","Firefox","134.0","Windows","10.0","https://app.prolific.com/","en-US,en;q=0.5","6685bda9fe63421c0f632414","679edb085803f58d6bbd31ca","679ee1811e5ee26e9178f22b","","777","<img  src='G_7.jpg' height='90'> <img   src='G_1.jpg' height='90'> <img id='selected'  src='G_3.jpg' height='90'> <img id='selected' src='G_5.jpg' height='90'> <img src='G_9.jpg' height='90'>","2","Learning example 0","",""
"","","","","","html-button-response","80","144161","0.0-38.1-0.1-0.1","16","1","2025-02-02 03:07:54","bc01a2b6f61d06f6604adb8657495020","65.128.101.158","Mozilla/5.0 (Windows NT 10.0; Win64; x64; rv:134.0) Gecko/20100101 Firefox/134.0","","Firefox","134.0","Windows","10.0","https://app.prolific.com/","en-US,en;q=0.5","6685bda9fe63421c0f632414","679edb085803f58d6bbd31ca","679ee1811e5ee26e9178f22b","","597","<img  src='G_7.jpg' height='90'> <img   src='G_1.jpg' height='90'> <img id='selected'  src='G_3.jpg' height='90'> <img id='selected' src='G_5.jpg' height='90'> <img src='G_9.jpg' height='90'>","3","Learning example 0","",""
"","","","","","html-button-response","81","144379","0.0-39.0","16","1","2025-02-02 03:07:54","bc01a2b6f61d06f6604adb8657495020","65.128.101.158","Mozilla/5.0 (Windows NT 10.0; Win64; x64; rv:134.0) Gecko/20100101 Firefox/134.0","","Firefox","134.0","Windows","10.0","https://app.prolific.com/","en-US,en;q=0.5","6685bda9fe63421c0f632414","679edb085803f58d6bbd31ca","679ee1811e5ee26e9178f22b","","null","<img  src='G_7.jpg' height='90'> <img   src='G_1.jpg' height='90'> <img   src='G_3.jpg' height='90'> <img  src='G_5.jpg' height='90'> <img src='G_9.jpg' height='90'>","null","Learning example 0","",""
"","","","","","html-button-response","82","144802","0.0-40.0","16","1","2025-02-02 03:07:54","bc01a2b6f61d06f6604adb8657495020","65.128.101.158","Mozilla/5.0 (Windows NT 10.0; Win64; x64; rv:134.0) Gecko/20100101 Firefox/134.0","","Firefox","134.0","Windows","10.0","https://app.prolific.com/","en-US,en;q=0.5","6685bda9fe63421c0f632414","679edb085803f58d6bbd31ca","679ee1811e5ee26e9178f22b","","null","<img  src='G_7.jpg' height='90'> <img   src='G_1.jpg' height='90'> <img   src='G_3.jpg' height='90'> <img id='selected'  src='G_5.jpg' height='90'> <img src='G_9.jpg' height='90'>","null","Learning example 0","",""
"","","","","","html-button-response","83","145114","0.0-41.0","16","1","2025-02-02 03:07:54","bc01a2b6f61d06f6604adb8657495020","65.128.101.158","Mozilla/5.0 (Windows NT 10.0; Win64; x64; rv:134.0) Gecko/20100101 Firefox/134.0","","Firefox","134.0","Windows","10.0","https://app.prolific.com/","en-US,en;q=0.5","6685bda9fe63421c0f632414","679edb085803f58d6bbd31ca","679ee1811e5ee26e9178f22b","","null","<img  src='G_7.jpg' height='90'> <img   src='G_1.jpg' height='90'> <img   src='G_3.jpg' height='90'> <img id='selected'  src='G_5.jpg' height='90'> <img id='selected' src='G_9.jpg' height='90'>","null","Learning example 0","",""
"","","","","","html-button-response","84","145330","0.0-42.0","16","1","2025-02-02 03:07:54","bc01a2b6f61d06f6604adb8657495020","65.128.101.158","Mozilla/5.0 (Windows NT 10.0; Win64; x64; rv:134.0) Gecko/20100101 Firefox/134.0","","Firefox","134.0","Windows","10.0","https://app.prolific.com/","en-US,en;q=0.5","6685bda9fe63421c0f632414","679edb085803f58d6bbd31ca","679ee1811e5ee26e9178f22b","","211","<img  src='G_7.jpg' height='90'> <img   src='G_1.jpg' height='90'> <img   src='G_3.jpg' height='90'> <img id='selected'  src='G_5.jpg' height='90'> <img id='selected' src='G_9.jpg' height='90'>","3","Learning example 0","",""
"","","","","","html-button-response","85","146707","0.0-43.0-0.0-0.0","16","1","2025-02-02 03:07:54","bc01a2b6f61d06f6604adb8657495020","65.128.101.158","Mozilla/5.0 (Windows NT 10.0; Win64; x64; rv:134.0) Gecko/20100101 Firefox/134.0","","Firefox","134.0","Windows","10.0","https://app.prolific.com/","en-US,en;q=0.5","6685bda9fe63421c0f632414","679edb085803f58d6bbd31ca","679ee1811e5ee26e9178f22b","","1374","<img  src='G_7.jpg' height='90'> <img   src='G_1.jpg' height='90'> <img   src='G_3.jpg' height='90'> <img id='selected'  src='G_5.jpg' height='90'> <img id='selected' src='G_9.jpg' height='90'>","4","Learning example 0","",""
"","","","","","html-button-response","86","146919","0.0-44.0","16","1","2025-02-02 03:07:54","bc01a2b6f61d06f6604adb8657495020","65.128.101.158","Mozilla/5.0 (Windows NT 10.0; Win64; x64; rv:134.0) Gecko/20100101 Firefox/134.0","","Firefox","134.0","Windows","10.0","https://app.prolific.com/","en-US,en;q=0.5","6685bda9fe63421c0f632414","679edb085803f58d6bbd31ca","679ee1811e5ee26e9178f22b","","null","<img  src='G_7.jpg' height='90'> <img   src='G_1.jpg' height='90'> <img   src='G_3.jpg' height='90'> <img   src='G_5.jpg' height='90'> <img  src='G_9.jpg' height='90'>","null","Learning example 0","",""
"","","","","","html-keyboard-response","87","156355","0.0-45.0","16","1","2025-02-02 03:07:54","bc01a2b6f61d06f6604adb8657495020","65.128.101.158","Mozilla/5.0 (Windows NT 10.0; Win64; x64; rv:134.0) Gecko/20100101 Firefox/134.0","","Firefox","134.0","Windows","10.0","https://app.prolific.com/","en-US,en;q=0.5","6685bda9fe63421c0f632414","679edb085803f58d6bbd31ca","679ee1811e5ee26e9178f22b","","9425","[""Final order was 1,2,3,4,5. The initial order was 2,1,3,4,5.<br>It took 1 swaps to sort it correctly with Omgne Sort. <br><br>Press Enter to continue.""]","enter","","",""
"","","","","","html-keyboard-response","88","158736","0.0-46.0","16","1","2025-02-02 03:07:54","bc01a2b6f61d06f6604adb8657495020","65.128.101.158","Mozilla/5.0 (Windows NT 10.0; Win64; x64; rv:134.0) Gecko/20100101 Firefox/134.0","","Firefox","134.0","Windows","10.0","https://app.prolific.com/","en-US,en;q=0.5","6685bda9fe63421c0f632414","679edb085803f58d6bbd31ca","679ee1811e5ee26e9178f22b","","2379","[""Example 2<br><br>You will watch Omnge Sort in action. Try to identify any patterns in the comparisons made by this method. <br><br>Press Enter to continue.""]","enter","","",""
"","","","","","html-keyboard-response","89","159242","0.0-47.0","16","1","2025-02-02 03:07:54","bc01a2b6f61d06f6604adb8657495020","65.128.101.158","Mozilla/5.0 (Windows NT 10.0; Win64; x64; rv:134.0) Gecko/20100101 Firefox/134.0","","Firefox","134.0","Windows","10.0","https://app.prolific.com/","en-US,en;q=0.5","6685bda9fe63421c0f632414","679edb085803f58d6bbd31ca","679ee1811e5ee26e9178f22b","","null","<img id='selected' src='G_1.jpg' height='90'> <img src='G_8.jpg' height='90'> <img src='G_4.jpg' height='90'> <img src='G_5.jpg' height='90'> <img src='G_2.jpg' height='90'> <img src='G_6.jpg' height='90'> <img src='G_3.jpg' height='90'> <img src='G_7.jpg' height='90'>","null","Animation1","",""
"","","","","","html-keyboard-response","90","159761","0.0-48.0","16","1","2025-02-02 03:07:54","bc01a2b6f61d06f6604adb8657495020","65.128.101.158","Mozilla/5.0 (Windows NT 10.0; Win64; x64; rv:134.0) Gecko/20100101 Firefox/134.0","","Firefox","134.0","Windows","10.0","https://app.prolific.com/","en-US,en;q=0.5","6685bda9fe63421c0f632414","679edb085803f58d6bbd31ca","679ee1811e5ee26e9178f22b","","null","<img id='selected' src='G_1.jpg' height='90'> <img id='selected' src='G_8.jpg' height='90'> <img src='G_4.jpg' height='90'> <img src='G_5.jpg' height='90'> <img src='G_2.jpg' height='90'> <img src='G_6.jpg' height='90'> <img src='G_3.jpg' height='90'> <img src='G_7.jpg' height='90'>","null","Animation1","",""
"","","","","","html-keyboard-response","91","160277","0.0-49.0","16","1","2025-02-02 03:07:54","bc01a2b6f61d06f6604adb8657495020","65.128.101.158","Mozilla/5.0 (Windows NT 10.0; Win64; x64; rv:134.0) Gecko/20100101 Firefox/134.0","","Firefox","134.0","Windows","10.0","https://app.prolific.com/","en-US,en;q=0.5","6685bda9fe63421c0f632414","679edb085803f58d6bbd31ca","679ee1811e5ee26e9178f22b","","null","<img id='selected' src='G_1.jpg' height='90'> <img id='selected' src='G_8.jpg' height='90'> <img src='G_4.jpg' height='90'> <img src='G_5.jpg' height='90'> <img src='G_2.jpg' height='90'> <img src='G_6.jpg' height='90'> <img src='G_3.jpg' height='90'> <img src='G_7.jpg' height='90'>","null","Animation1","",""
"","","","","","html-keyboard-response","92","160589","0.0-50.0","16","1","2025-02-02 03:07:54","bc01a2b6f61d06f6604adb8657495020","65.128.101.158","Mozilla/5.0 (Windows NT 10.0; Win64; x64; rv:134.0) Gecko/20100101 Firefox/134.0","","Firefox","134.0","Windows","10.0","https://app.prolific.com/","en-US,en;q=0.5","6685bda9fe63421c0f632414","679edb085803f58d6bbd31ca","679ee1811e5ee26e9178f22b","","null","<img  src='G_1.jpg' height='90'> <img  src='G_8.jpg' height='90'> <img src='G_4.jpg' height='90'> <img src='G_5.jpg' height='90'> <img src='G_2.jpg' height='90'> <img src='G_6.jpg' height='90'> <img src='G_3.jpg' height='90'> <img src='G_7.jpg' height='90'>","null","Animation1","",""
"","","","","","html-keyboard-response","93","161104","0.0-51.0","16","1","2025-02-02 03:07:54","bc01a2b6f61d06f6604adb8657495020","65.128.101.158","Mozilla/5.0 (Windows NT 10.0; Win64; x64; rv:134.0) Gecko/20100101 Firefox/134.0","","Firefox","134.0","Windows","10.0","https://app.prolific.com/","en-US,en;q=0.5","6685bda9fe63421c0f632414","679edb085803f58d6bbd31ca","679ee1811e5ee26e9178f22b","","null","<img  src='G_1.jpg' height='90'> <img id='selected'  src='G_8.jpg' height='90'> <img src='G_4.jpg' height='90'> <img src='G_5.jpg' height='90'> <img src='G_2.jpg' height='90'> <img src='G_6.jpg' height='90'> <img src='G_3.jpg' height='90'> <img src='G_7.jpg' height='90'>","null","Animation1","",""
"","","","","","html-keyboard-response","94","161620","0.0-52.0","16","1","2025-02-02 03:07:54","bc01a2b6f61d06f6604adb8657495020","65.128.101.158","Mozilla/5.0 (Windows NT 10.0; Win64; x64; rv:134.0) Gecko/20100101 Firefox/134.0","","Firefox","134.0","Windows","10.0","https://app.prolific.com/","en-US,en;q=0.5","6685bda9fe63421c0f632414","679edb085803f58d6bbd31ca","679ee1811e5ee26e9178f22b","","null","<img  src='G_1.jpg' height='90'> <img id='selected'  src='G_8.jpg' height='90'> <img id='selected' src='G_4.jpg' height='90'> <img src='G_5.jpg' height='90'> <img src='G_2.jpg' height='90'> <img src='G_6.jpg' height='90'> <img src='G_3.jpg' height='90'> <img src='G_7.jpg' height='90'>","null","Animation1","",""
"","","","","","html-keyboard-response","95","162136","0.0-53.0","16","1","2025-02-02 03:07:54","bc01a2b6f61d06f6604adb8657495020","65.128.101.158","Mozilla/5.0 (Windows NT 10.0; Win64; x64; rv:134.0) Gecko/20100101 Firefox/134.0","","Firefox","134.0","Windows","10.0","https://app.prolific.com/","en-US,en;q=0.5","6685bda9fe63421c0f632414","679edb085803f58d6bbd31ca","679ee1811e5ee26e9178f22b","","null","<img  src='G_1.jpg' height='90'> <img id='swapped' src='G_4.jpg' height='90'> <img id='swapped'  src='G_8.jpg' height='90'> <img src='G_5.jpg' height='90'> <img src='G_2.jpg' height='90'> <img src='G_6.jpg' height='90'> <img src='G_3.jpg' height='90'> <img src='G_7.jpg' height='90'>","null","Animation1","",""
"","","","","","html-keyboard-response","96","162448","0.0-54.0","16","1","2025-02-02 03:07:54","bc01a2b6f61d06f6604adb8657495020","65.128.101.158","Mozilla/5.0 (Windows NT 10.0; Win64; x64; rv:134.0) Gecko/20100101 Firefox/134.0","","Firefox","134.0","Windows","10.0","https://app.prolific.com/","en-US,en;q=0.5","6685bda9fe63421c0f632414","679edb085803f58d6bbd31ca","679ee1811e5ee26e9178f22b","","null","<img  src='G_1.jpg' height='90'> <img  src='G_4.jpg' height='90'> <img   src='G_8.jpg' height='90'> <img src='G_5.jpg' height='90'> <img src='G_2.jpg' height='90'> <img src='G_6.jpg' height='90'> <img src='G_3.jpg' height='90'> <img src='G_7.jpg' height='90'>","null","Animation1","",""
"","","","","","html-keyboard-response","97","162964","0.0-55.0","16","1","2025-02-02 03:07:54","bc01a2b6f61d06f6604adb8657495020","65.128.101.158","Mozilla/5.0 (Windows NT 10.0; Win64; x64; rv:134.0) Gecko/20100101 Firefox/134.0","","Firefox","134.0","Windows","10.0","https://app.prolific.com/","en-US,en;q=0.5","6685bda9fe63421c0f632414","679edb085803f58d6bbd31ca","679ee1811e5ee26e9178f22b","","null","<img id='selected'  src='G_1.jpg' height='90'> <img  src='G_4.jpg' height='90'> <img   src='G_8.jpg' height='90'> <img src='G_5.jpg' height='90'> <img src='G_2.jpg' height='90'> <img src='G_6.jpg' height='90'> <img src='G_3.jpg' height='90'> <img src='G_7.jpg' height='90'>","null","Animation1","",""
"","","","","","html-keyboard-response","98","163481","0.0-56.0","16","1","2025-02-02 03:07:54","bc01a2b6f61d06f6604adb8657495020","65.128.101.158","Mozilla/5.0 (Windows NT 10.0; Win64; x64; rv:134.0) Gecko/20100101 Firefox/134.0","","Firefox","134.0","Windows","10.0","https://app.prolific.com/","en-US,en;q=0.5","6685bda9fe63421c0f632414","679edb085803f58d6bbd31ca","679ee1811e5ee26e9178f22b","","null","<img id='selected'  src='G_1.jpg' height='90'> <img id='selected'  src='G_4.jpg' height='90'> <img   src='G_8.jpg' height='90'> <img src='G_5.jpg' height='90'> <img src='G_2.jpg' height='90'> <img src='G_6.jpg' height='90'> <img src='G_3.jpg' height='90'> <img src='G_7.jpg' height='90'>","null","Animation1","",""
"","","","","","html-keyboard-response","99","163997","0.0-57.0","16","1","2025-02-02 03:07:54","bc01a2b6f61d06f6604adb8657495020","65.128.101.158","Mozilla/5.0 (Windows NT 10.0; Win64; x64; rv:134.0) Gecko/20100101 Firefox/134.0","","Firefox","134.0","Windows","10.0","https://app.prolific.com/","en-US,en;q=0.5","6685bda9fe63421c0f632414","679edb085803f58d6bbd31ca","679ee1811e5ee26e9178f22b","","null","<img id='swapped'  src='G_4.jpg' height='90'> <img id='swapped'  src='G_1.jpg' height='90'> <img   src='G_8.jpg' height='90'> <img src='G_5.jpg' height='90'> <img src='G_2.jpg' height='90'> <img src='G_6.jpg' height='90'> <img src='G_3.jpg' height='90'> <img src='G_7.jpg' height='90'>","null","Animation1","",""
"","","","","","html-keyboard-response","100","164309","0.0-58.0","16","1","2025-02-02 03:07:54","bc01a2b6f61d06f6604adb8657495020","65.128.101.158","Mozilla/5.0 (Windows NT 10.0; Win64; x64; rv:134.0) Gecko/20100101 Firefox/134.0","","Firefox","134.0","Windows","10.0","https://app.prolific.com/","en-US,en;q=0.5","6685bda9fe63421c0f632414","679edb085803f58d6bbd31ca","679ee1811e5ee26e9178f22b","","null","<img   src='G_4.jpg' height='90'> <img   src='G_1.jpg' height='90'> <img   src='G_8.jpg' height='90'> <img src='G_5.jpg' height='90'> <img src='G_2.jpg' height='90'> <img src='G_6.jpg' height='90'> <img src='G_3.jpg' height='90'> <img src='G_7.jpg' height='90'>","null","Animation1","",""
"","","","","","html-keyboard-response","101","164826","0.0-59.0","16","1","2025-02-02 03:07:54","bc01a2b6f61d06f6604adb8657495020","65.128.101.158","Mozilla/5.0 (Windows NT 10.0; Win64; x64; rv:134.0) Gecko/20100101 Firefox/134.0","","Firefox","134.0","Windows","10.0","https://app.prolific.com/","en-US,en;q=0.5","6685bda9fe63421c0f632414","679edb085803f58d6bbd31ca","679ee1811e5ee26e9178f22b","","null","<img   src='G_4.jpg' height='90'> <img   src='G_1.jpg' height='90'> <img id='selected'   src='G_8.jpg' height='90'> <img src='G_5.jpg' height='90'> <img src='G_2.jpg' height='90'> <img src='G_6.jpg' height='90'> <img src='G_3.jpg' height='90'> <img src='G_7.jpg' height='90'>","null","Animation1","",""
"","","","","","html-keyboard-response","102","165332","0.0-60.0","16","1","2025-02-02 03:07:54","bc01a2b6f61d06f6604adb8657495020","65.128.101.158","Mozilla/5.0 (Windows NT 10.0; Win64; x64; rv:134.0) Gecko/20100101 Firefox/134.0","","Firefox","134.0","Windows","10.0","https://app.prolific.com/","en-US,en;q=0.5","6685bda9fe63421c0f632414","679edb085803f58d6bbd31ca","679ee1811e5ee26e9178f22b","","null","<img   src='G_4.jpg' height='90'> <img   src='G_1.jpg' height='90'> <img id='selected'   src='G_8.jpg' height='90'> <img id='selected' src='G_5.jpg' height='90'> <img src='G_2.jpg' height='90'> <img src='G_6.jpg' height='90'> <img src='G_3.jpg' height='90'> <img src='G_7.jpg' height='90'>","null","Animation1","",""
"","","","","","html-keyboard-response","103","165834","0.0-61.0","16","1","2025-02-02 03:07:54","bc01a2b6f61d06f6604adb8657495020","65.128.101.158","Mozilla/5.0 (Windows NT 10.0; Win64; x64; rv:134.0) Gecko/20100101 Firefox/134.0","","Firefox","134.0","Windows","10.0","https://app.prolific.com/","en-US,en;q=0.5","6685bda9fe63421c0f632414","679edb085803f58d6bbd31ca","679ee1811e5ee26e9178f22b","","null","<img   src='G_4.jpg' height='90'> <img   src='G_1.jpg' height='90'> <img id='swapped' src='G_5.jpg' height='90'> <img id='swapped'   src='G_8.jpg' height='90'> <img src='G_2.jpg' height='90'> <img src='G_6.jpg' height='90'> <img src='G_3.jpg' height='90'> <img src='G_7.jpg' height='90'>","null","Animation1","",""
"","","","","","html-keyboard-response","104","166150","0.0-62.0","16","1","2025-02-02 03:07:54","bc01a2b6f61d06f6604adb8657495020","65.128.101.158","Mozilla/5.0 (Windows NT 10.0; Win64; x64; rv:134.0) Gecko/20100101 Firefox/134.0","","Firefox","134.0","Windows","10.0","https://app.prolific.com/","en-US,en;q=0.5","6685bda9fe63421c0f632414","679edb085803f58d6bbd31ca","679ee1811e5ee26e9178f22b","","null","<img   src='G_4.jpg' height='90'> <img   src='G_1.jpg' height='90'> <img  src='G_5.jpg' height='90'> <img    src='G_8.jpg' height='90'> <img src='G_2.jpg' height='90'> <img src='G_6.jpg' height='90'> <img src='G_3.jpg' height='90'> <img src='G_7.jpg' height='90'>","null","Animation1","",""
"","","","","","html-keyboard-response","105","166666","0.0-63.0","16","1","2025-02-02 03:07:54","bc01a2b6f61d06f6604adb8657495020","65.128.101.158","Mozilla/5.0 (Windows NT 10.0; Win64; x64; rv:134.0) Gecko/20100101 Firefox/134.0","","Firefox","134.0","Windows","10.0","https://app.prolific.com/","en-US,en;q=0.5","6685bda9fe63421c0f632414","679edb085803f58d6bbd31ca","679ee1811e5ee26e9178f22b","","null","<img   src='G_4.jpg' height='90'> <img id='selected'   src='G_1.jpg' height='90'> <img  src='G_5.jpg' height='90'> <img    src='G_8.jpg' height='90'> <img src='G_2.jpg' height='90'> <img src='G_6.jpg' height='90'> <img src='G_3.jpg' height='90'> <img src='G_7.jpg' height='90'>","null","Animation1","",""
"","","","","","html-keyboard-response","106","167183","0.0-64.0","16","1","2025-02-02 03:07:54","bc01a2b6f61d06f6604adb8657495020","65.128.101.158","Mozilla/5.0 (Windows NT 10.0; Win64; x64; rv:134.0) Gecko/20100101 Firefox/134.0","","Firefox","134.0","Windows","10.0","https://app.prolific.com/","en-US,en;q=0.5","6685bda9fe63421c0f632414","679edb085803f58d6bbd31ca","679ee1811e5ee26e9178f22b","","null","<img   src='G_4.jpg' height='90'> <img id='selected'   src='G_1.jpg' height='90'> <img id='selected'  src='G_5.jpg' height='90'> <img    src='G_8.jpg' height='90'> <img src='G_2.jpg' height='90'> <img src='G_6.jpg' height='90'> <img src='G_3.jpg' height='90'> <img src='G_7.jpg' height='90'>","null","Animation1","",""
"","","","","","html-keyboard-response","107","167702","0.0-65.0","16","1","2025-02-02 03:07:54","bc01a2b6f61d06f6604adb8657495020","65.128.101.158","Mozilla/5.0 (Windows NT 10.0; Win64; x64; rv:134.0) Gecko/20100101 Firefox/134.0","","Firefox","134.0","Windows","10.0","https://app.prolific.com/","en-US,en;q=0.5","6685bda9fe63421c0f632414","679edb085803f58d6bbd31ca","679ee1811e5ee26e9178f22b","","null","<img   src='G_4.jpg' height='90'> <img id='swapped'  src='G_5.jpg' height='90'> <img id='swapped'   src='G_1.jpg' height='90'> <img    src='G_8.jpg' height='90'> <img src='G_2.jpg' height='90'> <img src='G_6.jpg' height='90'> <img src='G_3.jpg' height='90'> <img src='G_7.jpg' height='90'>","null","Animation1","",""
"","","","","","html-keyboard-response","108","168015","0.0-66.0","16","1","2025-02-02 03:07:54","bc01a2b6f61d06f6604adb8657495020","65.128.101.158","Mozilla/5.0 (Windows NT 10.0; Win64; x64; rv:134.0) Gecko/20100101 Firefox/134.0","","Firefox","134.0","Windows","10.0","https://app.prolific.com/","en-US,en;q=0.5","6685bda9fe63421c0f632414","679edb085803f58d6bbd31ca","679ee1811e5ee26e9178f22b","","null","<img   src='G_4.jpg' height='90'> <img   src='G_5.jpg' height='90'> <img    src='G_1.jpg' height='90'> <img    src='G_8.jpg' height='90'> <img src='G_2.jpg' height='90'> <img src='G_6.jpg' height='90'> <img src='G_3.jpg' height='90'> <img src='G_7.jpg' height='90'>","null","Animation1","",""
"","","","","","html-keyboard-response","109","168533","0.0-67.0","16","1","2025-02-02 03:07:54","bc01a2b6f61d06f6604adb8657495020","65.128.101.158","Mozilla/5.0 (Windows NT 10.0; Win64; x64; rv:134.0) Gecko/20100101 Firefox/134.0","","Firefox","134.0","Windows","10.0","https://app.prolific.com/","en-US,en;q=0.5","6685bda9fe63421c0f632414","679edb085803f58d6bbd31ca","679ee1811e5ee26e9178f22b","","null","<img id='selected'   src='G_4.jpg' height='90'> <img   src='G_5.jpg' height='90'> <img    src='G_1.jpg' height='90'> <img    src='G_8.jpg' height='90'> <img src='G_2.jpg' height='90'> <img src='G_6.jpg' height='90'> <img src='G_3.jpg' height='90'> <img src='G_7.jpg' height='90'>","null","Animation1","",""
"","","","","","html-keyboard-response","110","169047","0.0-68.0","16","1","2025-02-02 03:07:54","bc01a2b6f61d06f6604adb8657495020","65.128.101.158","Mozilla/5.0 (Windows NT 10.0; Win64; x64; rv:134.0) Gecko/20100101 Firefox/134.0","","Firefox","134.0","Windows","10.0","https://app.prolific.com/","en-US,en;q=0.5","6685bda9fe63421c0f632414","679edb085803f58d6bbd31ca","679ee1811e5ee26e9178f22b","","null","<img id='selected'   src='G_4.jpg' height='90'> <img id='selected'   src='G_5.jpg' height='90'> <img    src='G_1.jpg' height='90'> <img    src='G_8.jpg' height='90'> <img src='G_2.jpg' height='90'> <img src='G_6.jpg' height='90'> <img src='G_3.jpg' height='90'> <img src='G_7.jpg' height='90'>","null","Animation1","",""
"","","","","","html-keyboard-response","111","169561","0.0-69.0","16","1","2025-02-02 03:07:54","bc01a2b6f61d06f6604adb8657495020","65.128.101.158","Mozilla/5.0 (Windows NT 10.0; Win64; x64; rv:134.0) Gecko/20100101 Firefox/134.0","","Firefox","134.0","Windows","10.0","https://app.prolific.com/","en-US,en;q=0.5","6685bda9fe63421c0f632414","679edb085803f58d6bbd31ca","679ee1811e5ee26e9178f22b","","null","<img id='swapped'   src='G_5.jpg' height='90'> <img id='swapped'   src='G_4.jpg' height='90'> <img    src='G_1.jpg' height='90'> <img    src='G_8.jpg' height='90'> <img src='G_2.jpg' height='90'> <img src='G_6.jpg' height='90'> <img src='G_3.jpg' height='90'> <img src='G_7.jpg' height='90'>","null","Animation1","",""
"","","","","","html-keyboard-response","112","169877","0.0-70.0","16","1","2025-02-02 03:07:54","bc01a2b6f61d06f6604adb8657495020","65.128.101.158","Mozilla/5.0 (Windows NT 10.0; Win64; x64; rv:134.0) Gecko/20100101 Firefox/134.0","","Firefox","134.0","Windows","10.0","https://app.prolific.com/","en-US,en;q=0.5","6685bda9fe63421c0f632414","679edb085803f58d6bbd31ca","679ee1811e5ee26e9178f22b","","null","<img    src='G_5.jpg' height='90'> <img    src='G_4.jpg' height='90'> <img    src='G_1.jpg' height='90'> <img    src='G_8.jpg' height='90'> <img src='G_2.jpg' height='90'> <img src='G_6.jpg' height='90'> <img src='G_3.jpg' height='90'> <img src='G_7.jpg' height='90'>","null","Animation1","",""
"","","","","","html-keyboard-response","113","170394","0.0-71.0","16","1","2025-02-02 03:07:54","bc01a2b6f61d06f6604adb8657495020","65.128.101.158","Mozilla/5.0 (Windows NT 10.0; Win64; x64; rv:134.0) Gecko/20100101 Firefox/134.0","","Firefox","134.0","Windows","10.0","https://app.prolific.com/","en-US,en;q=0.5","6685bda9fe63421c0f632414","679edb085803f58d6bbd31ca","679ee1811e5ee26e9178f22b","","null","<img    src='G_5.jpg' height='90'> <img    src='G_4.jpg' height='90'> <img    src='G_1.jpg' height='90'> <img id='selected'    src='G_8.jpg' height='90'> <img src='G_2.jpg' height='90'> <img src='G_6.jpg' height='90'> <img src='G_3.jpg' height='90'> <img src='G_7.jpg' height='90'>","null","Animation1","",""
"","","","","","html-keyboard-response","114","170899","0.0-72.0","16","1","2025-02-02 03:07:54","bc01a2b6f61d06f6604adb8657495020","65.128.101.158","Mozilla/5.0 (Windows NT 10.0; Win64; x64; rv:134.0) Gecko/20100101 Firefox/134.0","","Firefox","134.0","Windows","10.0","https://app.prolific.com/","en-US,en;q=0.5","6685bda9fe63421c0f632414","679edb085803f58d6bbd31ca","679ee1811e5ee26e9178f22b","","null","<img    src='G_5.jpg' height='90'> <img    src='G_4.jpg' height='90'> <img    src='G_1.jpg' height='90'> <img id='selected'    src='G_8.jpg' height='90'> <img id='selected' src='G_2.jpg' height='90'> <img src='G_6.jpg' height='90'> <img src='G_3.jpg' height='90'> <img src='G_7.jpg' height='90'>","null","Animation1","",""
"","","","","","html-keyboard-response","115","171415","0.0-73.0","16","1","2025-02-02 03:07:54","bc01a2b6f61d06f6604adb8657495020","65.128.101.158","Mozilla/5.0 (Windows NT 10.0; Win64; x64; rv:134.0) Gecko/20100101 Firefox/134.0","","Firefox","134.0","Windows","10.0","https://app.prolific.com/","en-US,en;q=0.5","6685bda9fe63421c0f632414","679edb085803f58d6bbd31ca","679ee1811e5ee26e9178f22b","","null","<img    src='G_5.jpg' height='90'> <img    src='G_4.jpg' height='90'> <img    src='G_1.jpg' height='90'> <img id='swapped' src='G_2.jpg' height='90'> <img id='swapped'    src='G_8.jpg' height='90'> <img src='G_6.jpg' height='90'> <img src='G_3.jpg' height='90'> <img src='G_7.jpg' height='90'>","null","Animation1","",""
"","","","","","html-keyboard-response","116","171730","0.0-74.0","16","1","2025-02-02 03:07:54","bc01a2b6f61d06f6604adb8657495020","65.128.101.158","Mozilla/5.0 (Windows NT 10.0; Win64; x64; rv:134.0) Gecko/20100101 Firefox/134.0","","Firefox","134.0","Windows","10.0","https://app.prolific.com/","en-US,en;q=0.5","6685bda9fe63421c0f632414","679edb085803f58d6bbd31ca","679ee1811e5ee26e9178f22b","","null","<img    src='G_5.jpg' height='90'> <img    src='G_4.jpg' height='90'> <img    src='G_1.jpg' height='90'> <img  src='G_2.jpg' height='90'> <img     src='G_8.jpg' height='90'> <img src='G_6.jpg' height='90'> <img src='G_3.jpg' height='90'> <img src='G_7.jpg' height='90'>","null","Animation1","",""
"","","","","","html-keyboard-response","117","172249","0.0-75.0","16","1","2025-02-02 03:07:54","bc01a2b6f61d06f6604adb8657495020","65.128.101.158","Mozilla/5.0 (Windows NT 10.0; Win64; x64; rv:134.0) Gecko/20100101 Firefox/134.0","","Firefox","134.0","Windows","10.0","https://app.prolific.com/","en-US,en;q=0.5","6685bda9fe63421c0f632414","679edb085803f58d6bbd31ca","679ee1811e5ee26e9178f22b","","null","<img    src='G_5.jpg' height='90'> <img    src='G_4.jpg' height='90'> <img id='selected'    src='G_1.jpg' height='90'> <img  src='G_2.jpg' height='90'> <img     src='G_8.jpg' height='90'> <img src='G_6.jpg' height='90'> <img src='G_3.jpg' height='90'> <img src='G_7.jpg' height='90'>","null","Animation1","",""
"","","","","","html-keyboard-response","118","172765","0.0-76.0","16","1","2025-02-02 03:07:54","bc01a2b6f61d06f6604adb8657495020","65.128.101.158","Mozilla/5.0 (Windows NT 10.0; Win64; x64; rv:134.0) Gecko/20100101 Firefox/134.0","","Firefox","134.0","Windows","10.0","https://app.prolific.com/","en-US,en;q=0.5","6685bda9fe63421c0f632414","679edb085803f58d6bbd31ca","679ee1811e5ee26e9178f22b","","null","<img    src='G_5.jpg' height='90'> <img    src='G_4.jpg' height='90'> <img id='selected'    src='G_1.jpg' height='90'> <img id='selected'  src='G_2.jpg' height='90'> <img     src='G_8.jpg' height='90'> <img src='G_6.jpg' height='90'> <img src='G_3.jpg' height='90'> <img src='G_7.jpg' height='90'>","null","Animation1","",""
"","","","","","html-keyboard-response","119","173284","0.0-77.0","16","1","2025-02-02 03:07:54","bc01a2b6f61d06f6604adb8657495020","65.128.101.158","Mozilla/5.0 (Windows NT 10.0; Win64; x64; rv:134.0) Gecko/20100101 Firefox/134.0","","Firefox","134.0","Windows","10.0","https://app.prolific.com/","en-US,en;q=0.5","6685bda9fe63421c0f632414","679edb085803f58d6bbd31ca","679ee1811e5ee26e9178f22b","","null","<img    src='G_5.jpg' height='90'> <img    src='G_4.jpg' height='90'> <img id='swapped'  src='G_2.jpg' height='90'> <img id='swapped'    src='G_1.jpg' height='90'> <img     src='G_8.jpg' height='90'> <img src='G_6.jpg' height='90'> <img src='G_3.jpg' height='90'> <img src='G_7.jpg' height='90'>","null","Animation1","",""
"","","","","","html-keyboard-response","120","173613","0.0-78.0","16","1","2025-02-02 03:07:54","bc01a2b6f61d06f6604adb8657495020","65.128.101.158","Mozilla/5.0 (Windows NT 10.0; Win64; x64; rv:134.0) Gecko/20100101 Firefox/134.0","","Firefox","134.0","Windows","10.0","https://app.prolific.com/","en-US,en;q=0.5","6685bda9fe63421c0f632414","679edb085803f58d6bbd31ca","679ee1811e5ee26e9178f22b","","null","<img    src='G_5.jpg' height='90'> <img    src='G_4.jpg' height='90'> <img   src='G_2.jpg' height='90'> <img     src='G_1.jpg' height='90'> <img     src='G_8.jpg' height='90'> <img src='G_6.jpg' height='90'> <img src='G_3.jpg' height='90'> <img src='G_7.jpg' height='90'>","null","Animation1","",""
"","","","","","html-keyboard-response","121","174129","0.0-79.0","16","1","2025-02-02 03:07:54","bc01a2b6f61d06f6604adb8657495020","65.128.101.158","Mozilla/5.0 (Windows NT 10.0; Win64; x64; rv:134.0) Gecko/20100101 Firefox/134.0","","Firefox","134.0","Windows","10.0","https://app.prolific.com/","en-US,en;q=0.5","6685bda9fe63421c0f632414","679edb085803f58d6bbd31ca","679ee1811e5ee26e9178f22b","","null","<img    src='G_5.jpg' height='90'> <img id='selected'    src='G_4.jpg' height='90'> <img   src='G_2.jpg' height='90'> <img     src='G_1.jpg' height='90'> <img     src='G_8.jpg' height='90'> <img src='G_6.jpg' height='90'> <img src='G_3.jpg' height='90'> <img src='G_7.jpg' height='90'>","null","Animation1","",""
"","","","","","html-keyboard-response","122","174649","0.0-80.0","16","1","2025-02-02 03:07:54","bc01a2b6f61d06f6604adb8657495020","65.128.101.158","Mozilla/5.0 (Windows NT 10.0; Win64; x64; rv:134.0) Gecko/20100101 Firefox/134.0","","Firefox","134.0","Windows","10.0","https://app.prolific.com/","en-US,en;q=0.5","6685bda9fe63421c0f632414","679edb085803f58d6bbd31ca","679ee1811e5ee26e9178f22b","","null","<img    src='G_5.jpg' height='90'> <img id='selected'    src='G_4.jpg' height='90'> <img id='selected'   src='G_2.jpg' height='90'> <img     src='G_1.jpg' height='90'> <img     src='G_8.jpg' height='90'> <img src='G_6.jpg' height='90'> <img src='G_3.jpg' height='90'> <img src='G_7.jpg' height='90'>","null","Animation1","",""
"","","","","","html-keyboard-response","123","175164","0.0-81.0","16","1","2025-02-02 03:07:54","bc01a2b6f61d06f6604adb8657495020","65.128.101.158","Mozilla/5.0 (Windows NT 10.0; Win64; x64; rv:134.0) Gecko/20100101 Firefox/134.0","","Firefox","134.0","Windows","10.0","https://app.prolific.com/","en-US,en;q=0.5","6685bda9fe63421c0f632414","679edb085803f58d6bbd31ca","679ee1811e5ee26e9178f22b","","null","<img    src='G_5.jpg' height='90'> <img id='swapped'   src='G_2.jpg' height='90'> <img id='swapped'    src='G_4.jpg' height='90'> <img     src='G_1.jpg' height='90'> <img     src='G_8.jpg' height='90'> <img src='G_6.jpg' height='90'> <img src='G_3.jpg' height='90'> <img src='G_7.jpg' height='90'>","null","Animation1","",""
"","","","","","html-keyboard-response","124","175478","0.0-82.0","16","1","2025-02-02 03:07:54","bc01a2b6f61d06f6604adb8657495020","65.128.101.158","Mozilla/5.0 (Windows NT 10.0; Win64; x64; rv:134.0) Gecko/20100101 Firefox/134.0","","Firefox","134.0","Windows","10.0","https://app.prolific.com/","en-US,en;q=0.5","6685bda9fe63421c0f632414","679edb085803f58d6bbd31ca","679ee1811e5ee26e9178f22b","","null","<img    src='G_5.jpg' height='90'> <img    src='G_2.jpg' height='90'> <img     src='G_4.jpg' height='90'> <img     src='G_1.jpg' height='90'> <img     src='G_8.jpg' height='90'> <img src='G_6.jpg' height='90'> <img src='G_3.jpg' height='90'> <img src='G_7.jpg' height='90'>","null","Animation1","",""
"","","","","","html-keyboard-response","125","175993","0.0-83.0","16","1","2025-02-02 03:07:54","bc01a2b6f61d06f6604adb8657495020","65.128.101.158","Mozilla/5.0 (Windows NT 10.0; Win64; x64; rv:134.0) Gecko/20100101 Firefox/134.0","","Firefox","134.0","Windows","10.0","https://app.prolific.com/","en-US,en;q=0.5","6685bda9fe63421c0f632414","679edb085803f58d6bbd31ca","679ee1811e5ee26e9178f22b","","null","<img id='selected'    src='G_5.jpg' height='90'> <img    src='G_2.jpg' height='90'> <img     src='G_4.jpg' height='90'> <img     src='G_1.jpg' height='90'> <img     src='G_8.jpg' height='90'> <img src='G_6.jpg' height='90'> <img src='G_3.jpg' height='90'> <img src='G_7.jpg' height='90'>","null","Animation1","",""
"","","","","","html-keyboard-response","126","176511","0.0-84.0","16","1","2025-02-02 03:07:54","bc01a2b6f61d06f6604adb8657495020","65.128.101.158","Mozilla/5.0 (Windows NT 10.0; Win64; x64; rv:134.0) Gecko/20100101 Firefox/134.0","","Firefox","134.0","Windows","10.0","https://app.prolific.com/","en-US,en;q=0.5","6685bda9fe63421c0f632414","679edb085803f58d6bbd31ca","679ee1811e5ee26e9178f22b","","null","<img id='selected'    src='G_5.jpg' height='90'> <img id='selected'    src='G_2.jpg' height='90'> <img     src='G_4.jpg' height='90'> <img     src='G_1.jpg' height='90'> <img     src='G_8.jpg' height='90'> <img src='G_6.jpg' height='90'> <img src='G_3.jpg' height='90'> <img src='G_7.jpg' height='90'>","null","Animation1","",""
"","","","","","html-keyboard-response","127","177027","0.0-85.0","16","1","2025-02-02 03:07:54","bc01a2b6f61d06f6604adb8657495020","65.128.101.158","Mozilla/5.0 (Windows NT 10.0; Win64; x64; rv:134.0) Gecko/20100101 Firefox/134.0","","Firefox","134.0","Windows","10.0","https://app.prolific.com/","en-US,en;q=0.5","6685bda9fe63421c0f632414","679edb085803f58d6bbd31ca","679ee1811e5ee26e9178f22b","","null","<img id='selected'    src='G_5.jpg' height='90'> <img id='selected'    src='G_2.jpg' height='90'> <img     src='G_4.jpg' height='90'> <img     src='G_1.jpg' height='90'> <img     src='G_8.jpg' height='90'> <img src='G_6.jpg' height='90'> <img src='G_3.jpg' height='90'> <img src='G_7.jpg' height='90'>","null","Animation1","",""
"","","","","","html-keyboard-response","128","177340","0.0-86.0","16","1","2025-02-02 03:07:54","bc01a2b6f61d06f6604adb8657495020","65.128.101.158","Mozilla/5.0 (Windows NT 10.0; Win64; x64; rv:134.0) Gecko/20100101 Firefox/134.0","","Firefox","134.0","Windows","10.0","https://app.prolific.com/","en-US,en;q=0.5","6685bda9fe63421c0f632414","679edb085803f58d6bbd31ca","679ee1811e5ee26e9178f22b","","null","<img     src='G_5.jpg' height='90'> <img     src='G_2.jpg' height='90'> <img     src='G_4.jpg' height='90'> <img     src='G_1.jpg' height='90'> <img     src='G_8.jpg' height='90'> <img src='G_6.jpg' height='90'> <img src='G_3.jpg' height='90'> <img src='G_7.jpg' height='90'>","null","Animation1","",""
"","","","","","html-keyboard-response","129","177854","0.0-87.0","16","1","2025-02-02 03:07:54","bc01a2b6f61d06f6604adb8657495020","65.128.101.158","Mozilla/5.0 (Windows NT 10.0; Win64; x64; rv:134.0) Gecko/20100101 Firefox/134.0","","Firefox","134.0","Windows","10.0","https://app.prolific.com/","en-US,en;q=0.5","6685bda9fe63421c0f632414","679edb085803f58d6bbd31ca","679ee1811e5ee26e9178f22b","","null","<img     src='G_5.jpg' height='90'> <img     src='G_2.jpg' height='90'> <img     src='G_4.jpg' height='90'> <img     src='G_1.jpg' height='90'> <img id='selected'     src='G_8.jpg' height='90'> <img src='G_6.jpg' height='90'> <img src='G_3.jpg' height='90'> <img src='G_7.jpg' height='90'>","null","Animation1","",""
"","","","","","html-keyboard-response","130","178373","0.0-88.0","16","1","2025-02-02 03:07:54","bc01a2b6f61d06f6604adb8657495020","65.128.101.158","Mozilla/5.0 (Windows NT 10.0; Win64; x64; rv:134.0) Gecko/20100101 Firefox/134.0","","Firefox","134.0","Windows","10.0","https://app.prolific.com/","en-US,en;q=0.5","6685bda9fe63421c0f632414","679edb085803f58d6bbd31ca","679ee1811e5ee26e9178f22b","","null","<img     src='G_5.jpg' height='90'> <img     src='G_2.jpg' height='90'> <img     src='G_4.jpg' height='90'> <img     src='G_1.jpg' height='90'> <img id='selected'     src='G_8.jpg' height='90'> <img id='selected' src='G_6.jpg' height='90'> <img src='G_3.jpg' height='90'> <img src='G_7.jpg' height='90'>","null","Animation1","",""
"","","","","","html-keyboard-response","131","178891","0.0-89.0","16","1","2025-02-02 03:07:54","bc01a2b6f61d06f6604adb8657495020","65.128.101.158","Mozilla/5.0 (Windows NT 10.0; Win64; x64; rv:134.0) Gecko/20100101 Firefox/134.0","","Firefox","134.0","Windows","10.0","https://app.prolific.com/","en-US,en;q=0.5","6685bda9fe63421c0f632414","679edb085803f58d6bbd31ca","679ee1811e5ee26e9178f22b","","null","<img     src='G_5.jpg' height='90'> <img     src='G_2.jpg' height='90'> <img     src='G_4.jpg' height='90'> <img     src='G_1.jpg' height='90'> <img id='swapped' src='G_6.jpg' height='90'> <img id='swapped'     src='G_8.jpg' height='90'> <img src='G_3.jpg' height='90'> <img src='G_7.jpg' height='90'>","null","Animation1","",""
"","","","","","html-keyboard-response","132","179203","0.0-90.0","16","1","2025-02-02 03:07:54","bc01a2b6f61d06f6604adb8657495020","65.128.101.158","Mozilla/5.0 (Windows NT 10.0; Win64; x64; rv:134.0) Gecko/20100101 Firefox/134.0","","Firefox","134.0","Windows","10.0","https://app.prolific.com/","en-US,en;q=0.5","6685bda9fe63421c0f632414","679edb085803f58d6bbd31ca","679ee1811e5ee26e9178f22b","","null","<img     src='G_5.jpg' height='90'> <img     src='G_2.jpg' height='90'> <img     src='G_4.jpg' height='90'> <img     src='G_1.jpg' height='90'> <img  src='G_6.jpg' height='90'> <img      src='G_8.jpg' height='90'> <img src='G_3.jpg' height='90'> <img src='G_7.jpg' height='90'>","null","Animation1","",""
"","","","","","html-keyboard-response","133","179721","0.0-91.0","16","1","2025-02-02 03:07:54","bc01a2b6f61d06f6604adb8657495020","65.128.101.158","Mozilla/5.0 (Windows NT 10.0; Win64; x64; rv:134.0) Gecko/20100101 Firefox/134.0","","Firefox","134.0","Windows","10.0","https://app.prolific.com/","en-US,en;q=0.5","6685bda9fe63421c0f632414","679edb085803f58d6bbd31ca","679ee1811e5ee26e9178f22b","","null","<img     src='G_5.jpg' height='90'> <img     src='G_2.jpg' height='90'> <img     src='G_4.jpg' height='90'> <img id='selected'     src='G_1.jpg' height='90'> <img  src='G_6.jpg' height='90'> <img      src='G_8.jpg' height='90'> <img src='G_3.jpg' height='90'> <img src='G_7.jpg' height='90'>","null","Animation1","",""
"","","","","","html-keyboard-response","134","180237","0.0-92.0","16","1","2025-02-02 03:07:54","bc01a2b6f61d06f6604adb8657495020","65.128.101.158","Mozilla/5.0 (Windows NT 10.0; Win64; x64; rv:134.0) Gecko/20100101 Firefox/134.0","","Firefox","134.0","Windows","10.0","https://app.prolific.com/","en-US,en;q=0.5","6685bda9fe63421c0f632414","679edb085803f58d6bbd31ca","679ee1811e5ee26e9178f22b","","null","<img     src='G_5.jpg' height='90'> <img     src='G_2.jpg' height='90'> <img     src='G_4.jpg' height='90'> <img id='selected'     src='G_1.jpg' height='90'> <img id='selected'  src='G_6.jpg' height='90'> <img      src='G_8.jpg' height='90'> <img src='G_3.jpg' height='90'> <img src='G_7.jpg' height='90'>","null","Animation1","",""
"","","","","","html-keyboard-response","135","180753","0.0-93.0","16","1","2025-02-02 03:07:54","bc01a2b6f61d06f6604adb8657495020","65.128.101.158","Mozilla/5.0 (Windows NT 10.0; Win64; x64; rv:134.0) Gecko/20100101 Firefox/134.0","","Firefox","134.0","Windows","10.0","https://app.prolific.com/","en-US,en;q=0.5","6685bda9fe63421c0f632414","679edb085803f58d6bbd31ca","679ee1811e5ee26e9178f22b","","null","<img     src='G_5.jpg' height='90'> <img     src='G_2.jpg' height='90'> <img     src='G_4.jpg' height='90'> <img id='selected'     src='G_1.jpg' height='90'> <img id='selected'  src='G_6.jpg' height='90'> <img      src='G_8.jpg' height='90'> <img src='G_3.jpg' height='90'> <img src='G_7.jpg' height='90'>","null","Animation1","",""
"","","","","","html-keyboard-response","136","181065","0.0-94.0","16","1","2025-02-02 03:07:54","bc01a2b6f61d06f6604adb8657495020","65.128.101.158","Mozilla/5.0 (Windows NT 10.0; Win64; x64; rv:134.0) Gecko/20100101 Firefox/134.0","","Firefox","134.0","Windows","10.0","https://app.prolific.com/","en-US,en;q=0.5","6685bda9fe63421c0f632414","679edb085803f58d6bbd31ca","679ee1811e5ee26e9178f22b","","null","<img     src='G_5.jpg' height='90'> <img     src='G_2.jpg' height='90'> <img     src='G_4.jpg' height='90'> <img      src='G_1.jpg' height='90'> <img   src='G_6.jpg' height='90'> <img      src='G_8.jpg' height='90'> <img src='G_3.jpg' height='90'> <img src='G_7.jpg' height='90'>","null","Animation1","",""
"","","","","","html-keyboard-response","137","181580","0.0-95.0","16","1","2025-02-02 03:07:54","bc01a2b6f61d06f6604adb8657495020","65.128.101.158","Mozilla/5.0 (Windows NT 10.0; Win64; x64; rv:134.0) Gecko/20100101 Firefox/134.0","","Firefox","134.0","Windows","10.0","https://app.prolific.com/","en-US,en;q=0.5","6685bda9fe63421c0f632414","679edb085803f58d6bbd31ca","679ee1811e5ee26e9178f22b","","null","<img     src='G_5.jpg' height='90'> <img     src='G_2.jpg' height='90'> <img     src='G_4.jpg' height='90'> <img      src='G_1.jpg' height='90'> <img   src='G_6.jpg' height='90'> <img id='selected'      src='G_8.jpg' height='90'> <img src='G_3.jpg' height='90'> <img src='G_7.jpg' height='90'>","null","Animation1","",""
"","","","","","html-keyboard-response","138","182101","0.0-96.0","16","1","2025-02-02 03:07:54","bc01a2b6f61d06f6604adb8657495020","65.128.101.158","Mozilla/5.0 (Windows NT 10.0; Win64; x64; rv:134.0) Gecko/20100101 Firefox/134.0","","Firefox","134.0","Windows","10.0","https://app.prolific.com/","en-US,en;q=0.5","6685bda9fe63421c0f632414","679edb085803f58d6bbd31ca","679ee1811e5ee26e9178f22b","","null","<img     src='G_5.jpg' height='90'> <img     src='G_2.jpg' height='90'> <img     src='G_4.jpg' height='90'> <img      src='G_1.jpg' height='90'> <img   src='G_6.jpg' height='90'> <img id='selected'      src='G_8.jpg' height='90'> <img id='selected' src='G_3.jpg' height='90'> <img src='G_7.jpg' height='90'>","null","Animation1","",""
"","","","","","html-keyboard-response","139","182617","0.0-97.0","16","1","2025-02-02 03:07:54","bc01a2b6f61d06f6604adb8657495020","65.128.101.158","Mozilla/5.0 (Windows NT 10.0; Win64; x64; rv:134.0) Gecko/20100101 Firefox/134.0","","Firefox","134.0","Windows","10.0","https://app.prolific.com/","en-US,en;q=0.5","6685bda9fe63421c0f632414","679edb085803f58d6bbd31ca","679ee1811e5ee26e9178f22b","","null","<img     src='G_5.jpg' height='90'> <img     src='G_2.jpg' height='90'> <img     src='G_4.jpg' height='90'> <img      src='G_1.jpg' height='90'> <img   src='G_6.jpg' height='90'> <img id='selected'      src='G_8.jpg' height='90'> <img id='selected' src='G_3.jpg' height='90'> <img src='G_7.jpg' height='90'>","null","Animation1","",""
"","","","","","html-keyboard-response","140","182931","0.0-98.0","16","1","2025-02-02 03:07:54","bc01a2b6f61d06f6604adb8657495020","65.128.101.158","Mozilla/5.0 (Windows NT 10.0; Win64; x64; rv:134.0) Gecko/20100101 Firefox/134.0","","Firefox","134.0","Windows","10.0","https://app.prolific.com/","en-US,en;q=0.5","6685bda9fe63421c0f632414","679edb085803f58d6bbd31ca","679ee1811e5ee26e9178f22b","","null","<img     src='G_5.jpg' height='90'> <img     src='G_2.jpg' height='90'> <img     src='G_4.jpg' height='90'> <img      src='G_1.jpg' height='90'> <img   src='G_6.jpg' height='90'> <img       src='G_8.jpg' height='90'> <img  src='G_3.jpg' height='90'> <img src='G_7.jpg' height='90'>","null","Animation1","",""
"","","","","","html-keyboard-response","141","183445","0.0-99.0","16","1","2025-02-02 03:07:54","bc01a2b6f61d06f6604adb8657495020","65.128.101.158","Mozilla/5.0 (Windows NT 10.0; Win64; x64; rv:134.0) Gecko/20100101 Firefox/134.0","","Firefox","134.0","Windows","10.0","https://app.prolific.com/","en-US,en;q=0.5","6685bda9fe63421c0f632414","679edb085803f58d6bbd31ca","679ee1811e5ee26e9178f22b","","null","<img     src='G_5.jpg' height='90'> <img     src='G_2.jpg' height='90'> <img     src='G_4.jpg' height='90'> <img      src='G_1.jpg' height='90'> <img   src='G_6.jpg' height='90'> <img       src='G_8.jpg' height='90'> <img id='selected'  src='G_3.jpg' height='90'> <img src='G_7.jpg' height='90'>","null","Animation1","",""
"","","","","","html-keyboard-response","142","183962","0.0-100.0","16","1","2025-02-02 03:07:54","bc01a2b6f61d06f6604adb8657495020","65.128.101.158","Mozilla/5.0 (Windows NT 10.0; Win64; x64; rv:134.0) Gecko/20100101 Firefox/134.0","","Firefox","134.0","Windows","10.0","https://app.prolific.com/","en-US,en;q=0.5","6685bda9fe63421c0f632414","679edb085803f58d6bbd31ca","679ee1811e5ee26e9178f22b","","null","<img     src='G_5.jpg' height='90'> <img     src='G_2.jpg' height='90'> <img     src='G_4.jpg' height='90'> <img      src='G_1.jpg' height='90'> <img   src='G_6.jpg' height='90'> <img       src='G_8.jpg' height='90'> <img id='selected'  src='G_3.jpg' height='90'> <img id='selected' src='G_7.jpg' height='90'>","null","Animation1","",""
"","","","","","html-keyboard-response","143","184479","0.0-101.0","16","1","2025-02-02 03:07:54","bc01a2b6f61d06f6604adb8657495020","65.128.101.158","Mozilla/5.0 (Windows NT 10.0; Win64; x64; rv:134.0) Gecko/20100101 Firefox/134.0","","Firefox","134.0","Windows","10.0","https://app.prolific.com/","en-US,en;q=0.5","6685bda9fe63421c0f632414","679edb085803f58d6bbd31ca","679ee1811e5ee26e9178f22b","","null","<img     src='G_5.jpg' height='90'> <img     src='G_2.jpg' height='90'> <img     src='G_4.jpg' height='90'> <img      src='G_1.jpg' height='90'> <img   src='G_6.jpg' height='90'> <img       src='G_8.jpg' height='90'> <img id='swapped' src='G_7.jpg' height='90'> <img id='swapped'  src='G_3.jpg' height='90'>","null","Animation1","",""
"","","","","","html-keyboard-response","144","184807","0.0-102.0","16","1","2025-02-02 03:07:54","bc01a2b6f61d06f6604adb8657495020","65.128.101.158","Mozilla/5.0 (Windows NT 10.0; Win64; x64; rv:134.0) Gecko/20100101 Firefox/134.0","","Firefox","134.0","Windows","10.0","https://app.prolific.com/","en-US,en;q=0.5","6685bda9fe63421c0f632414","679edb085803f58d6bbd31ca","679ee1811e5ee26e9178f22b","","null","<img     src='G_5.jpg' height='90'> <img     src='G_2.jpg' height='90'> <img     src='G_4.jpg' height='90'> <img      src='G_1.jpg' height='90'> <img   src='G_6.jpg' height='90'> <img       src='G_8.jpg' height='90'> <img  src='G_7.jpg' height='90'> <img   src='G_3.jpg' height='90'>","null","Animation1","",""
"","","","","","html-keyboard-response","145","185323","0.0-103.0","16","1","2025-02-02 03:07:54","bc01a2b6f61d06f6604adb8657495020","65.128.101.158","Mozilla/5.0 (Windows NT 10.0; Win64; x64; rv:134.0) Gecko/20100101 Firefox/134.0","","Firefox","134.0","Windows","10.0","https://app.prolific.com/","en-US,en;q=0.5","6685bda9fe63421c0f632414","679edb085803f58d6bbd31ca","679ee1811e5ee26e9178f22b","","null","<img     src='G_5.jpg' height='90'> <img     src='G_2.jpg' height='90'> <img     src='G_4.jpg' height='90'> <img      src='G_1.jpg' height='90'> <img   src='G_6.jpg' height='90'> <img id='selected'       src='G_8.jpg' height='90'> <img  src='G_7.jpg' height='90'> <img   src='G_3.jpg' height='90'>","null","Animation1","",""
"","","","","","html-keyboard-response","146","185837","0.0-104.0","16","1","2025-02-02 03:07:54","bc01a2b6f61d06f6604adb8657495020","65.128.101.158","Mozilla/5.0 (Windows NT 10.0; Win64; x64; rv:134.0) Gecko/20100101 Firefox/134.0","","Firefox","134.0","Windows","10.0","https://app.prolific.com/","en-US,en;q=0.5","6685bda9fe63421c0f632414","679edb085803f58d6bbd31ca","679ee1811e5ee26e9178f22b","","null","<img     src='G_5.jpg' height='90'> <img     src='G_2.jpg' height='90'> <img     src='G_4.jpg' height='90'> <img      src='G_1.jpg' height='90'> <img   src='G_6.jpg' height='90'> <img id='selected'       src='G_8.jpg' height='90'> <img id='selected'  src='G_7.jpg' height='90'> <img   src='G_3.jpg' height='90'>","null","Animation1","",""
"","","","","","html-keyboard-response","147","186355","0.0-105.0","16","1","2025-02-02 03:07:54","bc01a2b6f61d06f6604adb8657495020","65.128.101.158","Mozilla/5.0 (Windows NT 10.0; Win64; x64; rv:134.0) Gecko/20100101 Firefox/134.0","","Firefox","134.0","Windows","10.0","https://app.prolific.com/","en-US,en;q=0.5","6685bda9fe63421c0f632414","679edb085803f58d6bbd31ca","679ee1811e5ee26e9178f22b","","null","<img     src='G_5.jpg' height='90'> <img     src='G_2.jpg' height='90'> <img     src='G_4.jpg' height='90'> <img      src='G_1.jpg' height='90'> <img   src='G_6.jpg' height='90'> <img id='selected'       src='G_8.jpg' height='90'> <img id='selected'  src='G_7.jpg' height='90'> <img   src='G_3.jpg' height='90'>","null","Animation1","",""
"","","","","","html-keyboard-response","148","186669","0.0-106.0","16","1","2025-02-02 03:07:54","bc01a2b6f61d06f6604adb8657495020","65.128.101.158","Mozilla/5.0 (Windows NT 10.0; Win64; x64; rv:134.0) Gecko/20100101 Firefox/134.0","","Firefox","134.0","Windows","10.0","https://app.prolific.com/","en-US,en;q=0.5","6685bda9fe63421c0f632414","679edb085803f58d6bbd31ca","679ee1811e5ee26e9178f22b","","null","<img     src='G_5.jpg' height='90'> <img     src='G_2.jpg' height='90'> <img     src='G_4.jpg' height='90'> <img      src='G_1.jpg' height='90'> <img   src='G_6.jpg' height='90'> <img        src='G_8.jpg' height='90'> <img   src='G_7.jpg' height='90'> <img   src='G_3.jpg' height='90'>","null","Animation1","",""
"","","","","","html-keyboard-response","149","195372","0.0-107.0","16","1","2025-02-02 03:07:54","bc01a2b6f61d06f6604adb8657495020","65.128.101.158","Mozilla/5.0 (Windows NT 10.0; Win64; x64; rv:134.0) Gecko/20100101 Firefox/134.0","","Firefox","134.0","Windows","10.0","https://app.prolific.com/","en-US,en;q=0.5","6685bda9fe63421c0f632414","679edb085803f58d6bbd31ca","679ee1811e5ee26e9178f22b","","8691","[""Did you notice any patterns? <br><br>Press Enter to watch that example again and follow the steps of Omgne Sort.""]","enter","","",""
"","","","","","html-button-response","150","195820","0.0-108.0","16","1","2025-02-02 03:07:54","bc01a2b6f61d06f6604adb8657495020","65.128.101.158","Mozilla/5.0 (Windows NT 10.0; Win64; x64; rv:134.0) Gecko/20100101 Firefox/134.0","","Firefox","134.0","Windows","10.0","https://app.prolific.com/","en-US,en;q=0.5","6685bda9fe63421c0f632414","679edb085803f58d6bbd31ca","679ee1811e5ee26e9178f22b","","null","<img id='selected' src='G_1.jpg' height='90'> <img src='G_8.jpg' height='90'> <img src='G_4.jpg' height='90'> <img src='G_5.jpg' height='90'> <img src='G_2.jpg' height='90'> <img src='G_6.jpg' height='90'> <img src='G_3.jpg' height='90'> <img src='G_7.jpg' height='90'>","null","Learning example 1","",""
"","","","","","html-button-response","151","196147","0.0-109.0","16","1","2025-02-02 03:07:54","bc01a2b6f61d06f6604adb8657495020","65.128.101.158","Mozilla/5.0 (Windows NT 10.0; Win64; x64; rv:134.0) Gecko/20100101 Firefox/134.0","","Firefox","134.0","Windows","10.0","https://app.prolific.com/","en-US,en;q=0.5","6685bda9fe63421c0f632414","679edb085803f58d6bbd31ca","679ee1811e5ee26e9178f22b","","null","<img id='selected' src='G_1.jpg' height='90'> <img id='selected' src='G_8.jpg' height='90'> <img src='G_4.jpg' height='90'> <img src='G_5.jpg' height='90'> <img src='G_2.jpg' height='90'> <img src='G_6.jpg' height='90'> <img src='G_3.jpg' height='90'> <img src='G_7.jpg' height='90'>","null","Learning example 1","",""
"","","","","","html-button-response","152","196493","0.0-110.0","16","1","2025-02-02 03:07:54","bc01a2b6f61d06f6604adb8657495020","65.128.101.158","Mozilla/5.0 (Windows NT 10.0; Win64; x64; rv:134.0) Gecko/20100101 Firefox/134.0","","Firefox","134.0","Windows","10.0","https://app.prolific.com/","en-US,en;q=0.5","6685bda9fe63421c0f632414","679edb085803f58d6bbd31ca","679ee1811e5ee26e9178f22b","","null","<img id='selected' src='G_1.jpg' height='90'> <img id='selected' src='G_8.jpg' height='90'> <img src='G_4.jpg' height='90'> <img src='G_5.jpg' height='90'> <img src='G_2.jpg' height='90'> <img src='G_6.jpg' height='90'> <img src='G_3.jpg' height='90'> <img src='G_7.jpg' height='90'>","null","Learning example 1","",""
"","","","","","html-button-response","153","197565","0.0-111.0-0.0-0.0","16","1","2025-02-02 03:07:54","bc01a2b6f61d06f6604adb8657495020","65.128.101.158","Mozilla/5.0 (Windows NT 10.0; Win64; x64; rv:134.0) Gecko/20100101 Firefox/134.0","","Firefox","134.0","Windows","10.0","https://app.prolific.com/","en-US,en;q=0.5","6685bda9fe63421c0f632414","679edb085803f58d6bbd31ca","679ee1811e5ee26e9178f22b","","1060","<img id='selected' src='G_1.jpg' height='90'> <img id='selected' src='G_8.jpg' height='90'> <img src='G_4.jpg' height='90'> <img src='G_5.jpg' height='90'> <img src='G_2.jpg' height='90'> <img src='G_6.jpg' height='90'> <img src='G_3.jpg' height='90'> <img src='G_7.jpg' height='90'>","0","Learning example 1","",""
"","","","","","html-button-response","154","198757","0.0-111.1-0.1-0.1","16","1","2025-02-02 03:07:54","bc01a2b6f61d06f6604adb8657495020","65.128.101.158","Mozilla/5.0 (Windows NT 10.0; Win64; x64; rv:134.0) Gecko/20100101 Firefox/134.0","","Firefox","134.0","Windows","10.0","https://app.prolific.com/","en-US,en;q=0.5","6685bda9fe63421c0f632414","679edb085803f58d6bbd31ca","679ee1811e5ee26e9178f22b","","1188","<img id='selected' src='G_1.jpg' height='90'> <img id='selected' src='G_8.jpg' height='90'> <img src='G_4.jpg' height='90'> <img src='G_5.jpg' height='90'> <img src='G_2.jpg' height='90'> <img src='G_6.jpg' height='90'> <img src='G_3.jpg' height='90'> <img src='G_7.jpg' height='90'>","1","Learning example 1","",""
"","","","","","html-button-response","155","198974","0.0-112.0","16","1","2025-02-02 03:07:54","bc01a2b6f61d06f6604adb8657495020","65.128.101.158","Mozilla/5.0 (Windows NT 10.0; Win64; x64; rv:134.0) Gecko/20100101 Firefox/134.0","","Firefox","134.0","Windows","10.0","https://app.prolific.com/","en-US,en;q=0.5","6685bda9fe63421c0f632414","679edb085803f58d6bbd31ca","679ee1811e5ee26e9178f22b","","null","<img  src='G_1.jpg' height='90'> <img  src='G_8.jpg' height='90'> <img src='G_4.jpg' height='90'> <img src='G_5.jpg' height='90'> <img src='G_2.jpg' height='90'> <img src='G_6.jpg' height='90'> <img src='G_3.jpg' height='90'> <img src='G_7.jpg' height='90'>","null","Learning example 1","",""
"","","","","","html-button-response","156","199397","0.0-113.0","16","1","2025-02-02 03:07:54","bc01a2b6f61d06f6604adb8657495020","65.128.101.158","Mozilla/5.0 (Windows NT 10.0; Win64; x64; rv:134.0) Gecko/20100101 Firefox/134.0","","Firefox","134.0","Windows","10.0","https://app.prolific.com/","en-US,en;q=0.5","6685bda9fe63421c0f632414","679edb085803f58d6bbd31ca","679ee1811e5ee26e9178f22b","","null","<img  src='G_1.jpg' height='90'> <img id='selected'  src='G_8.jpg' height='90'> <img src='G_4.jpg' height='90'> <img src='G_5.jpg' height='90'> <img src='G_2.jpg' height='90'> <img src='G_6.jpg' height='90'> <img src='G_3.jpg' height='90'> <img src='G_7.jpg' height='90'>","null","Learning example 1","",""
"","","","","","html-button-response","157","199741","0.0-114.0","16","1","2025-02-02 03:07:54","bc01a2b6f61d06f6604adb8657495020","65.128.101.158","Mozilla/5.0 (Windows NT 10.0; Win64; x64; rv:134.0) Gecko/20100101 Firefox/134.0","","Firefox","134.0","Windows","10.0","https://app.prolific.com/","en-US,en;q=0.5","6685bda9fe63421c0f632414","679edb085803f58d6bbd31ca","679ee1811e5ee26e9178f22b","","null","<img  src='G_1.jpg' height='90'> <img id='selected'  src='G_8.jpg' height='90'> <img id='selected' src='G_4.jpg' height='90'> <img src='G_5.jpg' height='90'> <img src='G_2.jpg' height='90'> <img src='G_6.jpg' height='90'> <img src='G_3.jpg' height='90'> <img src='G_7.jpg' height='90'>","null","Learning example 1","",""
"","","","","","html-button-response","158","200067","0.0-115.0","16","1","2025-02-02 03:07:54","bc01a2b6f61d06f6604adb8657495020","65.128.101.158","Mozilla/5.0 (Windows NT 10.0; Win64; x64; rv:134.0) Gecko/20100101 Firefox/134.0","","Firefox","134.0","Windows","10.0","https://app.prolific.com/","en-US,en;q=0.5","6685bda9fe63421c0f632414","679edb085803f58d6bbd31ca","679ee1811e5ee26e9178f22b","","null","<img  src='G_1.jpg' height='90'> <img id='swapped' src='G_4.jpg' height='90'> <img id='swapped'  src='G_8.jpg' height='90'> <img src='G_5.jpg' height='90'> <img src='G_2.jpg' height='90'> <img src='G_6.jpg' height='90'> <img src='G_3.jpg' height='90'> <img src='G_7.jpg' height='90'>","null","Learning example 1","",""
"","","","","","html-button-response","159","204156","0.0-116.0-0.0-0.0","16","1","2025-02-02 03:07:54","bc01a2b6f61d06f6604adb8657495020","65.128.101.158","Mozilla/5.0 (Windows NT 10.0; Win64; x64; rv:134.0) Gecko/20100101 Firefox/134.0","","Firefox","134.0","Windows","10.0","https://app.prolific.com/","en-US,en;q=0.5","6685bda9fe63421c0f632414","679edb085803f58d6bbd31ca","679ee1811e5ee26e9178f22b","","4083","<img  src='G_1.jpg' height='90'> <img id='swapped' src='G_4.jpg' height='90'> <img id='swapped'  src='G_8.jpg' height='90'> <img src='G_5.jpg' height='90'> <img src='G_2.jpg' height='90'> <img src='G_6.jpg' height='90'> <img src='G_3.jpg' height='90'> <img src='G_7.jpg' height='90'>","1","Learning example 1","",""
"","","","","","html-button-response","160","204808","0.0-116.1-0.1-0.1","16","1","2025-02-02 03:07:54","bc01a2b6f61d06f6604adb8657495020","65.128.101.158","Mozilla/5.0 (Windows NT 10.0; Win64; x64; rv:134.0) Gecko/20100101 Firefox/134.0","","Firefox","134.0","Windows","10.0","https://app.prolific.com/","en-US,en;q=0.5","6685bda9fe63421c0f632414","679edb085803f58d6bbd31ca","679ee1811e5ee26e9178f22b","","645","<img  src='G_1.jpg' height='90'> <img id='swapped' src='G_4.jpg' height='90'> <img id='swapped'  src='G_8.jpg' height='90'> <img src='G_5.jpg' height='90'> <img src='G_2.jpg' height='90'> <img src='G_6.jpg' height='90'> <img src='G_3.jpg' height='90'> <img src='G_7.jpg' height='90'>","2","Learning example 1","",""
