"success","timeout","failed_images","failed_audio","failed_video","trial_type","trial_index","time_elapsed","internal_node_id","run_id","condition","recorded_at","source_code_version","ip","user_agent","device","browser","browser_version","platform","platform_version","referer","accept_language","PROLIFIC_PID","STUDY_ID","SESSION_ID","view_history","rt","stimulus","response","phase","question_order","presented_choices"
"true","false","[]","[]","[]","preload","0","351","0.0-0.0","17","1","2025-02-02 03:13:08","bc01a2b6f61d06f6604adb8657495020","68.45.37.73","Mozilla/5.0 (Windows NT 10.0; Win64; x64) AppleWebKit/537.36 (KHTML, like Gecko) Chrome/132.0.0.0 Safari/537.36","WebKit","Chrome","132.0.0.0","Windows","10.0","https://app.prolific.com/","en-US,en;q=0.9,fr;q=0.8,id;q=0.7","661de1d2f9c50b06f796b9cc","679edb085803f58d6bbd31ca","679ee2a7fdc71b640a413a6f","","","","","","",""
"","","","","","instructions","1","8946","0.0-1.0","17","1","2025-02-02 03:13:08","bc01a2b6f61d06f6604adb8657495020","68.45.37.73","Mozilla/5.0 (Windows NT 10.0; Win64; x64) AppleWebKit/537.36 (KHTML, like Gecko) Chrome/132.0.0.0 Safari/537.36","WebKit","Chrome","132.0.0.0","Windows","10.0","https://app.prolific.com/","en-US,en;q=0.9,fr;q=0.8,id;q=0.7","661de1d2f9c50b06f796b9cc","679edb085803f58d6bbd31ca","679ee2a7fdc71b640a413a6f","[{""page_index"":0,""viewing_time"":8593}]","8593","","","","",""
"","","","","","html-keyboard-response","2","9448","0.0-2.0","17","1","2025-02-02 03:13:08","bc01a2b6f61d06f6604adb8657495020","68.45.37.73","Mozilla/5.0 (Windows NT 10.0; Win64; x64) AppleWebKit/537.36 (KHTML, like Gecko) Chrome/132.0.0.0 Safari/537.36","WebKit","Chrome","132.0.0.0","Windows","10.0","https://app.prolific.com/","en-US,en;q=0.9,fr;q=0.8,id;q=0.7","661de1d2f9c50b06f796b9cc","679edb085803f58d6bbd31ca","679ee2a7fdc71b640a413a6f","","null","<p> + <p/>","null","","",""
"","","","","","instructions","3","32946","0.0-3.0","17","1","2025-02-02 03:13:08","bc01a2b6f61d06f6604adb8657495020","68.45.37.73","Mozilla/5.0 (Windows NT 10.0; Win64; x64) AppleWebKit/537.36 (KHTML, like Gecko) Chrome/132.0.0.0 Safari/537.36","WebKit","Chrome","132.0.0.0","Windows","10.0","https://app.prolific.com/","en-US,en;q=0.9,fr;q=0.8,id;q=0.7","661de1d2f9c50b06f796b9cc","679edb085803f58d6bbd31ca","679ee2a7fdc71b640a413a6f","[{""page_index"":0,""viewing_time"":1933},{""page_index"":1,""viewing_time"":7115},{""page_index"":2,""viewing_time"":6811},{""page_index"":3,""viewing_time"":2733},{""page_index"":4,""viewing_time"":4905}]","23497","","","","",""
"","","","","","html-button-response","4","37616","0.0-4.0-0.0-0.0","17","1","2025-02-02 03:13:08","bc01a2b6f61d06f6604adb8657495020","68.45.37.73","Mozilla/5.0 (Windows NT 10.0; Win64; x64) AppleWebKit/537.36 (KHTML, like Gecko) Chrome/132.0.0.0 Safari/537.36","WebKit","Chrome","132.0.0.0","Windows","10.0","https://app.prolific.com/","en-US,en;q=0.9,fr;q=0.8,id;q=0.7","661de1d2f9c50b06f796b9cc","679edb085803f58d6bbd31ca","679ee2a7fdc71b640a413a6f","","4669","","0","Intro Trial","",""
"","","","","","html-button-response","5","41476","0.0-4.1-0.1-0.1","17","1","2025-02-02 03:13:08","bc01a2b6f61d06f6604adb8657495020","68.45.37.73","Mozilla/5.0 (Windows NT 10.0; Win64; x64) AppleWebKit/537.36 (KHTML, like Gecko) Chrome/132.0.0.0 Safari/537.36","WebKit","Chrome","132.0.0.0","Windows","10.0","https://app.prolific.com/","en-US,en;q=0.9,fr;q=0.8,id;q=0.7","661de1d2f9c50b06f796b9cc","679edb085803f58d6bbd31ca","679ee2a7fdc71b640a413a6f","","3858","","4","Intro Trial","",""
"","","","","","html-button-response","6","50790","0.0-4.2-0.2-0.2","17","1","2025-02-02 03:13:08","bc01a2b6f61d06f6604adb8657495020","68.45.37.73","Mozilla/5.0 (Windows NT 10.0; Win64; x64) AppleWebKit/537.36 (KHTML, like Gecko) Chrome/132.0.0.0 Safari/537.36","WebKit","Chrome","132.0.0.0","Windows","10.0","https://app.prolific.com/","en-US,en;q=0.9,fr;q=0.8,id;q=0.7","661de1d2f9c50b06f796b9cc","679edb085803f58d6bbd31ca","679ee2a7fdc71b640a413a6f","","9313","","3","Intro Trial","",""
"","","","","","html-button-response","7","51396","0.0-4.3-0.3-0.3","17","1","2025-02-02 03:13:08","bc01a2b6f61d06f6604adb8657495020","68.45.37.73","Mozilla/5.0 (Windows NT 10.0; Win64; x64) AppleWebKit/537.36 (KHTML, like Gecko) Chrome/132.0.0.0 Safari/537.36","WebKit","Chrome","132.0.0.0","Windows","10.0","https://app.prolific.com/","en-US,en;q=0.9,fr;q=0.8,id;q=0.7","661de1d2f9c50b06f796b9cc","679edb085803f58d6bbd31ca","679ee2a7fdc71b640a413a6f","","604","","4","Intro Trial","",""
"","","","","","html-button-response","8","54038","0.0-4.4-0.4-0.4","17","1","2025-02-02 03:13:08","bc01a2b6f61d06f6604adb8657495020","68.45.37.73","Mozilla/5.0 (Windows NT 10.0; Win64; x64) AppleWebKit/537.36 (KHTML, like Gecko) Chrome/132.0.0.0 Safari/537.36","WebKit","Chrome","132.0.0.0","Windows","10.0","https://app.prolific.com/","en-US,en;q=0.9,fr;q=0.8,id;q=0.7","661de1d2f9c50b06f796b9cc","679edb085803f58d6bbd31ca","679ee2a7fdc71b640a413a6f","","2640","","3","Intro Trial","",""
"","","","","","html-button-response","9","54676","0.0-4.5-0.5-0.5","17","1","2025-02-02 03:13:08","bc01a2b6f61d06f6604adb8657495020","68.45.37.73","Mozilla/5.0 (Windows NT 10.0; Win64; x64) AppleWebKit/537.36 (KHTML, like Gecko) Chrome/132.0.0.0 Safari/537.36","WebKit","Chrome","132.0.0.0","Windows","10.0","https://app.prolific.com/","en-US,en;q=0.9,fr;q=0.8,id;q=0.7","661de1d2f9c50b06f796b9cc","679edb085803f58d6bbd31ca","679ee2a7fdc71b640a413a6f","","636","","0","Intro Trial","",""
"","","","","","html-button-response","10","56598","0.0-4.6-0.6-0.6","17","1","2025-02-02 03:13:08","bc01a2b6f61d06f6604adb8657495020","68.45.37.73","Mozilla/5.0 (Windows NT 10.0; Win64; x64) AppleWebKit/537.36 (KHTML, like Gecko) Chrome/132.0.0.0 Safari/537.36","WebKit","Chrome","132.0.0.0","Windows","10.0","https://app.prolific.com/","en-US,en;q=0.9,fr;q=0.8,id;q=0.7","661de1d2f9c50b06f796b9cc","679edb085803f58d6bbd31ca","679ee2a7fdc71b640a413a6f","","1921","","0","Intro Trial","",""
"","","","","","html-button-response","11","57628","0.0-4.7-0.7-0.7","17","1","2025-02-02 03:13:08","bc01a2b6f61d06f6604adb8657495020","68.45.37.73","Mozilla/5.0 (Windows NT 10.0; Win64; x64) AppleWebKit/537.36 (KHTML, like Gecko) Chrome/132.0.0.0 Safari/537.36","WebKit","Chrome","132.0.0.0","Windows","10.0","https://app.prolific.com/","en-US,en;q=0.9,fr;q=0.8,id;q=0.7","661de1d2f9c50b06f796b9cc","679edb085803f58d6bbd31ca","679ee2a7fdc71b640a413a6f","","1029","","2","Intro Trial","",""
"","","","","","html-button-response","12","59186","0.0-4.8-0.8-0.8","17","1","2025-02-02 03:13:08","bc01a2b6f61d06f6604adb8657495020","68.45.37.73","Mozilla/5.0 (Windows NT 10.0; Win64; x64) AppleWebKit/537.36 (KHTML, like Gecko) Chrome/132.0.0.0 Safari/537.36","WebKit","Chrome","132.0.0.0","Windows","10.0","https://app.prolific.com/","en-US,en;q=0.9,fr;q=0.8,id;q=0.7","661de1d2f9c50b06f796b9cc","679edb085803f58d6bbd31ca","679ee2a7fdc71b640a413a6f","","1557","","1","Intro Trial","",""
"","","","","","html-button-response","13","59664","0.0-4.9-0.9-0.9","17","1","2025-02-02 03:13:08","bc01a2b6f61d06f6604adb8657495020","68.45.37.73","Mozilla/5.0 (Windows NT 10.0; Win64; x64) AppleWebKit/537.36 (KHTML, like Gecko) Chrome/132.0.0.0 Safari/537.36","WebKit","Chrome","132.0.0.0","Windows","10.0","https://app.prolific.com/","en-US,en;q=0.9,fr;q=0.8,id;q=0.7","661de1d2f9c50b06f796b9cc","679edb085803f58d6bbd31ca","679ee2a7fdc71b640a413a6f","","477","","0","Intro Trial","",""
"","","","","","html-button-response","14","60902","0.0-4.10-0.10-0.10","17","1","2025-02-02 03:13:08","bc01a2b6f61d06f6604adb8657495020","68.45.37.73","Mozilla/5.0 (Windows NT 10.0; Win64; x64) AppleWebKit/537.36 (KHTML, like Gecko) Chrome/132.0.0.0 Safari/537.36","WebKit","Chrome","132.0.0.0","Windows","10.0","https://app.prolific.com/","en-US,en;q=0.9,fr;q=0.8,id;q=0.7","661de1d2f9c50b06f796b9cc","679edb085803f58d6bbd31ca","679ee2a7fdc71b640a413a6f","","1236","","1","Intro Trial","",""
"","","","","","html-button-response","15","61498","0.0-4.11-0.11-0.11","17","1","2025-02-02 03:13:08","bc01a2b6f61d06f6604adb8657495020","68.45.37.73","Mozilla/5.0 (Windows NT 10.0; Win64; x64) AppleWebKit/537.36 (KHTML, like Gecko) Chrome/132.0.0.0 Safari/537.36","WebKit","Chrome","132.0.0.0","Windows","10.0","https://app.prolific.com/","en-US,en;q=0.9,fr;q=0.8,id;q=0.7","661de1d2f9c50b06f796b9cc","679edb085803f58d6bbd31ca","679ee2a7fdc71b640a413a6f","","595","","3","Intro Trial","",""
"","","","","","html-button-response","16","62462","0.0-4.12-0.12-0.12","17","1","2025-02-02 03:13:08","bc01a2b6f61d06f6604adb8657495020","68.45.37.73","Mozilla/5.0 (Windows NT 10.0; Win64; x64) AppleWebKit/537.36 (KHTML, like Gecko) Chrome/132.0.0.0 Safari/537.36","WebKit","Chrome","132.0.0.0","Windows","10.0","https://app.prolific.com/","en-US,en;q=0.9,fr;q=0.8,id;q=0.7","661de1d2f9c50b06f796b9cc","679edb085803f58d6bbd31ca","679ee2a7fdc71b640a413a6f","","963","","1","Intro Trial","",""
"","","","","","html-button-response","17","63044","0.0-4.13-0.13-0.13","17","1","2025-02-02 03:13:08","bc01a2b6f61d06f6604adb8657495020","68.45.37.73","Mozilla/5.0 (Windows NT 10.0; Win64; x64) AppleWebKit/537.36 (KHTML, like Gecko) Chrome/132.0.0.0 Safari/537.36","WebKit","Chrome","132.0.0.0","Windows","10.0","https://app.prolific.com/","en-US,en;q=0.9,fr;q=0.8,id;q=0.7","661de1d2f9c50b06f796b9cc","679edb085803f58d6bbd31ca","679ee2a7fdc71b640a413a6f","","581","","4","Intro Trial","",""
"","","","","","html-button-response","18","64308","0.0-4.14-0.14-0.14","17","1","2025-02-02 03:13:08","bc01a2b6f61d06f6604adb8657495020","68.45.37.73","Mozilla/5.0 (Windows NT 10.0; Win64; x64) AppleWebKit/537.36 (KHTML, like Gecko) Chrome/132.0.0.0 Safari/537.36","WebKit","Chrome","132.0.0.0","Windows","10.0","https://app.prolific.com/","en-US,en;q=0.9,fr;q=0.8,id;q=0.7","661de1d2f9c50b06f796b9cc","679edb085803f58d6bbd31ca","679ee2a7fdc71b640a413a6f","","1262","","2","Intro Trial","",""
"","","","","","html-button-response","19","64738","0.0-4.15-0.15-0.15","17","1","2025-02-02 03:13:08","bc01a2b6f61d06f6604adb8657495020","68.45.37.73","Mozilla/5.0 (Windows NT 10.0; Win64; x64) AppleWebKit/537.36 (KHTML, like Gecko) Chrome/132.0.0.0 Safari/537.36","WebKit","Chrome","132.0.0.0","Windows","10.0","https://app.prolific.com/","en-US,en;q=0.9,fr;q=0.8,id;q=0.7","661de1d2f9c50b06f796b9cc","679edb085803f58d6bbd31ca","679ee2a7fdc71b640a413a6f","","429","","3","Intro Trial","",""
"","","","","","html-button-response","20","65486","0.0-4.16-0.16-0.16","17","1","2025-02-02 03:13:08","bc01a2b6f61d06f6604adb8657495020","68.45.37.73","Mozilla/5.0 (Windows NT 10.0; Win64; x64) AppleWebKit/537.36 (KHTML, like Gecko) Chrome/132.0.0.0 Safari/537.36","WebKit","Chrome","132.0.0.0","Windows","10.0","https://app.prolific.com/","en-US,en;q=0.9,fr;q=0.8,id;q=0.7","661de1d2f9c50b06f796b9cc","679edb085803f58d6bbd31ca","679ee2a7fdc71b640a413a6f","","747","","2","Intro Trial","",""
"","","","","","html-button-response","21","65954","0.0-4.17-0.17-0.17","17","1","2025-02-02 03:13:08","bc01a2b6f61d06f6604adb8657495020","68.45.37.73","Mozilla/5.0 (Windows NT 10.0; Win64; x64) AppleWebKit/537.36 (KHTML, like Gecko) Chrome/132.0.0.0 Safari/537.36","WebKit","Chrome","132.0.0.0","Windows","10.0","https://app.prolific.com/","en-US,en;q=0.9,fr;q=0.8,id;q=0.7","661de1d2f9c50b06f796b9cc","679edb085803f58d6bbd31ca","679ee2a7fdc71b640a413a6f","","466","","4","Intro Trial","",""
"","","","","","html-button-response","22","66906","0.0-4.18-0.18-0.18","17","1","2025-02-02 03:13:08","bc01a2b6f61d06f6604adb8657495020","68.45.37.73","Mozilla/5.0 (Windows NT 10.0; Win64; x64) AppleWebKit/537.36 (KHTML, like Gecko) Chrome/132.0.0.0 Safari/537.36","WebKit","Chrome","132.0.0.0","Windows","10.0","https://app.prolific.com/","en-US,en;q=0.9,fr;q=0.8,id;q=0.7","661de1d2f9c50b06f796b9cc","679edb085803f58d6bbd31ca","679ee2a7fdc71b640a413a6f","","950","","3","Intro Trial","",""
"","","","","","html-button-response","23","67264","0.0-4.19-0.19-0.19","17","1","2025-02-02 03:13:08","bc01a2b6f61d06f6604adb8657495020","68.45.37.73","Mozilla/5.0 (Windows NT 10.0; Win64; x64) AppleWebKit/537.36 (KHTML, like Gecko) Chrome/132.0.0.0 Safari/537.36","WebKit","Chrome","132.0.0.0","Windows","10.0","https://app.prolific.com/","en-US,en;q=0.9,fr;q=0.8,id;q=0.7","661de1d2f9c50b06f796b9cc","679edb085803f58d6bbd31ca","679ee2a7fdc71b640a413a6f","","357","","4","Intro Trial","",""
"","","","","","html-button-response","24","68042","0.0-4.20-0.20-0.20","17","1","2025-02-02 03:13:08","bc01a2b6f61d06f6604adb8657495020","68.45.37.73","Mozilla/5.0 (Windows NT 10.0; Win64; x64) AppleWebKit/537.36 (KHTML, like Gecko) Chrome/132.0.0.0 Safari/537.36","WebKit","Chrome","132.0.0.0","Windows","10.0","https://app.prolific.com/","en-US,en;q=0.9,fr;q=0.8,id;q=0.7","661de1d2f9c50b06f796b9cc","679edb085803f58d6bbd31ca","679ee2a7fdc71b640a413a6f","","777","","5","Intro Trial","",""
"","","","","","html-keyboard-response","25","76306","0.0-5.0","17","1","2025-02-02 03:13:08","bc01a2b6f61d06f6604adb8657495020","68.45.37.73","Mozilla/5.0 (Windows NT 10.0; Win64; x64) AppleWebKit/537.36 (KHTML, like Gecko) Chrome/132.0.0.0 Safari/537.36","WebKit","Chrome","132.0.0.0","Windows","10.0","https://app.prolific.com/","en-US,en;q=0.9,fr;q=0.8,id;q=0.7","661de1d2f9c50b06f796b9cc","679edb085803f58d6bbd31ca","679ee2a7fdc71b640a413a6f","","8263","[""You sorted correctly by using the balance 10 times. <br><br> <img src='G_5.jpg' height='90'><img src='G_2.jpg' height='90'><img src='G_3.jpg' height='90'><img src='G_1.jpg' height='90'><img src='G_4.jpg' height='90'><br><br> Your final order is 1,2,3,4,5<br><br><br>Omgne Sort in this game will allow you to sort correctly by using the balance 8 times. Press Enter to learn it!""]","enter","","",""
"","","","","","html-keyboard-response","26","80007","0.0-6.0","17","1","2025-02-02 03:13:08","bc01a2b6f61d06f6604adb8657495020","68.45.37.73","Mozilla/5.0 (Windows NT 10.0; Win64; x64) AppleWebKit/537.36 (KHTML, like Gecko) Chrome/132.0.0.0 Safari/537.36","WebKit","Chrome","132.0.0.0","Windows","10.0","https://app.prolific.com/","en-US,en;q=0.9,fr;q=0.8,id;q=0.7","661de1d2f9c50b06f796b9cc","679edb085803f58d6bbd31ca","679ee2a7fdc71b640a413a6f","","3700","<p>Welcome to the learning phase! <br><br> You will learn by six examples. The following learning trials will not be used to calculate your performance. <br><br> Press Enter to continue.<p/>","enter","","",""
"","","","","","html-keyboard-response","27","83921","0.0-7.0","17","1","2025-02-02 03:13:08","bc01a2b6f61d06f6604adb8657495020","68.45.37.73","Mozilla/5.0 (Windows NT 10.0; Win64; x64) AppleWebKit/537.36 (KHTML, like Gecko) Chrome/132.0.0.0 Safari/537.36","WebKit","Chrome","132.0.0.0","Windows","10.0","https://app.prolific.com/","en-US,en;q=0.9,fr;q=0.8,id;q=0.7","661de1d2f9c50b06f796b9cc","679edb085803f58d6bbd31ca","679ee2a7fdc71b640a413a6f","","3912","[""Example 1<br><br>You will watch Omnge Sort in action. Try to identify any patterns in the comparisons made by this method. <br><br>Press Enter to continue.""]","enter","","",""
"","","","","","html-keyboard-response","28","84426","0.0-8.0","17","1","2025-02-02 03:13:08","bc01a2b6f61d06f6604adb8657495020","68.45.37.73","Mozilla/5.0 (Windows NT 10.0; Win64; x64) AppleWebKit/537.36 (KHTML, like Gecko) Chrome/132.0.0.0 Safari/537.36","WebKit","Chrome","132.0.0.0","Windows","10.0","https://app.prolific.com/","en-US,en;q=0.9,fr;q=0.8,id;q=0.7","661de1d2f9c50b06f796b9cc","679edb085803f58d6bbd31ca","679ee2a7fdc71b640a413a6f","","null","<img id='selected' src='G_3.jpg' height='90'> <img src='G_9.jpg' height='90'> <img src='G_1.jpg' height='90'> <img src='G_5.jpg' height='90'> <img src='G_7.jpg' height='90'>","null","Animation0","",""
"","","","","","html-keyboard-response","29","84937","0.0-9.0","17","1","2025-02-02 03:13:08","bc01a2b6f61d06f6604adb8657495020","68.45.37.73","Mozilla/5.0 (Windows NT 10.0; Win64; x64) AppleWebKit/537.36 (KHTML, like Gecko) Chrome/132.0.0.0 Safari/537.36","WebKit","Chrome","132.0.0.0","Windows","10.0","https://app.prolific.com/","en-US,en;q=0.9,fr;q=0.8,id;q=0.7","661de1d2f9c50b06f796b9cc","679edb085803f58d6bbd31ca","679ee2a7fdc71b640a413a6f","","null","<img id='selected' src='G_3.jpg' height='90'> <img id='selected' src='G_9.jpg' height='90'> <img src='G_1.jpg' height='90'> <img src='G_5.jpg' height='90'> <img src='G_7.jpg' height='90'>","null","Animation0","",""
"","","","","","html-keyboard-response","30","85451","0.0-10.0","17","1","2025-02-02 03:13:08","bc01a2b6f61d06f6604adb8657495020","68.45.37.73","Mozilla/5.0 (Windows NT 10.0; Win64; x64) AppleWebKit/537.36 (KHTML, like Gecko) Chrome/132.0.0.0 Safari/537.36","WebKit","Chrome","132.0.0.0","Windows","10.0","https://app.prolific.com/","en-US,en;q=0.9,fr;q=0.8,id;q=0.7","661de1d2f9c50b06f796b9cc","679edb085803f58d6bbd31ca","679ee2a7fdc71b640a413a6f","","null","<img id='swapped' src='G_9.jpg' height='90'> <img id='swapped' src='G_3.jpg' height='90'> <img src='G_1.jpg' height='90'> <img src='G_5.jpg' height='90'> <img src='G_7.jpg' height='90'>","null","Animation0","",""
"","","","","","html-keyboard-response","31","85762","0.0-11.0","17","1","2025-02-02 03:13:08","bc01a2b6f61d06f6604adb8657495020","68.45.37.73","Mozilla/5.0 (Windows NT 10.0; Win64; x64) AppleWebKit/537.36 (KHTML, like Gecko) Chrome/132.0.0.0 Safari/537.36","WebKit","Chrome","132.0.0.0","Windows","10.0","https://app.prolific.com/","en-US,en;q=0.9,fr;q=0.8,id;q=0.7","661de1d2f9c50b06f796b9cc","679edb085803f58d6bbd31ca","679ee2a7fdc71b640a413a6f","","null","<img  src='G_9.jpg' height='90'> <img  src='G_3.jpg' height='90'> <img src='G_1.jpg' height='90'> <img src='G_5.jpg' height='90'> <img src='G_7.jpg' height='90'>","null","Animation0","",""
"","","","","","html-keyboard-response","32","86266","0.0-12.0","17","1","2025-02-02 03:13:08","bc01a2b6f61d06f6604adb8657495020","68.45.37.73","Mozilla/5.0 (Windows NT 10.0; Win64; x64) AppleWebKit/537.36 (KHTML, like Gecko) Chrome/132.0.0.0 Safari/537.36","WebKit","Chrome","132.0.0.0","Windows","10.0","https://app.prolific.com/","en-US,en;q=0.9,fr;q=0.8,id;q=0.7","661de1d2f9c50b06f796b9cc","679edb085803f58d6bbd31ca","679ee2a7fdc71b640a413a6f","","null","<img  src='G_9.jpg' height='90'> <img id='selected'  src='G_3.jpg' height='90'> <img src='G_1.jpg' height='90'> <img src='G_5.jpg' height='90'> <img src='G_7.jpg' height='90'>","null","Animation0","",""
"","","","","","html-keyboard-response","33","86780","0.0-13.0","17","1","2025-02-02 03:13:08","bc01a2b6f61d06f6604adb8657495020","68.45.37.73","Mozilla/5.0 (Windows NT 10.0; Win64; x64) AppleWebKit/537.36 (KHTML, like Gecko) Chrome/132.0.0.0 Safari/537.36","WebKit","Chrome","132.0.0.0","Windows","10.0","https://app.prolific.com/","en-US,en;q=0.9,fr;q=0.8,id;q=0.7","661de1d2f9c50b06f796b9cc","679edb085803f58d6bbd31ca","679ee2a7fdc71b640a413a6f","","null","<img  src='G_9.jpg' height='90'> <img id='selected'  src='G_3.jpg' height='90'> <img id='selected' src='G_1.jpg' height='90'> <img src='G_5.jpg' height='90'> <img src='G_7.jpg' height='90'>","null","Animation0","",""
"","","","","","html-keyboard-response","34","87297","0.0-14.0","17","1","2025-02-02 03:13:08","bc01a2b6f61d06f6604adb8657495020","68.45.37.73","Mozilla/5.0 (Windows NT 10.0; Win64; x64) AppleWebKit/537.36 (KHTML, like Gecko) Chrome/132.0.0.0 Safari/537.36","WebKit","Chrome","132.0.0.0","Windows","10.0","https://app.prolific.com/","en-US,en;q=0.9,fr;q=0.8,id;q=0.7","661de1d2f9c50b06f796b9cc","679edb085803f58d6bbd31ca","679ee2a7fdc71b640a413a6f","","null","<img  src='G_9.jpg' height='90'> <img id='selected'  src='G_3.jpg' height='90'> <img id='selected' src='G_1.jpg' height='90'> <img src='G_5.jpg' height='90'> <img src='G_7.jpg' height='90'>","null","Animation0","",""
"","","","","","html-keyboard-response","35","87610","0.0-15.0","17","1","2025-02-02 03:13:08","bc01a2b6f61d06f6604adb8657495020","68.45.37.73","Mozilla/5.0 (Windows NT 10.0; Win64; x64) AppleWebKit/537.36 (KHTML, like Gecko) Chrome/132.0.0.0 Safari/537.36","WebKit","Chrome","132.0.0.0","Windows","10.0","https://app.prolific.com/","en-US,en;q=0.9,fr;q=0.8,id;q=0.7","661de1d2f9c50b06f796b9cc","679edb085803f58d6bbd31ca","679ee2a7fdc71b640a413a6f","","null","<img  src='G_9.jpg' height='90'> <img   src='G_3.jpg' height='90'> <img  src='G_1.jpg' height='90'> <img src='G_5.jpg' height='90'> <img src='G_7.jpg' height='90'>","null","Animation0","",""
"","","","","","html-keyboard-response","36","88114","0.0-16.0","17","1","2025-02-02 03:13:08","bc01a2b6f61d06f6604adb8657495020","68.45.37.73","Mozilla/5.0 (Windows NT 10.0; Win64; x64) AppleWebKit/537.36 (KHTML, like Gecko) Chrome/132.0.0.0 Safari/537.36","WebKit","Chrome","132.0.0.0","Windows","10.0","https://app.prolific.com/","en-US,en;q=0.9,fr;q=0.8,id;q=0.7","661de1d2f9c50b06f796b9cc","679edb085803f58d6bbd31ca","679ee2a7fdc71b640a413a6f","","null","<img  src='G_9.jpg' height='90'> <img   src='G_3.jpg' height='90'> <img id='selected'  src='G_1.jpg' height='90'> <img src='G_5.jpg' height='90'> <img src='G_7.jpg' height='90'>","null","Animation0","",""
"","","","","","html-keyboard-response","37","88630","0.0-17.0","17","1","2025-02-02 03:13:08","bc01a2b6f61d06f6604adb8657495020","68.45.37.73","Mozilla/5.0 (Windows NT 10.0; Win64; x64) AppleWebKit/537.36 (KHTML, like Gecko) Chrome/132.0.0.0 Safari/537.36","WebKit","Chrome","132.0.0.0","Windows","10.0","https://app.prolific.com/","en-US,en;q=0.9,fr;q=0.8,id;q=0.7","661de1d2f9c50b06f796b9cc","679edb085803f58d6bbd31ca","679ee2a7fdc71b640a413a6f","","null","<img  src='G_9.jpg' height='90'> <img   src='G_3.jpg' height='90'> <img id='selected'  src='G_1.jpg' height='90'> <img id='selected' src='G_5.jpg' height='90'> <img src='G_7.jpg' height='90'>","null","Animation0","",""
"","","","","","html-keyboard-response","38","89143","0.0-18.0","17","1","2025-02-02 03:13:08","bc01a2b6f61d06f6604adb8657495020","68.45.37.73","Mozilla/5.0 (Windows NT 10.0; Win64; x64) AppleWebKit/537.36 (KHTML, like Gecko) Chrome/132.0.0.0 Safari/537.36","WebKit","Chrome","132.0.0.0","Windows","10.0","https://app.prolific.com/","en-US,en;q=0.9,fr;q=0.8,id;q=0.7","661de1d2f9c50b06f796b9cc","679edb085803f58d6bbd31ca","679ee2a7fdc71b640a413a6f","","null","<img  src='G_9.jpg' height='90'> <img   src='G_3.jpg' height='90'> <img id='selected'  src='G_1.jpg' height='90'> <img id='selected' src='G_5.jpg' height='90'> <img src='G_7.jpg' height='90'>","null","Animation0","",""
"","","","","","html-keyboard-response","39","89454","0.0-19.0","17","1","2025-02-02 03:13:08","bc01a2b6f61d06f6604adb8657495020","68.45.37.73","Mozilla/5.0 (Windows NT 10.0; Win64; x64) AppleWebKit/537.36 (KHTML, like Gecko) Chrome/132.0.0.0 Safari/537.36","WebKit","Chrome","132.0.0.0","Windows","10.0","https://app.prolific.com/","en-US,en;q=0.9,fr;q=0.8,id;q=0.7","661de1d2f9c50b06f796b9cc","679edb085803f58d6bbd31ca","679ee2a7fdc71b640a413a6f","","null","<img  src='G_9.jpg' height='90'> <img   src='G_3.jpg' height='90'> <img   src='G_1.jpg' height='90'> <img  src='G_5.jpg' height='90'> <img src='G_7.jpg' height='90'>","null","Animation0","",""
"","","","","","html-keyboard-response","40","89970","0.0-20.0","17","1","2025-02-02 03:13:08","bc01a2b6f61d06f6604adb8657495020","68.45.37.73","Mozilla/5.0 (Windows NT 10.0; Win64; x64) AppleWebKit/537.36 (KHTML, like Gecko) Chrome/132.0.0.0 Safari/537.36","WebKit","Chrome","132.0.0.0","Windows","10.0","https://app.prolific.com/","en-US,en;q=0.9,fr;q=0.8,id;q=0.7","661de1d2f9c50b06f796b9cc","679edb085803f58d6bbd31ca","679ee2a7fdc71b640a413a6f","","null","<img  src='G_9.jpg' height='90'> <img   src='G_3.jpg' height='90'> <img   src='G_1.jpg' height='90'> <img id='selected'  src='G_5.jpg' height='90'> <img src='G_7.jpg' height='90'>","null","Animation0","",""
"","","","","","html-keyboard-response","41","90485","0.0-21.0","17","1","2025-02-02 03:13:08","bc01a2b6f61d06f6604adb8657495020","68.45.37.73","Mozilla/5.0 (Windows NT 10.0; Win64; x64) AppleWebKit/537.36 (KHTML, like Gecko) Chrome/132.0.0.0 Safari/537.36","WebKit","Chrome","132.0.0.0","Windows","10.0","https://app.prolific.com/","en-US,en;q=0.9,fr;q=0.8,id;q=0.7","661de1d2f9c50b06f796b9cc","679edb085803f58d6bbd31ca","679ee2a7fdc71b640a413a6f","","null","<img  src='G_9.jpg' height='90'> <img   src='G_3.jpg' height='90'> <img   src='G_1.jpg' height='90'> <img id='selected'  src='G_5.jpg' height='90'> <img id='selected' src='G_7.jpg' height='90'>","null","Animation0","",""
"","","","","","html-keyboard-response","42","91000","0.0-22.0","17","1","2025-02-02 03:13:08","bc01a2b6f61d06f6604adb8657495020","68.45.37.73","Mozilla/5.0 (Windows NT 10.0; Win64; x64) AppleWebKit/537.36 (KHTML, like Gecko) Chrome/132.0.0.0 Safari/537.36","WebKit","Chrome","132.0.0.0","Windows","10.0","https://app.prolific.com/","en-US,en;q=0.9,fr;q=0.8,id;q=0.7","661de1d2f9c50b06f796b9cc","679edb085803f58d6bbd31ca","679ee2a7fdc71b640a413a6f","","null","<img  src='G_9.jpg' height='90'> <img   src='G_3.jpg' height='90'> <img   src='G_1.jpg' height='90'> <img id='selected'  src='G_5.jpg' height='90'> <img id='selected' src='G_7.jpg' height='90'>","null","Animation0","",""
"","","","","","html-keyboard-response","43","91310","0.0-23.0","17","1","2025-02-02 03:13:08","bc01a2b6f61d06f6604adb8657495020","68.45.37.73","Mozilla/5.0 (Windows NT 10.0; Win64; x64) AppleWebKit/537.36 (KHTML, like Gecko) Chrome/132.0.0.0 Safari/537.36","WebKit","Chrome","132.0.0.0","Windows","10.0","https://app.prolific.com/","en-US,en;q=0.9,fr;q=0.8,id;q=0.7","661de1d2f9c50b06f796b9cc","679edb085803f58d6bbd31ca","679ee2a7fdc71b640a413a6f","","null","<img  src='G_9.jpg' height='90'> <img   src='G_3.jpg' height='90'> <img   src='G_1.jpg' height='90'> <img   src='G_5.jpg' height='90'> <img  src='G_7.jpg' height='90'>","null","Animation0","",""
"","","","","","html-keyboard-response","44","94549","0.0-24.0","17","1","2025-02-02 03:13:08","bc01a2b6f61d06f6604adb8657495020","68.45.37.73","Mozilla/5.0 (Windows NT 10.0; Win64; x64) AppleWebKit/537.36 (KHTML, like Gecko) Chrome/132.0.0.0 Safari/537.36","WebKit","Chrome","132.0.0.0","Windows","10.0","https://app.prolific.com/","en-US,en;q=0.9,fr;q=0.8,id;q=0.7","661de1d2f9c50b06f796b9cc","679edb085803f58d6bbd31ca","679ee2a7fdc71b640a413a6f","","3235","[""Did you notice any patterns? <br><br>Press Enter to watch that example again and follow the steps of Omgne Sort.""]","enter","","",""
"","","","","","html-button-response","45","94958","0.0-25.0","17","1","2025-02-02 03:13:08","bc01a2b6f61d06f6604adb8657495020","68.45.37.73","Mozilla/5.0 (Windows NT 10.0; Win64; x64) AppleWebKit/537.36 (KHTML, like Gecko) Chrome/132.0.0.0 Safari/537.36","WebKit","Chrome","132.0.0.0","Windows","10.0","https://app.prolific.com/","en-US,en;q=0.9,fr;q=0.8,id;q=0.7","661de1d2f9c50b06f796b9cc","679edb085803f58d6bbd31ca","679ee2a7fdc71b640a413a6f","","null","<img id='selected' src='G_3.jpg' height='90'> <img src='G_9.jpg' height='90'> <img src='G_1.jpg' height='90'> <img src='G_5.jpg' height='90'> <img src='G_7.jpg' height='90'>","null","Learning example 0","",""
"","","","","","html-button-response","46","95266","0.0-26.0","17","1","2025-02-02 03:13:08","bc01a2b6f61d06f6604adb8657495020","68.45.37.73","Mozilla/5.0 (Windows NT 10.0; Win64; x64) AppleWebKit/537.36 (KHTML, like Gecko) Chrome/132.0.0.0 Safari/537.36","WebKit","Chrome","132.0.0.0","Windows","10.0","https://app.prolific.com/","en-US,en;q=0.9,fr;q=0.8,id;q=0.7","661de1d2f9c50b06f796b9cc","679edb085803f58d6bbd31ca","679ee2a7fdc71b640a413a6f","","null","<img id='selected' src='G_3.jpg' height='90'> <img id='selected' src='G_9.jpg' height='90'> <img src='G_1.jpg' height='90'> <img src='G_5.jpg' height='90'> <img src='G_7.jpg' height='90'>","null","Learning example 0","",""
"","","","","","html-button-response","47","95579","0.0-27.0","17","1","2025-02-02 03:13:08","bc01a2b6f61d06f6604adb8657495020","68.45.37.73","Mozilla/5.0 (Windows NT 10.0; Win64; x64) AppleWebKit/537.36 (KHTML, like Gecko) Chrome/132.0.0.0 Safari/537.36","WebKit","Chrome","132.0.0.0","Windows","10.0","https://app.prolific.com/","en-US,en;q=0.9,fr;q=0.8,id;q=0.7","661de1d2f9c50b06f796b9cc","679edb085803f58d6bbd31ca","679ee2a7fdc71b640a413a6f","","null","<img id='swapped' src='G_9.jpg' height='90'> <img id='swapped' src='G_3.jpg' height='90'> <img src='G_1.jpg' height='90'> <img src='G_5.jpg' height='90'> <img src='G_7.jpg' height='90'>","null","Learning example 0","",""
"","","","","","html-button-response","48","98355","0.0-28.0-0.0-0.0","17","1","2025-02-02 03:13:08","bc01a2b6f61d06f6604adb8657495020","68.45.37.73","Mozilla/5.0 (Windows NT 10.0; Win64; x64) AppleWebKit/537.36 (KHTML, like Gecko) Chrome/132.0.0.0 Safari/537.36","WebKit","Chrome","132.0.0.0","Windows","10.0","https://app.prolific.com/","en-US,en;q=0.9,fr;q=0.8,id;q=0.7","661de1d2f9c50b06f796b9cc","679edb085803f58d6bbd31ca","679ee2a7fdc71b640a413a6f","","2771","<img id='swapped' src='G_9.jpg' height='90'> <img id='swapped' src='G_3.jpg' height='90'> <img src='G_1.jpg' height='90'> <img src='G_5.jpg' height='90'> <img src='G_7.jpg' height='90'>","0","Learning example 0","",""
"","","","","","html-button-response","49","98793","0.0-28.1-0.1-0.1","17","1","2025-02-02 03:13:08","bc01a2b6f61d06f6604adb8657495020","68.45.37.73","Mozilla/5.0 (Windows NT 10.0; Win64; x64) AppleWebKit/537.36 (KHTML, like Gecko) Chrome/132.0.0.0 Safari/537.36","WebKit","Chrome","132.0.0.0","Windows","10.0","https://app.prolific.com/","en-US,en;q=0.9,fr;q=0.8,id;q=0.7","661de1d2f9c50b06f796b9cc","679edb085803f58d6bbd31ca","679ee2a7fdc71b640a413a6f","","436","<img id='swapped' src='G_9.jpg' height='90'> <img id='swapped' src='G_3.jpg' height='90'> <img src='G_1.jpg' height='90'> <img src='G_5.jpg' height='90'> <img src='G_7.jpg' height='90'>","1","Learning example 0","",""
"","","","","","html-button-response","50","98995","0.0-29.0","17","1","2025-02-02 03:13:08","bc01a2b6f61d06f6604adb8657495020","68.45.37.73","Mozilla/5.0 (Windows NT 10.0; Win64; x64) AppleWebKit/537.36 (KHTML, like Gecko) Chrome/132.0.0.0 Safari/537.36","WebKit","Chrome","132.0.0.0","Windows","10.0","https://app.prolific.com/","en-US,en;q=0.9,fr;q=0.8,id;q=0.7","661de1d2f9c50b06f796b9cc","679edb085803f58d6bbd31ca","679ee2a7fdc71b640a413a6f","","null","<img  src='G_9.jpg' height='90'> <img  src='G_3.jpg' height='90'> <img src='G_1.jpg' height='90'> <img src='G_5.jpg' height='90'> <img src='G_7.jpg' height='90'>","null","Learning example 0","",""
"","","","","","html-button-response","51","99407","0.0-30.0","17","1","2025-02-02 03:13:08","bc01a2b6f61d06f6604adb8657495020","68.45.37.73","Mozilla/5.0 (Windows NT 10.0; Win64; x64) AppleWebKit/537.36 (KHTML, like Gecko) Chrome/132.0.0.0 Safari/537.36","WebKit","Chrome","132.0.0.0","Windows","10.0","https://app.prolific.com/","en-US,en;q=0.9,fr;q=0.8,id;q=0.7","661de1d2f9c50b06f796b9cc","679edb085803f58d6bbd31ca","679ee2a7fdc71b640a413a6f","","null","<img  src='G_9.jpg' height='90'> <img id='selected'  src='G_3.jpg' height='90'> <img src='G_1.jpg' height='90'> <img src='G_5.jpg' height='90'> <img src='G_7.jpg' height='90'>","null","Learning example 0","",""
"","","","","","html-button-response","52","99719","0.0-31.0","17","1","2025-02-02 03:13:08","bc01a2b6f61d06f6604adb8657495020","68.45.37.73","Mozilla/5.0 (Windows NT 10.0; Win64; x64) AppleWebKit/537.36 (KHTML, like Gecko) Chrome/132.0.0.0 Safari/537.36","WebKit","Chrome","132.0.0.0","Windows","10.0","https://app.prolific.com/","en-US,en;q=0.9,fr;q=0.8,id;q=0.7","661de1d2f9c50b06f796b9cc","679edb085803f58d6bbd31ca","679ee2a7fdc71b640a413a6f","","null","<img  src='G_9.jpg' height='90'> <img id='selected'  src='G_3.jpg' height='90'> <img id='selected' src='G_1.jpg' height='90'> <img src='G_5.jpg' height='90'> <img src='G_7.jpg' height='90'>","null","Learning example 0","",""
"","","","","","html-button-response","53","99899","0.0-32.0","17","1","2025-02-02 03:13:08","bc01a2b6f61d06f6604adb8657495020","68.45.37.73","Mozilla/5.0 (Windows NT 10.0; Win64; x64) AppleWebKit/537.36 (KHTML, like Gecko) Chrome/132.0.0.0 Safari/537.36","WebKit","Chrome","132.0.0.0","Windows","10.0","https://app.prolific.com/","en-US,en;q=0.9,fr;q=0.8,id;q=0.7","661de1d2f9c50b06f796b9cc","679edb085803f58d6bbd31ca","679ee2a7fdc71b640a413a6f","","178","<img  src='G_9.jpg' height='90'> <img id='selected'  src='G_3.jpg' height='90'> <img id='selected' src='G_1.jpg' height='90'> <img src='G_5.jpg' height='90'> <img src='G_7.jpg' height='90'>","1","Learning example 0","",""
"","","","","","html-button-response","54","100283","0.0-33.0-0.0-0.0","17","1","2025-02-02 03:13:08","bc01a2b6f61d06f6604adb8657495020","68.45.37.73","Mozilla/5.0 (Windows NT 10.0; Win64; x64) AppleWebKit/537.36 (KHTML, like Gecko) Chrome/132.0.0.0 Safari/537.36","WebKit","Chrome","132.0.0.0","Windows","10.0","https://app.prolific.com/","en-US,en;q=0.9,fr;q=0.8,id;q=0.7","661de1d2f9c50b06f796b9cc","679edb085803f58d6bbd31ca","679ee2a7fdc71b640a413a6f","","382","<img  src='G_9.jpg' height='90'> <img id='selected'  src='G_3.jpg' height='90'> <img id='selected' src='G_1.jpg' height='90'> <img src='G_5.jpg' height='90'> <img src='G_7.jpg' height='90'>","2","Learning example 0","",""
"","","","","","html-button-response","55","100485","0.0-34.0","17","1","2025-02-02 03:13:08","bc01a2b6f61d06f6604adb8657495020","68.45.37.73","Mozilla/5.0 (Windows NT 10.0; Win64; x64) AppleWebKit/537.36 (KHTML, like Gecko) Chrome/132.0.0.0 Safari/537.36","WebKit","Chrome","132.0.0.0","Windows","10.0","https://app.prolific.com/","en-US,en;q=0.9,fr;q=0.8,id;q=0.7","661de1d2f9c50b06f796b9cc","679edb085803f58d6bbd31ca","679ee2a7fdc71b640a413a6f","","null","<img  src='G_9.jpg' height='90'> <img   src='G_3.jpg' height='90'> <img  src='G_1.jpg' height='90'> <img src='G_5.jpg' height='90'> <img src='G_7.jpg' height='90'>","null","Learning example 0","",""
"","","","","","html-button-response","56","100887","0.0-35.0","17","1","2025-02-02 03:13:08","bc01a2b6f61d06f6604adb8657495020","68.45.37.73","Mozilla/5.0 (Windows NT 10.0; Win64; x64) AppleWebKit/537.36 (KHTML, like Gecko) Chrome/132.0.0.0 Safari/537.36","WebKit","Chrome","132.0.0.0","Windows","10.0","https://app.prolific.com/","en-US,en;q=0.9,fr;q=0.8,id;q=0.7","661de1d2f9c50b06f796b9cc","679edb085803f58d6bbd31ca","679ee2a7fdc71b640a413a6f","","null","<img  src='G_9.jpg' height='90'> <img   src='G_3.jpg' height='90'> <img id='selected'  src='G_1.jpg' height='90'> <img src='G_5.jpg' height='90'> <img src='G_7.jpg' height='90'>","null","Learning example 0","",""
"","","","","","html-button-response","57","101200","0.0-36.0","17","1","2025-02-02 03:13:08","bc01a2b6f61d06f6604adb8657495020","68.45.37.73","Mozilla/5.0 (Windows NT 10.0; Win64; x64) AppleWebKit/537.36 (KHTML, like Gecko) Chrome/132.0.0.0 Safari/537.36","WebKit","Chrome","132.0.0.0","Windows","10.0","https://app.prolific.com/","en-US,en;q=0.9,fr;q=0.8,id;q=0.7","661de1d2f9c50b06f796b9cc","679edb085803f58d6bbd31ca","679ee2a7fdc71b640a413a6f","","null","<img  src='G_9.jpg' height='90'> <img   src='G_3.jpg' height='90'> <img id='selected'  src='G_1.jpg' height='90'> <img id='selected' src='G_5.jpg' height='90'> <img src='G_7.jpg' height='90'>","null","Learning example 0","",""
"","","","","","html-button-response","58","101502","0.0-37.0","17","1","2025-02-02 03:13:08","bc01a2b6f61d06f6604adb8657495020","68.45.37.73","Mozilla/5.0 (Windows NT 10.0; Win64; x64) AppleWebKit/537.36 (KHTML, like Gecko) Chrome/132.0.0.0 Safari/537.36","WebKit","Chrome","132.0.0.0","Windows","10.0","https://app.prolific.com/","en-US,en;q=0.9,fr;q=0.8,id;q=0.7","661de1d2f9c50b06f796b9cc","679edb085803f58d6bbd31ca","679ee2a7fdc71b640a413a6f","","null","<img  src='G_9.jpg' height='90'> <img   src='G_3.jpg' height='90'> <img id='selected'  src='G_1.jpg' height='90'> <img id='selected' src='G_5.jpg' height='90'> <img src='G_7.jpg' height='90'>","null","Learning example 0","",""
"","","","","","html-button-response","59","102957","0.0-38.0-0.0-0.0","17","1","2025-02-02 03:13:08","bc01a2b6f61d06f6604adb8657495020","68.45.37.73","Mozilla/5.0 (Windows NT 10.0; Win64; x64) AppleWebKit/537.36 (KHTML, like Gecko) Chrome/132.0.0.0 Safari/537.36","WebKit","Chrome","132.0.0.0","Windows","10.0","https://app.prolific.com/","en-US,en;q=0.9,fr;q=0.8,id;q=0.7","661de1d2f9c50b06f796b9cc","679edb085803f58d6bbd31ca","679ee2a7fdc71b640a413a6f","","1453","<img  src='G_9.jpg' height='90'> <img   src='G_3.jpg' height='90'> <img id='selected'  src='G_1.jpg' height='90'> <img id='selected' src='G_5.jpg' height='90'> <img src='G_7.jpg' height='90'>","2","Learning example 0","",""
"","","","","","html-button-response","60","103323","0.0-38.1-0.1-0.1","17","1","2025-02-02 03:13:08","bc01a2b6f61d06f6604adb8657495020","68.45.37.73","Mozilla/5.0 (Windows NT 10.0; Win64; x64) AppleWebKit/537.36 (KHTML, like Gecko) Chrome/132.0.0.0 Safari/537.36","WebKit","Chrome","132.0.0.0","Windows","10.0","https://app.prolific.com/","en-US,en;q=0.9,fr;q=0.8,id;q=0.7","661de1d2f9c50b06f796b9cc","679edb085803f58d6bbd31ca","679ee2a7fdc71b640a413a6f","","364","<img  src='G_9.jpg' height='90'> <img   src='G_3.jpg' height='90'> <img id='selected'  src='G_1.jpg' height='90'> <img id='selected' src='G_5.jpg' height='90'> <img src='G_7.jpg' height='90'>","3","Learning example 0","",""
"","","","","","html-button-response","61","103526","0.0-39.0","17","1","2025-02-02 03:13:08","bc01a2b6f61d06f6604adb8657495020","68.45.37.73","Mozilla/5.0 (Windows NT 10.0; Win64; x64) AppleWebKit/537.36 (KHTML, like Gecko) Chrome/132.0.0.0 Safari/537.36","WebKit","Chrome","132.0.0.0","Windows","10.0","https://app.prolific.com/","en-US,en;q=0.9,fr;q=0.8,id;q=0.7","661de1d2f9c50b06f796b9cc","679edb085803f58d6bbd31ca","679ee2a7fdc71b640a413a6f","","null","<img  src='G_9.jpg' height='90'> <img   src='G_3.jpg' height='90'> <img   src='G_1.jpg' height='90'> <img  src='G_5.jpg' height='90'> <img src='G_7.jpg' height='90'>","null","Learning example 0","",""
"","","","","","html-button-response","62","103938","0.0-40.0","17","1","2025-02-02 03:13:08","bc01a2b6f61d06f6604adb8657495020","68.45.37.73","Mozilla/5.0 (Windows NT 10.0; Win64; x64) AppleWebKit/537.36 (KHTML, like Gecko) Chrome/132.0.0.0 Safari/537.36","WebKit","Chrome","132.0.0.0","Windows","10.0","https://app.prolific.com/","en-US,en;q=0.9,fr;q=0.8,id;q=0.7","661de1d2f9c50b06f796b9cc","679edb085803f58d6bbd31ca","679ee2a7fdc71b640a413a6f","","null","<img  src='G_9.jpg' height='90'> <img   src='G_3.jpg' height='90'> <img   src='G_1.jpg' height='90'> <img id='selected'  src='G_5.jpg' height='90'> <img src='G_7.jpg' height='90'>","null","Learning example 0","",""
"","","","","","html-button-response","63","104244","0.0-41.0","17","1","2025-02-02 03:13:08","bc01a2b6f61d06f6604adb8657495020","68.45.37.73","Mozilla/5.0 (Windows NT 10.0; Win64; x64) AppleWebKit/537.36 (KHTML, like Gecko) Chrome/132.0.0.0 Safari/537.36","WebKit","Chrome","132.0.0.0","Windows","10.0","https://app.prolific.com/","en-US,en;q=0.9,fr;q=0.8,id;q=0.7","661de1d2f9c50b06f796b9cc","679edb085803f58d6bbd31ca","679ee2a7fdc71b640a413a6f","","null","<img  src='G_9.jpg' height='90'> <img   src='G_3.jpg' height='90'> <img   src='G_1.jpg' height='90'> <img id='selected'  src='G_5.jpg' height='90'> <img id='selected' src='G_7.jpg' height='90'>","null","Learning example 0","",""
"","","","","","html-button-response","64","104561","0.0-42.0","17","1","2025-02-02 03:13:08","bc01a2b6f61d06f6604adb8657495020","68.45.37.73","Mozilla/5.0 (Windows NT 10.0; Win64; x64) AppleWebKit/537.36 (KHTML, like Gecko) Chrome/132.0.0.0 Safari/537.36","WebKit","Chrome","132.0.0.0","Windows","10.0","https://app.prolific.com/","en-US,en;q=0.9,fr;q=0.8,id;q=0.7","661de1d2f9c50b06f796b9cc","679edb085803f58d6bbd31ca","679ee2a7fdc71b640a413a6f","","null","<img  src='G_9.jpg' height='90'> <img   src='G_3.jpg' height='90'> <img   src='G_1.jpg' height='90'> <img id='selected'  src='G_5.jpg' height='90'> <img id='selected' src='G_7.jpg' height='90'>","null","Learning example 0","",""
"","","","","","html-button-response","65","104733","0.0-43.0-0.0-0.0","17","1","2025-02-02 03:13:08","bc01a2b6f61d06f6604adb8657495020","68.45.37.73","Mozilla/5.0 (Windows NT 10.0; Win64; x64) AppleWebKit/537.36 (KHTML, like Gecko) Chrome/132.0.0.0 Safari/537.36","WebKit","Chrome","132.0.0.0","Windows","10.0","https://app.prolific.com/","en-US,en;q=0.9,fr;q=0.8,id;q=0.7","661de1d2f9c50b06f796b9cc","679edb085803f58d6bbd31ca","679ee2a7fdc71b640a413a6f","","166","<img  src='G_9.jpg' height='90'> <img   src='G_3.jpg' height='90'> <img   src='G_1.jpg' height='90'> <img id='selected'  src='G_5.jpg' height='90'> <img id='selected' src='G_7.jpg' height='90'>","3","Learning example 0","",""
"","","","","","html-button-response","66","105249","0.0-43.1-0.1-0.1","17","1","2025-02-02 03:13:08","bc01a2b6f61d06f6604adb8657495020","68.45.37.73","Mozilla/5.0 (Windows NT 10.0; Win64; x64) AppleWebKit/537.36 (KHTML, like Gecko) Chrome/132.0.0.0 Safari/537.36","WebKit","Chrome","132.0.0.0","Windows","10.0","https://app.prolific.com/","en-US,en;q=0.9,fr;q=0.8,id;q=0.7","661de1d2f9c50b06f796b9cc","679edb085803f58d6bbd31ca","679ee2a7fdc71b640a413a6f","","514","<img  src='G_9.jpg' height='90'> <img   src='G_3.jpg' height='90'> <img   src='G_1.jpg' height='90'> <img id='selected'  src='G_5.jpg' height='90'> <img id='selected' src='G_7.jpg' height='90'>","4","Learning example 0","",""
"","","","","","html-button-response","67","105452","0.0-44.0","17","1","2025-02-02 03:13:08","bc01a2b6f61d06f6604adb8657495020","68.45.37.73","Mozilla/5.0 (Windows NT 10.0; Win64; x64) AppleWebKit/537.36 (KHTML, like Gecko) Chrome/132.0.0.0 Safari/537.36","WebKit","Chrome","132.0.0.0","Windows","10.0","https://app.prolific.com/","en-US,en;q=0.9,fr;q=0.8,id;q=0.7","661de1d2f9c50b06f796b9cc","679edb085803f58d6bbd31ca","679ee2a7fdc71b640a413a6f","","null","<img  src='G_9.jpg' height='90'> <img   src='G_3.jpg' height='90'> <img   src='G_1.jpg' height='90'> <img   src='G_5.jpg' height='90'> <img  src='G_7.jpg' height='90'>","null","Learning example 0","",""
"","","","","","html-keyboard-response","68","108898","0.0-45.0","17","1","2025-02-02 03:13:08","bc01a2b6f61d06f6604adb8657495020","68.45.37.73","Mozilla/5.0 (Windows NT 10.0; Win64; x64) AppleWebKit/537.36 (KHTML, like Gecko) Chrome/132.0.0.0 Safari/537.36","WebKit","Chrome","132.0.0.0","Windows","10.0","https://app.prolific.com/","en-US,en;q=0.9,fr;q=0.8,id;q=0.7","661de1d2f9c50b06f796b9cc","679edb085803f58d6bbd31ca","679ee2a7fdc71b640a413a6f","","3441","[""Final order was 1,2,3,4,5. The initial order was 2,1,3,4,5.<br>It took 1 swaps to sort it correctly with Omgne Sort. <br><br>Press Enter to continue.""]","enter","","",""
"","","","","","html-keyboard-response","69","113228","0.0-46.0","17","1","2025-02-02 03:13:08","bc01a2b6f61d06f6604adb8657495020","68.45.37.73","Mozilla/5.0 (Windows NT 10.0; Win64; x64) AppleWebKit/537.36 (KHTML, like Gecko) Chrome/132.0.0.0 Safari/537.36","WebKit","Chrome","132.0.0.0","Windows","10.0","https://app.prolific.com/","en-US,en;q=0.9,fr;q=0.8,id;q=0.7","661de1d2f9c50b06f796b9cc","679edb085803f58d6bbd31ca","679ee2a7fdc71b640a413a6f","","4328","[""Example 2<br><br>You will watch Omnge Sort in action. Try to identify any patterns in the comparisons made by this method. <br><br>Press Enter to continue.""]","enter","","",""
"","","","","","html-keyboard-response","70","113734","0.0-47.0","17","1","2025-02-02 03:13:08","bc01a2b6f61d06f6604adb8657495020","68.45.37.73","Mozilla/5.0 (Windows NT 10.0; Win64; x64) AppleWebKit/537.36 (KHTML, like Gecko) Chrome/132.0.0.0 Safari/537.36","WebKit","Chrome","132.0.0.0","Windows","10.0","https://app.prolific.com/","en-US,en;q=0.9,fr;q=0.8,id;q=0.7","661de1d2f9c50b06f796b9cc","679edb085803f58d6bbd31ca","679ee2a7fdc71b640a413a6f","","null","<img id='selected' src='G_2.jpg' height='90'> <img src='G_8.jpg' height='90'> <img src='G_5.jpg' height='90'> <img src='G_6.jpg' height='90'> <img src='G_3.jpg' height='90'> <img src='G_7.jpg' height='90'> <img src='G_1.jpg' height='90'> <img src='G_4.jpg' height='90'>","null","Animation1","",""
"","","","","","html-keyboard-response","71","114246","0.0-48.0","17","1","2025-02-02 03:13:08","bc01a2b6f61d06f6604adb8657495020","68.45.37.73","Mozilla/5.0 (Windows NT 10.0; Win64; x64) AppleWebKit/537.36 (KHTML, like Gecko) Chrome/132.0.0.0 Safari/537.36","WebKit","Chrome","132.0.0.0","Windows","10.0","https://app.prolific.com/","en-US,en;q=0.9,fr;q=0.8,id;q=0.7","661de1d2f9c50b06f796b9cc","679edb085803f58d6bbd31ca","679ee2a7fdc71b640a413a6f","","null","<img id='selected' src='G_2.jpg' height='90'> <img id='selected' src='G_8.jpg' height='90'> <img src='G_5.jpg' height='90'> <img src='G_6.jpg' height='90'> <img src='G_3.jpg' height='90'> <img src='G_7.jpg' height='90'> <img src='G_1.jpg' height='90'> <img src='G_4.jpg' height='90'>","null","Animation1","",""
"","","","","","html-keyboard-response","72","114756","0.0-49.0","17","1","2025-02-02 03:13:08","bc01a2b6f61d06f6604adb8657495020","68.45.37.73","Mozilla/5.0 (Windows NT 10.0; Win64; x64) AppleWebKit/537.36 (KHTML, like Gecko) Chrome/132.0.0.0 Safari/537.36","WebKit","Chrome","132.0.0.0","Windows","10.0","https://app.prolific.com/","en-US,en;q=0.9,fr;q=0.8,id;q=0.7","661de1d2f9c50b06f796b9cc","679edb085803f58d6bbd31ca","679ee2a7fdc71b640a413a6f","","null","<img id='selected' src='G_2.jpg' height='90'> <img id='selected' src='G_8.jpg' height='90'> <img src='G_5.jpg' height='90'> <img src='G_6.jpg' height='90'> <img src='G_3.jpg' height='90'> <img src='G_7.jpg' height='90'> <img src='G_1.jpg' height='90'> <img src='G_4.jpg' height='90'>","null","Animation1","",""
"","","","","","html-keyboard-response","73","115068","0.0-50.0","17","1","2025-02-02 03:13:08","bc01a2b6f61d06f6604adb8657495020","68.45.37.73","Mozilla/5.0 (Windows NT 10.0; Win64; x64) AppleWebKit/537.36 (KHTML, like Gecko) Chrome/132.0.0.0 Safari/537.36","WebKit","Chrome","132.0.0.0","Windows","10.0","https://app.prolific.com/","en-US,en;q=0.9,fr;q=0.8,id;q=0.7","661de1d2f9c50b06f796b9cc","679edb085803f58d6bbd31ca","679ee2a7fdc71b640a413a6f","","null","<img  src='G_2.jpg' height='90'> <img  src='G_8.jpg' height='90'> <img src='G_5.jpg' height='90'> <img src='G_6.jpg' height='90'> <img src='G_3.jpg' height='90'> <img src='G_7.jpg' height='90'> <img src='G_1.jpg' height='90'> <img src='G_4.jpg' height='90'>","null","Animation1","",""
"","","","","","html-keyboard-response","74","115585","0.0-51.0","17","1","2025-02-02 03:13:08","bc01a2b6f61d06f6604adb8657495020","68.45.37.73","Mozilla/5.0 (Windows NT 10.0; Win64; x64) AppleWebKit/537.36 (KHTML, like Gecko) Chrome/132.0.0.0 Safari/537.36","WebKit","Chrome","132.0.0.0","Windows","10.0","https://app.prolific.com/","en-US,en;q=0.9,fr;q=0.8,id;q=0.7","661de1d2f9c50b06f796b9cc","679edb085803f58d6bbd31ca","679ee2a7fdc71b640a413a6f","","null","<img  src='G_2.jpg' height='90'> <img id='selected'  src='G_8.jpg' height='90'> <img src='G_5.jpg' height='90'> <img src='G_6.jpg' height='90'> <img src='G_3.jpg' height='90'> <img src='G_7.jpg' height='90'> <img src='G_1.jpg' height='90'> <img src='G_4.jpg' height='90'>","null","Animation1","",""
"","","","","","html-keyboard-response","75","116099","0.0-52.0","17","1","2025-02-02 03:13:08","bc01a2b6f61d06f6604adb8657495020","68.45.37.73","Mozilla/5.0 (Windows NT 10.0; Win64; x64) AppleWebKit/537.36 (KHTML, like Gecko) Chrome/132.0.0.0 Safari/537.36","WebKit","Chrome","132.0.0.0","Windows","10.0","https://app.prolific.com/","en-US,en;q=0.9,fr;q=0.8,id;q=0.7","661de1d2f9c50b06f796b9cc","679edb085803f58d6bbd31ca","679ee2a7fdc71b640a413a6f","","null","<img  src='G_2.jpg' height='90'> <img id='selected'  src='G_8.jpg' height='90'> <img id='selected' src='G_5.jpg' height='90'> <img src='G_6.jpg' height='90'> <img src='G_3.jpg' height='90'> <img src='G_7.jpg' height='90'> <img src='G_1.jpg' height='90'> <img src='G_4.jpg' height='90'>","null","Animation1","",""
"","","","","","html-keyboard-response","76","116613","0.0-53.0","17","1","2025-02-02 03:13:08","bc01a2b6f61d06f6604adb8657495020","68.45.37.73","Mozilla/5.0 (Windows NT 10.0; Win64; x64) AppleWebKit/537.36 (KHTML, like Gecko) Chrome/132.0.0.0 Safari/537.36","WebKit","Chrome","132.0.0.0","Windows","10.0","https://app.prolific.com/","en-US,en;q=0.9,fr;q=0.8,id;q=0.7","661de1d2f9c50b06f796b9cc","679edb085803f58d6bbd31ca","679ee2a7fdc71b640a413a6f","","null","<img  src='G_2.jpg' height='90'> <img id='swapped' src='G_5.jpg' height='90'> <img id='swapped'  src='G_8.jpg' height='90'> <img src='G_6.jpg' height='90'> <img src='G_3.jpg' height='90'> <img src='G_7.jpg' height='90'> <img src='G_1.jpg' height='90'> <img src='G_4.jpg' height='90'>","null","Animation1","",""
"","","","","","html-keyboard-response","77","116923","0.0-54.0","17","1","2025-02-02 03:13:08","bc01a2b6f61d06f6604adb8657495020","68.45.37.73","Mozilla/5.0 (Windows NT 10.0; Win64; x64) AppleWebKit/537.36 (KHTML, like Gecko) Chrome/132.0.0.0 Safari/537.36","WebKit","Chrome","132.0.0.0","Windows","10.0","https://app.prolific.com/","en-US,en;q=0.9,fr;q=0.8,id;q=0.7","661de1d2f9c50b06f796b9cc","679edb085803f58d6bbd31ca","679ee2a7fdc71b640a413a6f","","null","<img  src='G_2.jpg' height='90'> <img  src='G_5.jpg' height='90'> <img   src='G_8.jpg' height='90'> <img src='G_6.jpg' height='90'> <img src='G_3.jpg' height='90'> <img src='G_7.jpg' height='90'> <img src='G_1.jpg' height='90'> <img src='G_4.jpg' height='90'>","null","Animation1","",""
"","","","","","html-keyboard-response","78","117442","0.0-55.0","17","1","2025-02-02 03:13:08","bc01a2b6f61d06f6604adb8657495020","68.45.37.73","Mozilla/5.0 (Windows NT 10.0; Win64; x64) AppleWebKit/537.36 (KHTML, like Gecko) Chrome/132.0.0.0 Safari/537.36","WebKit","Chrome","132.0.0.0","Windows","10.0","https://app.prolific.com/","en-US,en;q=0.9,fr;q=0.8,id;q=0.7","661de1d2f9c50b06f796b9cc","679edb085803f58d6bbd31ca","679ee2a7fdc71b640a413a6f","","null","<img id='selected'  src='G_2.jpg' height='90'> <img  src='G_5.jpg' height='90'> <img   src='G_8.jpg' height='90'> <img src='G_6.jpg' height='90'> <img src='G_3.jpg' height='90'> <img src='G_7.jpg' height='90'> <img src='G_1.jpg' height='90'> <img src='G_4.jpg' height='90'>","null","Animation1","",""
"","","","","","html-keyboard-response","79","117955","0.0-56.0","17","1","2025-02-02 03:13:08","bc01a2b6f61d06f6604adb8657495020","68.45.37.73","Mozilla/5.0 (Windows NT 10.0; Win64; x64) AppleWebKit/537.36 (KHTML, like Gecko) Chrome/132.0.0.0 Safari/537.36","WebKit","Chrome","132.0.0.0","Windows","10.0","https://app.prolific.com/","en-US,en;q=0.9,fr;q=0.8,id;q=0.7","661de1d2f9c50b06f796b9cc","679edb085803f58d6bbd31ca","679ee2a7fdc71b640a413a6f","","null","<img id='selected'  src='G_2.jpg' height='90'> <img id='selected'  src='G_5.jpg' height='90'> <img   src='G_8.jpg' height='90'> <img src='G_6.jpg' height='90'> <img src='G_3.jpg' height='90'> <img src='G_7.jpg' height='90'> <img src='G_1.jpg' height='90'> <img src='G_4.jpg' height='90'>","null","Animation1","",""
"","","","","","html-keyboard-response","80","118469","0.0-57.0","17","1","2025-02-02 03:13:08","bc01a2b6f61d06f6604adb8657495020","68.45.37.73","Mozilla/5.0 (Windows NT 10.0; Win64; x64) AppleWebKit/537.36 (KHTML, like Gecko) Chrome/132.0.0.0 Safari/537.36","WebKit","Chrome","132.0.0.0","Windows","10.0","https://app.prolific.com/","en-US,en;q=0.9,fr;q=0.8,id;q=0.7","661de1d2f9c50b06f796b9cc","679edb085803f58d6bbd31ca","679ee2a7fdc71b640a413a6f","","null","<img id='swapped'  src='G_5.jpg' height='90'> <img id='swapped'  src='G_2.jpg' height='90'> <img   src='G_8.jpg' height='90'> <img src='G_6.jpg' height='90'> <img src='G_3.jpg' height='90'> <img src='G_7.jpg' height='90'> <img src='G_1.jpg' height='90'> <img src='G_4.jpg' height='90'>","null","Animation1","",""
"","","","","","html-keyboard-response","81","118781","0.0-58.0","17","1","2025-02-02 03:13:08","bc01a2b6f61d06f6604adb8657495020","68.45.37.73","Mozilla/5.0 (Windows NT 10.0; Win64; x64) AppleWebKit/537.36 (KHTML, like Gecko) Chrome/132.0.0.0 Safari/537.36","WebKit","Chrome","132.0.0.0","Windows","10.0","https://app.prolific.com/","en-US,en;q=0.9,fr;q=0.8,id;q=0.7","661de1d2f9c50b06f796b9cc","679edb085803f58d6bbd31ca","679ee2a7fdc71b640a413a6f","","null","<img   src='G_5.jpg' height='90'> <img   src='G_2.jpg' height='90'> <img   src='G_8.jpg' height='90'> <img src='G_6.jpg' height='90'> <img src='G_3.jpg' height='90'> <img src='G_7.jpg' height='90'> <img src='G_1.jpg' height='90'> <img src='G_4.jpg' height='90'>","null","Animation1","",""
"","","","","","html-keyboard-response","82","119297","0.0-59.0","17","1","2025-02-02 03:13:08","bc01a2b6f61d06f6604adb8657495020","68.45.37.73","Mozilla/5.0 (Windows NT 10.0; Win64; x64) AppleWebKit/537.36 (KHTML, like Gecko) Chrome/132.0.0.0 Safari/537.36","WebKit","Chrome","132.0.0.0","Windows","10.0","https://app.prolific.com/","en-US,en;q=0.9,fr;q=0.8,id;q=0.7","661de1d2f9c50b06f796b9cc","679edb085803f58d6bbd31ca","679ee2a7fdc71b640a413a6f","","null","<img   src='G_5.jpg' height='90'> <img   src='G_2.jpg' height='90'> <img id='selected'   src='G_8.jpg' height='90'> <img src='G_6.jpg' height='90'> <img src='G_3.jpg' height='90'> <img src='G_7.jpg' height='90'> <img src='G_1.jpg' height='90'> <img src='G_4.jpg' height='90'>","null","Animation1","",""
"","","","","","html-keyboard-response","83","119808","0.0-60.0","17","1","2025-02-02 03:13:08","bc01a2b6f61d06f6604adb8657495020","68.45.37.73","Mozilla/5.0 (Windows NT 10.0; Win64; x64) AppleWebKit/537.36 (KHTML, like Gecko) Chrome/132.0.0.0 Safari/537.36","WebKit","Chrome","132.0.0.0","Windows","10.0","https://app.prolific.com/","en-US,en;q=0.9,fr;q=0.8,id;q=0.7","661de1d2f9c50b06f796b9cc","679edb085803f58d6bbd31ca","679ee2a7fdc71b640a413a6f","","null","<img   src='G_5.jpg' height='90'> <img   src='G_2.jpg' height='90'> <img id='selected'   src='G_8.jpg' height='90'> <img id='selected' src='G_6.jpg' height='90'> <img src='G_3.jpg' height='90'> <img src='G_7.jpg' height='90'> <img src='G_1.jpg' height='90'> <img src='G_4.jpg' height='90'>","null","Animation1","",""
"","","","","","html-keyboard-response","84","120321","0.0-61.0","17","1","2025-02-02 03:13:08","bc01a2b6f61d06f6604adb8657495020","68.45.37.73","Mozilla/5.0 (Windows NT 10.0; Win64; x64) AppleWebKit/537.36 (KHTML, like Gecko) Chrome/132.0.0.0 Safari/537.36","WebKit","Chrome","132.0.0.0","Windows","10.0","https://app.prolific.com/","en-US,en;q=0.9,fr;q=0.8,id;q=0.7","661de1d2f9c50b06f796b9cc","679edb085803f58d6bbd31ca","679ee2a7fdc71b640a413a6f","","null","<img   src='G_5.jpg' height='90'> <img   src='G_2.jpg' height='90'> <img id='swapped' src='G_6.jpg' height='90'> <img id='swapped'   src='G_8.jpg' height='90'> <img src='G_3.jpg' height='90'> <img src='G_7.jpg' height='90'> <img src='G_1.jpg' height='90'> <img src='G_4.jpg' height='90'>","null","Animation1","",""
"","","","","","html-keyboard-response","85","120630","0.0-62.0","17","1","2025-02-02 03:13:08","bc01a2b6f61d06f6604adb8657495020","68.45.37.73","Mozilla/5.0 (Windows NT 10.0; Win64; x64) AppleWebKit/537.36 (KHTML, like Gecko) Chrome/132.0.0.0 Safari/537.36","WebKit","Chrome","132.0.0.0","Windows","10.0","https://app.prolific.com/","en-US,en;q=0.9,fr;q=0.8,id;q=0.7","661de1d2f9c50b06f796b9cc","679edb085803f58d6bbd31ca","679ee2a7fdc71b640a413a6f","","null","<img   src='G_5.jpg' height='90'> <img   src='G_2.jpg' height='90'> <img  src='G_6.jpg' height='90'> <img    src='G_8.jpg' height='90'> <img src='G_3.jpg' height='90'> <img src='G_7.jpg' height='90'> <img src='G_1.jpg' height='90'> <img src='G_4.jpg' height='90'>","null","Animation1","",""
"","","","","","html-keyboard-response","86","121147","0.0-63.0","17","1","2025-02-02 03:13:08","bc01a2b6f61d06f6604adb8657495020","68.45.37.73","Mozilla/5.0 (Windows NT 10.0; Win64; x64) AppleWebKit/537.36 (KHTML, like Gecko) Chrome/132.0.0.0 Safari/537.36","WebKit","Chrome","132.0.0.0","Windows","10.0","https://app.prolific.com/","en-US,en;q=0.9,fr;q=0.8,id;q=0.7","661de1d2f9c50b06f796b9cc","679edb085803f58d6bbd31ca","679ee2a7fdc71b640a413a6f","","null","<img   src='G_5.jpg' height='90'> <img id='selected'   src='G_2.jpg' height='90'> <img  src='G_6.jpg' height='90'> <img    src='G_8.jpg' height='90'> <img src='G_3.jpg' height='90'> <img src='G_7.jpg' height='90'> <img src='G_1.jpg' height='90'> <img src='G_4.jpg' height='90'>","null","Animation1","",""
"","","","","","html-keyboard-response","87","121663","0.0-64.0","17","1","2025-02-02 03:13:08","bc01a2b6f61d06f6604adb8657495020","68.45.37.73","Mozilla/5.0 (Windows NT 10.0; Win64; x64) AppleWebKit/537.36 (KHTML, like Gecko) Chrome/132.0.0.0 Safari/537.36","WebKit","Chrome","132.0.0.0","Windows","10.0","https://app.prolific.com/","en-US,en;q=0.9,fr;q=0.8,id;q=0.7","661de1d2f9c50b06f796b9cc","679edb085803f58d6bbd31ca","679ee2a7fdc71b640a413a6f","","null","<img   src='G_5.jpg' height='90'> <img id='selected'   src='G_2.jpg' height='90'> <img id='selected'  src='G_6.jpg' height='90'> <img    src='G_8.jpg' height='90'> <img src='G_3.jpg' height='90'> <img src='G_7.jpg' height='90'> <img src='G_1.jpg' height='90'> <img src='G_4.jpg' height='90'>","null","Animation1","",""
"","","","","","html-keyboard-response","88","122176","0.0-65.0","17","1","2025-02-02 03:13:08","bc01a2b6f61d06f6604adb8657495020","68.45.37.73","Mozilla/5.0 (Windows NT 10.0; Win64; x64) AppleWebKit/537.36 (KHTML, like Gecko) Chrome/132.0.0.0 Safari/537.36","WebKit","Chrome","132.0.0.0","Windows","10.0","https://app.prolific.com/","en-US,en;q=0.9,fr;q=0.8,id;q=0.7","661de1d2f9c50b06f796b9cc","679edb085803f58d6bbd31ca","679ee2a7fdc71b640a413a6f","","null","<img   src='G_5.jpg' height='90'> <img id='swapped'  src='G_6.jpg' height='90'> <img id='swapped'   src='G_2.jpg' height='90'> <img    src='G_8.jpg' height='90'> <img src='G_3.jpg' height='90'> <img src='G_7.jpg' height='90'> <img src='G_1.jpg' height='90'> <img src='G_4.jpg' height='90'>","null","Animation1","",""
"","","","","","html-keyboard-response","89","122488","0.0-66.0","17","1","2025-02-02 03:13:08","bc01a2b6f61d06f6604adb8657495020","68.45.37.73","Mozilla/5.0 (Windows NT 10.0; Win64; x64) AppleWebKit/537.36 (KHTML, like Gecko) Chrome/132.0.0.0 Safari/537.36","WebKit","Chrome","132.0.0.0","Windows","10.0","https://app.prolific.com/","en-US,en;q=0.9,fr;q=0.8,id;q=0.7","661de1d2f9c50b06f796b9cc","679edb085803f58d6bbd31ca","679ee2a7fdc71b640a413a6f","","null","<img   src='G_5.jpg' height='90'> <img   src='G_6.jpg' height='90'> <img    src='G_2.jpg' height='90'> <img    src='G_8.jpg' height='90'> <img src='G_3.jpg' height='90'> <img src='G_7.jpg' height='90'> <img src='G_1.jpg' height='90'> <img src='G_4.jpg' height='90'>","null","Animation1","",""
"","","","","","html-keyboard-response","90","123002","0.0-67.0","17","1","2025-02-02 03:13:08","bc01a2b6f61d06f6604adb8657495020","68.45.37.73","Mozilla/5.0 (Windows NT 10.0; Win64; x64) AppleWebKit/537.36 (KHTML, like Gecko) Chrome/132.0.0.0 Safari/537.36","WebKit","Chrome","132.0.0.0","Windows","10.0","https://app.prolific.com/","en-US,en;q=0.9,fr;q=0.8,id;q=0.7","661de1d2f9c50b06f796b9cc","679edb085803f58d6bbd31ca","679ee2a7fdc71b640a413a6f","","null","<img id='selected'   src='G_5.jpg' height='90'> <img   src='G_6.jpg' height='90'> <img    src='G_2.jpg' height='90'> <img    src='G_8.jpg' height='90'> <img src='G_3.jpg' height='90'> <img src='G_7.jpg' height='90'> <img src='G_1.jpg' height='90'> <img src='G_4.jpg' height='90'>","null","Animation1","",""
"","","","","","html-keyboard-response","91","123517","0.0-68.0","17","1","2025-02-02 03:13:08","bc01a2b6f61d06f6604adb8657495020","68.45.37.73","Mozilla/5.0 (Windows NT 10.0; Win64; x64) AppleWebKit/537.36 (KHTML, like Gecko) Chrome/132.0.0.0 Safari/537.36","WebKit","Chrome","132.0.0.0","Windows","10.0","https://app.prolific.com/","en-US,en;q=0.9,fr;q=0.8,id;q=0.7","661de1d2f9c50b06f796b9cc","679edb085803f58d6bbd31ca","679ee2a7fdc71b640a413a6f","","null","<img id='selected'   src='G_5.jpg' height='90'> <img id='selected'   src='G_6.jpg' height='90'> <img    src='G_2.jpg' height='90'> <img    src='G_8.jpg' height='90'> <img src='G_3.jpg' height='90'> <img src='G_7.jpg' height='90'> <img src='G_1.jpg' height='90'> <img src='G_4.jpg' height='90'>","null","Animation1","",""
"","","","","","html-keyboard-response","92","124032","0.0-69.0","17","1","2025-02-02 03:13:08","bc01a2b6f61d06f6604adb8657495020","68.45.37.73","Mozilla/5.0 (Windows NT 10.0; Win64; x64) AppleWebKit/537.36 (KHTML, like Gecko) Chrome/132.0.0.0 Safari/537.36","WebKit","Chrome","132.0.0.0","Windows","10.0","https://app.prolific.com/","en-US,en;q=0.9,fr;q=0.8,id;q=0.7","661de1d2f9c50b06f796b9cc","679edb085803f58d6bbd31ca","679ee2a7fdc71b640a413a6f","","null","<img id='swapped'   src='G_6.jpg' height='90'> <img id='swapped'   src='G_5.jpg' height='90'> <img    src='G_2.jpg' height='90'> <img    src='G_8.jpg' height='90'> <img src='G_3.jpg' height='90'> <img src='G_7.jpg' height='90'> <img src='G_1.jpg' height='90'> <img src='G_4.jpg' height='90'>","null","Animation1","",""
"","","","","","html-keyboard-response","93","124340","0.0-70.0","17","1","2025-02-02 03:13:08","bc01a2b6f61d06f6604adb8657495020","68.45.37.73","Mozilla/5.0 (Windows NT 10.0; Win64; x64) AppleWebKit/537.36 (KHTML, like Gecko) Chrome/132.0.0.0 Safari/537.36","WebKit","Chrome","132.0.0.0","Windows","10.0","https://app.prolific.com/","en-US,en;q=0.9,fr;q=0.8,id;q=0.7","661de1d2f9c50b06f796b9cc","679edb085803f58d6bbd31ca","679ee2a7fdc71b640a413a6f","","null","<img    src='G_6.jpg' height='90'> <img    src='G_5.jpg' height='90'> <img    src='G_2.jpg' height='90'> <img    src='G_8.jpg' height='90'> <img src='G_3.jpg' height='90'> <img src='G_7.jpg' height='90'> <img src='G_1.jpg' height='90'> <img src='G_4.jpg' height='90'>","null","Animation1","",""
"","","","","","html-keyboard-response","94","124853","0.0-71.0","17","1","2025-02-02 03:13:08","bc01a2b6f61d06f6604adb8657495020","68.45.37.73","Mozilla/5.0 (Windows NT 10.0; Win64; x64) AppleWebKit/537.36 (KHTML, like Gecko) Chrome/132.0.0.0 Safari/537.36","WebKit","Chrome","132.0.0.0","Windows","10.0","https://app.prolific.com/","en-US,en;q=0.9,fr;q=0.8,id;q=0.7","661de1d2f9c50b06f796b9cc","679edb085803f58d6bbd31ca","679ee2a7fdc71b640a413a6f","","null","<img    src='G_6.jpg' height='90'> <img    src='G_5.jpg' height='90'> <img    src='G_2.jpg' height='90'> <img id='selected'    src='G_8.jpg' height='90'> <img src='G_3.jpg' height='90'> <img src='G_7.jpg' height='90'> <img src='G_1.jpg' height='90'> <img src='G_4.jpg' height='90'>","null","Animation1","",""
"","","","","","html-keyboard-response","95","125368","0.0-72.0","17","1","2025-02-02 03:13:08","bc01a2b6f61d06f6604adb8657495020","68.45.37.73","Mozilla/5.0 (Windows NT 10.0; Win64; x64) AppleWebKit/537.36 (KHTML, like Gecko) Chrome/132.0.0.0 Safari/537.36","WebKit","Chrome","132.0.0.0","Windows","10.0","https://app.prolific.com/","en-US,en;q=0.9,fr;q=0.8,id;q=0.7","661de1d2f9c50b06f796b9cc","679edb085803f58d6bbd31ca","679ee2a7fdc71b640a413a6f","","null","<img    src='G_6.jpg' height='90'> <img    src='G_5.jpg' height='90'> <img    src='G_2.jpg' height='90'> <img id='selected'    src='G_8.jpg' height='90'> <img id='selected' src='G_3.jpg' height='90'> <img src='G_7.jpg' height='90'> <img src='G_1.jpg' height='90'> <img src='G_4.jpg' height='90'>","null","Animation1","",""
"","","","","","html-keyboard-response","96","125884","0.0-73.0","17","1","2025-02-02 03:13:08","bc01a2b6f61d06f6604adb8657495020","68.45.37.73","Mozilla/5.0 (Windows NT 10.0; Win64; x64) AppleWebKit/537.36 (KHTML, like Gecko) Chrome/132.0.0.0 Safari/537.36","WebKit","Chrome","132.0.0.0","Windows","10.0","https://app.prolific.com/","en-US,en;q=0.9,fr;q=0.8,id;q=0.7","661de1d2f9c50b06f796b9cc","679edb085803f58d6bbd31ca","679ee2a7fdc71b640a413a6f","","null","<img    src='G_6.jpg' height='90'> <img    src='G_5.jpg' height='90'> <img    src='G_2.jpg' height='90'> <img id='swapped' src='G_3.jpg' height='90'> <img id='swapped'    src='G_8.jpg' height='90'> <img src='G_7.jpg' height='90'> <img src='G_1.jpg' height='90'> <img src='G_4.jpg' height='90'>","null","Animation1","",""
"","","","","","html-keyboard-response","97","126197","0.0-74.0","17","1","2025-02-02 03:13:08","bc01a2b6f61d06f6604adb8657495020","68.45.37.73","Mozilla/5.0 (Windows NT 10.0; Win64; x64) AppleWebKit/537.36 (KHTML, like Gecko) Chrome/132.0.0.0 Safari/537.36","WebKit","Chrome","132.0.0.0","Windows","10.0","https://app.prolific.com/","en-US,en;q=0.9,fr;q=0.8,id;q=0.7","661de1d2f9c50b06f796b9cc","679edb085803f58d6bbd31ca","679ee2a7fdc71b640a413a6f","","null","<img    src='G_6.jpg' height='90'> <img    src='G_5.jpg' height='90'> <img    src='G_2.jpg' height='90'> <img  src='G_3.jpg' height='90'> <img     src='G_8.jpg' height='90'> <img src='G_7.jpg' height='90'> <img src='G_1.jpg' height='90'> <img src='G_4.jpg' height='90'>","null","Animation1","",""
"","","","","","html-keyboard-response","98","126708","0.0-75.0","17","1","2025-02-02 03:13:08","bc01a2b6f61d06f6604adb8657495020","68.45.37.73","Mozilla/5.0 (Windows NT 10.0; Win64; x64) AppleWebKit/537.36 (KHTML, like Gecko) Chrome/132.0.0.0 Safari/537.36","WebKit","Chrome","132.0.0.0","Windows","10.0","https://app.prolific.com/","en-US,en;q=0.9,fr;q=0.8,id;q=0.7","661de1d2f9c50b06f796b9cc","679edb085803f58d6bbd31ca","679ee2a7fdc71b640a413a6f","","null","<img    src='G_6.jpg' height='90'> <img    src='G_5.jpg' height='90'> <img id='selected'    src='G_2.jpg' height='90'> <img  src='G_3.jpg' height='90'> <img     src='G_8.jpg' height='90'> <img src='G_7.jpg' height='90'> <img src='G_1.jpg' height='90'> <img src='G_4.jpg' height='90'>","null","Animation1","",""
"","","","","","html-keyboard-response","99","127219","0.0-76.0","17","1","2025-02-02 03:13:08","bc01a2b6f61d06f6604adb8657495020","68.45.37.73","Mozilla/5.0 (Windows NT 10.0; Win64; x64) AppleWebKit/537.36 (KHTML, like Gecko) Chrome/132.0.0.0 Safari/537.36","WebKit","Chrome","132.0.0.0","Windows","10.0","https://app.prolific.com/","en-US,en;q=0.9,fr;q=0.8,id;q=0.7","661de1d2f9c50b06f796b9cc","679edb085803f58d6bbd31ca","679ee2a7fdc71b640a413a6f","","null","<img    src='G_6.jpg' height='90'> <img    src='G_5.jpg' height='90'> <img id='selected'    src='G_2.jpg' height='90'> <img id='selected'  src='G_3.jpg' height='90'> <img     src='G_8.jpg' height='90'> <img src='G_7.jpg' height='90'> <img src='G_1.jpg' height='90'> <img src='G_4.jpg' height='90'>","null","Animation1","",""
"","","","","","html-keyboard-response","100","127730","0.0-77.0","17","1","2025-02-02 03:13:08","bc01a2b6f61d06f6604adb8657495020","68.45.37.73","Mozilla/5.0 (Windows NT 10.0; Win64; x64) AppleWebKit/537.36 (KHTML, like Gecko) Chrome/132.0.0.0 Safari/537.36","WebKit","Chrome","132.0.0.0","Windows","10.0","https://app.prolific.com/","en-US,en;q=0.9,fr;q=0.8,id;q=0.7","661de1d2f9c50b06f796b9cc","679edb085803f58d6bbd31ca","679ee2a7fdc71b640a413a6f","","null","<img    src='G_6.jpg' height='90'> <img    src='G_5.jpg' height='90'> <img id='swapped'  src='G_3.jpg' height='90'> <img id='swapped'    src='G_2.jpg' height='90'> <img     src='G_8.jpg' height='90'> <img src='G_7.jpg' height='90'> <img src='G_1.jpg' height='90'> <img src='G_4.jpg' height='90'>","null","Animation1","",""
"","","","","","html-keyboard-response","101","128040","0.0-78.0","17","1","2025-02-02 03:13:08","bc01a2b6f61d06f6604adb8657495020","68.45.37.73","Mozilla/5.0 (Windows NT 10.0; Win64; x64) AppleWebKit/537.36 (KHTML, like Gecko) Chrome/132.0.0.0 Safari/537.36","WebKit","Chrome","132.0.0.0","Windows","10.0","https://app.prolific.com/","en-US,en;q=0.9,fr;q=0.8,id;q=0.7","661de1d2f9c50b06f796b9cc","679edb085803f58d6bbd31ca","679ee2a7fdc71b640a413a6f","","null","<img    src='G_6.jpg' height='90'> <img    src='G_5.jpg' height='90'> <img   src='G_3.jpg' height='90'> <img     src='G_2.jpg' height='90'> <img     src='G_8.jpg' height='90'> <img src='G_7.jpg' height='90'> <img src='G_1.jpg' height='90'> <img src='G_4.jpg' height='90'>","null","Animation1","",""
"","","","","","html-keyboard-response","102","128554","0.0-79.0","17","1","2025-02-02 03:13:08","bc01a2b6f61d06f6604adb8657495020","68.45.37.73","Mozilla/5.0 (Windows NT 10.0; Win64; x64) AppleWebKit/537.36 (KHTML, like Gecko) Chrome/132.0.0.0 Safari/537.36","WebKit","Chrome","132.0.0.0","Windows","10.0","https://app.prolific.com/","en-US,en;q=0.9,fr;q=0.8,id;q=0.7","661de1d2f9c50b06f796b9cc","679edb085803f58d6bbd31ca","679ee2a7fdc71b640a413a6f","","null","<img    src='G_6.jpg' height='90'> <img id='selected'    src='G_5.jpg' height='90'> <img   src='G_3.jpg' height='90'> <img     src='G_2.jpg' height='90'> <img     src='G_8.jpg' height='90'> <img src='G_7.jpg' height='90'> <img src='G_1.jpg' height='90'> <img src='G_4.jpg' height='90'>","null","Animation1","",""
"","","","","","html-keyboard-response","103","129072","0.0-80.0","17","1","2025-02-02 03:13:08","bc01a2b6f61d06f6604adb8657495020","68.45.37.73","Mozilla/5.0 (Windows NT 10.0; Win64; x64) AppleWebKit/537.36 (KHTML, like Gecko) Chrome/132.0.0.0 Safari/537.36","WebKit","Chrome","132.0.0.0","Windows","10.0","https://app.prolific.com/","en-US,en;q=0.9,fr;q=0.8,id;q=0.7","661de1d2f9c50b06f796b9cc","679edb085803f58d6bbd31ca","679ee2a7fdc71b640a413a6f","","null","<img    src='G_6.jpg' height='90'> <img id='selected'    src='G_5.jpg' height='90'> <img id='selected'   src='G_3.jpg' height='90'> <img     src='G_2.jpg' height='90'> <img     src='G_8.jpg' height='90'> <img src='G_7.jpg' height='90'> <img src='G_1.jpg' height='90'> <img src='G_4.jpg' height='90'>","null","Animation1","",""
"","","","","","html-keyboard-response","104","129585","0.0-81.0","17","1","2025-02-02 03:13:08","bc01a2b6f61d06f6604adb8657495020","68.45.37.73","Mozilla/5.0 (Windows NT 10.0; Win64; x64) AppleWebKit/537.36 (KHTML, like Gecko) Chrome/132.0.0.0 Safari/537.36","WebKit","Chrome","132.0.0.0","Windows","10.0","https://app.prolific.com/","en-US,en;q=0.9,fr;q=0.8,id;q=0.7","661de1d2f9c50b06f796b9cc","679edb085803f58d6bbd31ca","679ee2a7fdc71b640a413a6f","","null","<img    src='G_6.jpg' height='90'> <img id='swapped'   src='G_3.jpg' height='90'> <img id='swapped'    src='G_5.jpg' height='90'> <img     src='G_2.jpg' height='90'> <img     src='G_8.jpg' height='90'> <img src='G_7.jpg' height='90'> <img src='G_1.jpg' height='90'> <img src='G_4.jpg' height='90'>","null","Animation1","",""
"","","","","","html-keyboard-response","105","129897","0.0-82.0","17","1","2025-02-02 03:13:08","bc01a2b6f61d06f6604adb8657495020","68.45.37.73","Mozilla/5.0 (Windows NT 10.0; Win64; x64) AppleWebKit/537.36 (KHTML, like Gecko) Chrome/132.0.0.0 Safari/537.36","WebKit","Chrome","132.0.0.0","Windows","10.0","https://app.prolific.com/","en-US,en;q=0.9,fr;q=0.8,id;q=0.7","661de1d2f9c50b06f796b9cc","679edb085803f58d6bbd31ca","679ee2a7fdc71b640a413a6f","","null","<img    src='G_6.jpg' height='90'> <img    src='G_3.jpg' height='90'> <img     src='G_5.jpg' height='90'> <img     src='G_2.jpg' height='90'> <img     src='G_8.jpg' height='90'> <img src='G_7.jpg' height='90'> <img src='G_1.jpg' height='90'> <img src='G_4.jpg' height='90'>","null","Animation1","",""
"","","","","","html-keyboard-response","106","130410","0.0-83.0","17","1","2025-02-02 03:13:08","bc01a2b6f61d06f6604adb8657495020","68.45.37.73","Mozilla/5.0 (Windows NT 10.0; Win64; x64) AppleWebKit/537.36 (KHTML, like Gecko) Chrome/132.0.0.0 Safari/537.36","WebKit","Chrome","132.0.0.0","Windows","10.0","https://app.prolific.com/","en-US,en;q=0.9,fr;q=0.8,id;q=0.7","661de1d2f9c50b06f796b9cc","679edb085803f58d6bbd31ca","679ee2a7fdc71b640a413a6f","","null","<img id='selected'    src='G_6.jpg' height='90'> <img    src='G_3.jpg' height='90'> <img     src='G_5.jpg' height='90'> <img     src='G_2.jpg' height='90'> <img     src='G_8.jpg' height='90'> <img src='G_7.jpg' height='90'> <img src='G_1.jpg' height='90'> <img src='G_4.jpg' height='90'>","null","Animation1","",""
"","","","","","html-keyboard-response","107","130920","0.0-84.0","17","1","2025-02-02 03:13:08","bc01a2b6f61d06f6604adb8657495020","68.45.37.73","Mozilla/5.0 (Windows NT 10.0; Win64; x64) AppleWebKit/537.36 (KHTML, like Gecko) Chrome/132.0.0.0 Safari/537.36","WebKit","Chrome","132.0.0.0","Windows","10.0","https://app.prolific.com/","en-US,en;q=0.9,fr;q=0.8,id;q=0.7","661de1d2f9c50b06f796b9cc","679edb085803f58d6bbd31ca","679ee2a7fdc71b640a413a6f","","null","<img id='selected'    src='G_6.jpg' height='90'> <img id='selected'    src='G_3.jpg' height='90'> <img     src='G_5.jpg' height='90'> <img     src='G_2.jpg' height='90'> <img     src='G_8.jpg' height='90'> <img src='G_7.jpg' height='90'> <img src='G_1.jpg' height='90'> <img src='G_4.jpg' height='90'>","null","Animation1","",""
"","","","","","html-keyboard-response","108","131435","0.0-85.0","17","1","2025-02-02 03:13:08","bc01a2b6f61d06f6604adb8657495020","68.45.37.73","Mozilla/5.0 (Windows NT 10.0; Win64; x64) AppleWebKit/537.36 (KHTML, like Gecko) Chrome/132.0.0.0 Safari/537.36","WebKit","Chrome","132.0.0.0","Windows","10.0","https://app.prolific.com/","en-US,en;q=0.9,fr;q=0.8,id;q=0.7","661de1d2f9c50b06f796b9cc","679edb085803f58d6bbd31ca","679ee2a7fdc71b640a413a6f","","null","<img id='selected'    src='G_6.jpg' height='90'> <img id='selected'    src='G_3.jpg' height='90'> <img     src='G_5.jpg' height='90'> <img     src='G_2.jpg' height='90'> <img     src='G_8.jpg' height='90'> <img src='G_7.jpg' height='90'> <img src='G_1.jpg' height='90'> <img src='G_4.jpg' height='90'>","null","Animation1","",""
"","","","","","html-keyboard-response","109","131748","0.0-86.0","17","1","2025-02-02 03:13:08","bc01a2b6f61d06f6604adb8657495020","68.45.37.73","Mozilla/5.0 (Windows NT 10.0; Win64; x64) AppleWebKit/537.36 (KHTML, like Gecko) Chrome/132.0.0.0 Safari/537.36","WebKit","Chrome","132.0.0.0","Windows","10.0","https://app.prolific.com/","en-US,en;q=0.9,fr;q=0.8,id;q=0.7","661de1d2f9c50b06f796b9cc","679edb085803f58d6bbd31ca","679ee2a7fdc71b640a413a6f","","null","<img     src='G_6.jpg' height='90'> <img     src='G_3.jpg' height='90'> <img     src='G_5.jpg' height='90'> <img     src='G_2.jpg' height='90'> <img     src='G_8.jpg' height='90'> <img src='G_7.jpg' height='90'> <img src='G_1.jpg' height='90'> <img src='G_4.jpg' height='90'>","null","Animation1","",""
"","","","","","html-keyboard-response","110","132256","0.0-87.0","17","1","2025-02-02 03:13:08","bc01a2b6f61d06f6604adb8657495020","68.45.37.73","Mozilla/5.0 (Windows NT 10.0; Win64; x64) AppleWebKit/537.36 (KHTML, like Gecko) Chrome/132.0.0.0 Safari/537.36","WebKit","Chrome","132.0.0.0","Windows","10.0","https://app.prolific.com/","en-US,en;q=0.9,fr;q=0.8,id;q=0.7","661de1d2f9c50b06f796b9cc","679edb085803f58d6bbd31ca","679ee2a7fdc71b640a413a6f","","null","<img     src='G_6.jpg' height='90'> <img     src='G_3.jpg' height='90'> <img     src='G_5.jpg' height='90'> <img     src='G_2.jpg' height='90'> <img id='selected'     src='G_8.jpg' height='90'> <img src='G_7.jpg' height='90'> <img src='G_1.jpg' height='90'> <img src='G_4.jpg' height='90'>","null","Animation1","",""
"","","","","","html-keyboard-response","111","132767","0.0-88.0","17","1","2025-02-02 03:13:08","bc01a2b6f61d06f6604adb8657495020","68.45.37.73","Mozilla/5.0 (Windows NT 10.0; Win64; x64) AppleWebKit/537.36 (KHTML, like Gecko) Chrome/132.0.0.0 Safari/537.36","WebKit","Chrome","132.0.0.0","Windows","10.0","https://app.prolific.com/","en-US,en;q=0.9,fr;q=0.8,id;q=0.7","661de1d2f9c50b06f796b9cc","679edb085803f58d6bbd31ca","679ee2a7fdc71b640a413a6f","","null","<img     src='G_6.jpg' height='90'> <img     src='G_3.jpg' height='90'> <img     src='G_5.jpg' height='90'> <img     src='G_2.jpg' height='90'> <img id='selected'     src='G_8.jpg' height='90'> <img id='selected' src='G_7.jpg' height='90'> <img src='G_1.jpg' height='90'> <img src='G_4.jpg' height='90'>","null","Animation1","",""
"","","","","","html-keyboard-response","112","133280","0.0-89.0","17","1","2025-02-02 03:13:08","bc01a2b6f61d06f6604adb8657495020","68.45.37.73","Mozilla/5.0 (Windows NT 10.0; Win64; x64) AppleWebKit/537.36 (KHTML, like Gecko) Chrome/132.0.0.0 Safari/537.36","WebKit","Chrome","132.0.0.0","Windows","10.0","https://app.prolific.com/","en-US,en;q=0.9,fr;q=0.8,id;q=0.7","661de1d2f9c50b06f796b9cc","679edb085803f58d6bbd31ca","679ee2a7fdc71b640a413a6f","","null","<img     src='G_6.jpg' height='90'> <img     src='G_3.jpg' height='90'> <img     src='G_5.jpg' height='90'> <img     src='G_2.jpg' height='90'> <img id='swapped' src='G_7.jpg' height='90'> <img id='swapped'     src='G_8.jpg' height='90'> <img src='G_1.jpg' height='90'> <img src='G_4.jpg' height='90'>","null","Animation1","",""
"","","","","","html-keyboard-response","113","133594","0.0-90.0","17","1","2025-02-02 03:13:08","bc01a2b6f61d06f6604adb8657495020","68.45.37.73","Mozilla/5.0 (Windows NT 10.0; Win64; x64) AppleWebKit/537.36 (KHTML, like Gecko) Chrome/132.0.0.0 Safari/537.36","WebKit","Chrome","132.0.0.0","Windows","10.0","https://app.prolific.com/","en-US,en;q=0.9,fr;q=0.8,id;q=0.7","661de1d2f9c50b06f796b9cc","679edb085803f58d6bbd31ca","679ee2a7fdc71b640a413a6f","","null","<img     src='G_6.jpg' height='90'> <img     src='G_3.jpg' height='90'> <img     src='G_5.jpg' height='90'> <img     src='G_2.jpg' height='90'> <img  src='G_7.jpg' height='90'> <img      src='G_8.jpg' height='90'> <img src='G_1.jpg' height='90'> <img src='G_4.jpg' height='90'>","null","Animation1","",""
"","","","","","html-keyboard-response","114","134106","0.0-91.0","17","1","2025-02-02 03:13:08","bc01a2b6f61d06f6604adb8657495020","68.45.37.73","Mozilla/5.0 (Windows NT 10.0; Win64; x64) AppleWebKit/537.36 (KHTML, like Gecko) Chrome/132.0.0.0 Safari/537.36","WebKit","Chrome","132.0.0.0","Windows","10.0","https://app.prolific.com/","en-US,en;q=0.9,fr;q=0.8,id;q=0.7","661de1d2f9c50b06f796b9cc","679edb085803f58d6bbd31ca","679ee2a7fdc71b640a413a6f","","null","<img     src='G_6.jpg' height='90'> <img     src='G_3.jpg' height='90'> <img     src='G_5.jpg' height='90'> <img id='selected'     src='G_2.jpg' height='90'> <img  src='G_7.jpg' height='90'> <img      src='G_8.jpg' height='90'> <img src='G_1.jpg' height='90'> <img src='G_4.jpg' height='90'>","null","Animation1","",""
"","","","","","html-keyboard-response","115","134620","0.0-92.0","17","1","2025-02-02 03:13:08","bc01a2b6f61d06f6604adb8657495020","68.45.37.73","Mozilla/5.0 (Windows NT 10.0; Win64; x64) AppleWebKit/537.36 (KHTML, like Gecko) Chrome/132.0.0.0 Safari/537.36","WebKit","Chrome","132.0.0.0","Windows","10.0","https://app.prolific.com/","en-US,en;q=0.9,fr;q=0.8,id;q=0.7","661de1d2f9c50b06f796b9cc","679edb085803f58d6bbd31ca","679ee2a7fdc71b640a413a6f","","null","<img     src='G_6.jpg' height='90'> <img     src='G_3.jpg' height='90'> <img     src='G_5.jpg' height='90'> <img id='selected'     src='G_2.jpg' height='90'> <img id='selected'  src='G_7.jpg' height='90'> <img      src='G_8.jpg' height='90'> <img src='G_1.jpg' height='90'> <img src='G_4.jpg' height='90'>","null","Animation1","",""
"","","","","","html-keyboard-response","116","135131","0.0-93.0","17","1","2025-02-02 03:13:08","bc01a2b6f61d06f6604adb8657495020","68.45.37.73","Mozilla/5.0 (Windows NT 10.0; Win64; x64) AppleWebKit/537.36 (KHTML, like Gecko) Chrome/132.0.0.0 Safari/537.36","WebKit","Chrome","132.0.0.0","Windows","10.0","https://app.prolific.com/","en-US,en;q=0.9,fr;q=0.8,id;q=0.7","661de1d2f9c50b06f796b9cc","679edb085803f58d6bbd31ca","679ee2a7fdc71b640a413a6f","","null","<img     src='G_6.jpg' height='90'> <img     src='G_3.jpg' height='90'> <img     src='G_5.jpg' height='90'> <img id='selected'     src='G_2.jpg' height='90'> <img id='selected'  src='G_7.jpg' height='90'> <img      src='G_8.jpg' height='90'> <img src='G_1.jpg' height='90'> <img src='G_4.jpg' height='90'>","null","Animation1","",""
"","","","","","html-keyboard-response","117","135440","0.0-94.0","17","1","2025-02-02 03:13:08","bc01a2b6f61d06f6604adb8657495020","68.45.37.73","Mozilla/5.0 (Windows NT 10.0; Win64; x64) AppleWebKit/537.36 (KHTML, like Gecko) Chrome/132.0.0.0 Safari/537.36","WebKit","Chrome","132.0.0.0","Windows","10.0","https://app.prolific.com/","en-US,en;q=0.9,fr;q=0.8,id;q=0.7","661de1d2f9c50b06f796b9cc","679edb085803f58d6bbd31ca","679ee2a7fdc71b640a413a6f","","null","<img     src='G_6.jpg' height='90'> <img     src='G_3.jpg' height='90'> <img     src='G_5.jpg' height='90'> <img      src='G_2.jpg' height='90'> <img   src='G_7.jpg' height='90'> <img      src='G_8.jpg' height='90'> <img src='G_1.jpg' height='90'> <img src='G_4.jpg' height='90'>","null","Animation1","",""
"","","","","","html-keyboard-response","118","135954","0.0-95.0","17","1","2025-02-02 03:13:08","bc01a2b6f61d06f6604adb8657495020","68.45.37.73","Mozilla/5.0 (Windows NT 10.0; Win64; x64) AppleWebKit/537.36 (KHTML, like Gecko) Chrome/132.0.0.0 Safari/537.36","WebKit","Chrome","132.0.0.0","Windows","10.0","https://app.prolific.com/","en-US,en;q=0.9,fr;q=0.8,id;q=0.7","661de1d2f9c50b06f796b9cc","679edb085803f58d6bbd31ca","679ee2a7fdc71b640a413a6f","","null","<img     src='G_6.jpg' height='90'> <img     src='G_3.jpg' height='90'> <img     src='G_5.jpg' height='90'> <img      src='G_2.jpg' height='90'> <img   src='G_7.jpg' height='90'> <img id='selected'      src='G_8.jpg' height='90'> <img src='G_1.jpg' height='90'> <img src='G_4.jpg' height='90'>","null","Animation1","",""
"","","","","","html-keyboard-response","119","136464","0.0-96.0","17","1","2025-02-02 03:13:08","bc01a2b6f61d06f6604adb8657495020","68.45.37.73","Mozilla/5.0 (Windows NT 10.0; Win64; x64) AppleWebKit/537.36 (KHTML, like Gecko) Chrome/132.0.0.0 Safari/537.36","WebKit","Chrome","132.0.0.0","Windows","10.0","https://app.prolific.com/","en-US,en;q=0.9,fr;q=0.8,id;q=0.7","661de1d2f9c50b06f796b9cc","679edb085803f58d6bbd31ca","679ee2a7fdc71b640a413a6f","","null","<img     src='G_6.jpg' height='90'> <img     src='G_3.jpg' height='90'> <img     src='G_5.jpg' height='90'> <img      src='G_2.jpg' height='90'> <img   src='G_7.jpg' height='90'> <img id='selected'      src='G_8.jpg' height='90'> <img id='selected' src='G_1.jpg' height='90'> <img src='G_4.jpg' height='90'>","null","Animation1","",""
"","","","","","html-keyboard-response","120","136976","0.0-97.0","17","1","2025-02-02 03:13:08","bc01a2b6f61d06f6604adb8657495020","68.45.37.73","Mozilla/5.0 (Windows NT 10.0; Win64; x64) AppleWebKit/537.36 (KHTML, like Gecko) Chrome/132.0.0.0 Safari/537.36","WebKit","Chrome","132.0.0.0","Windows","10.0","https://app.prolific.com/","en-US,en;q=0.9,fr;q=0.8,id;q=0.7","661de1d2f9c50b06f796b9cc","679edb085803f58d6bbd31ca","679ee2a7fdc71b640a413a6f","","null","<img     src='G_6.jpg' height='90'> <img     src='G_3.jpg' height='90'> <img     src='G_5.jpg' height='90'> <img      src='G_2.jpg' height='90'> <img   src='G_7.jpg' height='90'> <img id='selected'      src='G_8.jpg' height='90'> <img id='selected' src='G_1.jpg' height='90'> <img src='G_4.jpg' height='90'>","null","Animation1","",""
"","","","","","html-keyboard-response","121","137288","0.0-98.0","17","1","2025-02-02 03:13:08","bc01a2b6f61d06f6604adb8657495020","68.45.37.73","Mozilla/5.0 (Windows NT 10.0; Win64; x64) AppleWebKit/537.36 (KHTML, like Gecko) Chrome/132.0.0.0 Safari/537.36","WebKit","Chrome","132.0.0.0","Windows","10.0","https://app.prolific.com/","en-US,en;q=0.9,fr;q=0.8,id;q=0.7","661de1d2f9c50b06f796b9cc","679edb085803f58d6bbd31ca","679ee2a7fdc71b640a413a6f","","null","<img     src='G_6.jpg' height='90'> <img     src='G_3.jpg' height='90'> <img     src='G_5.jpg' height='90'> <img      src='G_2.jpg' height='90'> <img   src='G_7.jpg' height='90'> <img       src='G_8.jpg' height='90'> <img  src='G_1.jpg' height='90'> <img src='G_4.jpg' height='90'>","null","Animation1","",""
"","","","","","html-keyboard-response","122","137803","0.0-99.0","17","1","2025-02-02 03:13:08","bc01a2b6f61d06f6604adb8657495020","68.45.37.73","Mozilla/5.0 (Windows NT 10.0; Win64; x64) AppleWebKit/537.36 (KHTML, like Gecko) Chrome/132.0.0.0 Safari/537.36","WebKit","Chrome","132.0.0.0","Windows","10.0","https://app.prolific.com/","en-US,en;q=0.9,fr;q=0.8,id;q=0.7","661de1d2f9c50b06f796b9cc","679edb085803f58d6bbd31ca","679ee2a7fdc71b640a413a6f","","null","<img     src='G_6.jpg' height='90'> <img     src='G_3.jpg' height='90'> <img     src='G_5.jpg' height='90'> <img      src='G_2.jpg' height='90'> <img   src='G_7.jpg' height='90'> <img       src='G_8.jpg' height='90'> <img id='selected'  src='G_1.jpg' height='90'> <img src='G_4.jpg' height='90'>","null","Animation1","",""
"","","","","","html-keyboard-response","123","138324","0.0-100.0","17","1","2025-02-02 03:13:08","bc01a2b6f61d06f6604adb8657495020","68.45.37.73","Mozilla/5.0 (Windows NT 10.0; Win64; x64) AppleWebKit/537.36 (KHTML, like Gecko) Chrome/132.0.0.0 Safari/537.36","WebKit","Chrome","132.0.0.0","Windows","10.0","https://app.prolific.com/","en-US,en;q=0.9,fr;q=0.8,id;q=0.7","661de1d2f9c50b06f796b9cc","679edb085803f58d6bbd31ca","679ee2a7fdc71b640a413a6f","","null","<img     src='G_6.jpg' height='90'> <img     src='G_3.jpg' height='90'> <img     src='G_5.jpg' height='90'> <img      src='G_2.jpg' height='90'> <img   src='G_7.jpg' height='90'> <img       src='G_8.jpg' height='90'> <img id='selected'  src='G_1.jpg' height='90'> <img id='selected' src='G_4.jpg' height='90'>","null","Animation1","",""
"","","","","","html-keyboard-response","124","138836","0.0-101.0","17","1","2025-02-02 03:13:08","bc01a2b6f61d06f6604adb8657495020","68.45.37.73","Mozilla/5.0 (Windows NT 10.0; Win64; x64) AppleWebKit/537.36 (KHTML, like Gecko) Chrome/132.0.0.0 Safari/537.36","WebKit","Chrome","132.0.0.0","Windows","10.0","https://app.prolific.com/","en-US,en;q=0.9,fr;q=0.8,id;q=0.7","661de1d2f9c50b06f796b9cc","679edb085803f58d6bbd31ca","679ee2a7fdc71b640a413a6f","","null","<img     src='G_6.jpg' height='90'> <img     src='G_3.jpg' height='90'> <img     src='G_5.jpg' height='90'> <img      src='G_2.jpg' height='90'> <img   src='G_7.jpg' height='90'> <img       src='G_8.jpg' height='90'> <img id='swapped' src='G_4.jpg' height='90'> <img id='swapped'  src='G_1.jpg' height='90'>","null","Animation1","",""
"","","","","","html-keyboard-response","125","139150","0.0-102.0","17","1","2025-02-02 03:13:08","bc01a2b6f61d06f6604adb8657495020","68.45.37.73","Mozilla/5.0 (Windows NT 10.0; Win64; x64) AppleWebKit/537.36 (KHTML, like Gecko) Chrome/132.0.0.0 Safari/537.36","WebKit","Chrome","132.0.0.0","Windows","10.0","https://app.prolific.com/","en-US,en;q=0.9,fr;q=0.8,id;q=0.7","661de1d2f9c50b06f796b9cc","679edb085803f58d6bbd31ca","679ee2a7fdc71b640a413a6f","","null","<img     src='G_6.jpg' height='90'> <img     src='G_3.jpg' height='90'> <img     src='G_5.jpg' height='90'> <img      src='G_2.jpg' height='90'> <img   src='G_7.jpg' height='90'> <img       src='G_8.jpg' height='90'> <img  src='G_4.jpg' height='90'> <img   src='G_1.jpg' height='90'>","null","Animation1","",""
"","","","","","html-keyboard-response","126","139665","0.0-103.0","17","1","2025-02-02 03:13:08","bc01a2b6f61d06f6604adb8657495020","68.45.37.73","Mozilla/5.0 (Windows NT 10.0; Win64; x64) AppleWebKit/537.36 (KHTML, like Gecko) Chrome/132.0.0.0 Safari/537.36","WebKit","Chrome","132.0.0.0","Windows","10.0","https://app.prolific.com/","en-US,en;q=0.9,fr;q=0.8,id;q=0.7","661de1d2f9c50b06f796b9cc","679edb085803f58d6bbd31ca","679ee2a7fdc71b640a413a6f","","null","<img     src='G_6.jpg' height='90'> <img     src='G_3.jpg' height='90'> <img     src='G_5.jpg' height='90'> <img      src='G_2.jpg' height='90'> <img   src='G_7.jpg' height='90'> <img id='selected'       src='G_8.jpg' height='90'> <img  src='G_4.jpg' height='90'> <img   src='G_1.jpg' height='90'>","null","Animation1","",""
"","","","","","html-keyboard-response","127","140178","0.0-104.0","17","1","2025-02-02 03:13:08","bc01a2b6f61d06f6604adb8657495020","68.45.37.73","Mozilla/5.0 (Windows NT 10.0; Win64; x64) AppleWebKit/537.36 (KHTML, like Gecko) Chrome/132.0.0.0 Safari/537.36","WebKit","Chrome","132.0.0.0","Windows","10.0","https://app.prolific.com/","en-US,en;q=0.9,fr;q=0.8,id;q=0.7","661de1d2f9c50b06f796b9cc","679edb085803f58d6bbd31ca","679ee2a7fdc71b640a413a6f","","null","<img     src='G_6.jpg' height='90'> <img     src='G_3.jpg' height='90'> <img     src='G_5.jpg' height='90'> <img      src='G_2.jpg' height='90'> <img   src='G_7.jpg' height='90'> <img id='selected'       src='G_8.jpg' height='90'> <img id='selected'  src='G_4.jpg' height='90'> <img   src='G_1.jpg' height='90'>","null","Animation1","",""
"","","","","","html-keyboard-response","128","140697","0.0-105.0","17","1","2025-02-02 03:13:08","bc01a2b6f61d06f6604adb8657495020","68.45.37.73","Mozilla/5.0 (Windows NT 10.0; Win64; x64) AppleWebKit/537.36 (KHTML, like Gecko) Chrome/132.0.0.0 Safari/537.36","WebKit","Chrome","132.0.0.0","Windows","10.0","https://app.prolific.com/","en-US,en;q=0.9,fr;q=0.8,id;q=0.7","661de1d2f9c50b06f796b9cc","679edb085803f58d6bbd31ca","679ee2a7fdc71b640a413a6f","","null","<img     src='G_6.jpg' height='90'> <img     src='G_3.jpg' height='90'> <img     src='G_5.jpg' height='90'> <img      src='G_2.jpg' height='90'> <img   src='G_7.jpg' height='90'> <img id='selected'       src='G_8.jpg' height='90'> <img id='selected'  src='G_4.jpg' height='90'> <img   src='G_1.jpg' height='90'>","null","Animation1","",""
"","","","","","html-keyboard-response","129","141007","0.0-106.0","17","1","2025-02-02 03:13:08","bc01a2b6f61d06f6604adb8657495020","68.45.37.73","Mozilla/5.0 (Windows NT 10.0; Win64; x64) AppleWebKit/537.36 (KHTML, like Gecko) Chrome/132.0.0.0 Safari/537.36","WebKit","Chrome","132.0.0.0","Windows","10.0","https://app.prolific.com/","en-US,en;q=0.9,fr;q=0.8,id;q=0.7","661de1d2f9c50b06f796b9cc","679edb085803f58d6bbd31ca","679ee2a7fdc71b640a413a6f","","null","<img     src='G_6.jpg' height='90'> <img     src='G_3.jpg' height='90'> <img     src='G_5.jpg' height='90'> <img      src='G_2.jpg' height='90'> <img   src='G_7.jpg' height='90'> <img        src='G_8.jpg' height='90'> <img   src='G_4.jpg' height='90'> <img   src='G_1.jpg' height='90'>","null","Animation1","",""
"","","","","","html-keyboard-response","130","143368","0.0-107.0","17","1","2025-02-02 03:13:08","bc01a2b6f61d06f6604adb8657495020","68.45.37.73","Mozilla/5.0 (Windows NT 10.0; Win64; x64) AppleWebKit/537.36 (KHTML, like Gecko) Chrome/132.0.0.0 Safari/537.36","WebKit","Chrome","132.0.0.0","Windows","10.0","https://app.prolific.com/","en-US,en;q=0.9,fr;q=0.8,id;q=0.7","661de1d2f9c50b06f796b9cc","679edb085803f58d6bbd31ca","679ee2a7fdc71b640a413a6f","","2355","[""Did you notice any patterns? <br><br>Press Enter to watch that example again and follow the steps of Omgne Sort.""]","enter","","",""
"","","","","","html-button-response","131","143786","0.0-108.0","17","1","2025-02-02 03:13:08","bc01a2b6f61d06f6604adb8657495020","68.45.37.73","Mozilla/5.0 (Windows NT 10.0; Win64; x64) AppleWebKit/537.36 (KHTML, like Gecko) Chrome/132.0.0.0 Safari/537.36","WebKit","Chrome","132.0.0.0","Windows","10.0","https://app.prolific.com/","en-US,en;q=0.9,fr;q=0.8,id;q=0.7","661de1d2f9c50b06f796b9cc","679edb085803f58d6bbd31ca","679ee2a7fdc71b640a413a6f","","null","<img id='selected' src='G_2.jpg' height='90'> <img src='G_8.jpg' height='90'> <img src='G_5.jpg' height='90'> <img src='G_6.jpg' height='90'> <img src='G_3.jpg' height='90'> <img src='G_7.jpg' height='90'> <img src='G_1.jpg' height='90'> <img src='G_4.jpg' height='90'>","null","Learning example 1","",""
"","","","","","html-button-response","132","144096","0.0-109.0","17","1","2025-02-02 03:13:08","bc01a2b6f61d06f6604adb8657495020","68.45.37.73","Mozilla/5.0 (Windows NT 10.0; Win64; x64) AppleWebKit/537.36 (KHTML, like Gecko) Chrome/132.0.0.0 Safari/537.36","WebKit","Chrome","132.0.0.0","Windows","10.0","https://app.prolific.com/","en-US,en;q=0.9,fr;q=0.8,id;q=0.7","661de1d2f9c50b06f796b9cc","679edb085803f58d6bbd31ca","679ee2a7fdc71b640a413a6f","","null","<img id='selected' src='G_2.jpg' height='90'> <img id='selected' src='G_8.jpg' height='90'> <img src='G_5.jpg' height='90'> <img src='G_6.jpg' height='90'> <img src='G_3.jpg' height='90'> <img src='G_7.jpg' height='90'> <img src='G_1.jpg' height='90'> <img src='G_4.jpg' height='90'>","null","Learning example 1","",""
"","","","","","html-button-response","133","144408","0.0-110.0","17","1","2025-02-02 03:13:08","bc01a2b6f61d06f6604adb8657495020","68.45.37.73","Mozilla/5.0 (Windows NT 10.0; Win64; x64) AppleWebKit/537.36 (KHTML, like Gecko) Chrome/132.0.0.0 Safari/537.36","WebKit","Chrome","132.0.0.0","Windows","10.0","https://app.prolific.com/","en-US,en;q=0.9,fr;q=0.8,id;q=0.7","661de1d2f9c50b06f796b9cc","679edb085803f58d6bbd31ca","679ee2a7fdc71b640a413a6f","","null","<img id='selected' src='G_2.jpg' height='90'> <img id='selected' src='G_8.jpg' height='90'> <img src='G_5.jpg' height='90'> <img src='G_6.jpg' height='90'> <img src='G_3.jpg' height='90'> <img src='G_7.jpg' height='90'> <img src='G_1.jpg' height='90'> <img src='G_4.jpg' height='90'>","null","Learning example 1","",""
"","","","","","html-button-response","134","145281","0.0-111.0-0.0-0.0","17","1","2025-02-02 03:13:08","bc01a2b6f61d06f6604adb8657495020","68.45.37.73","Mozilla/5.0 (Windows NT 10.0; Win64; x64) AppleWebKit/537.36 (KHTML, like Gecko) Chrome/132.0.0.0 Safari/537.36","WebKit","Chrome","132.0.0.0","Windows","10.0","https://app.prolific.com/","en-US,en;q=0.9,fr;q=0.8,id;q=0.7","661de1d2f9c50b06f796b9cc","679edb085803f58d6bbd31ca","679ee2a7fdc71b640a413a6f","","868","<img id='selected' src='G_2.jpg' height='90'> <img id='selected' src='G_8.jpg' height='90'> <img src='G_5.jpg' height='90'> <img src='G_6.jpg' height='90'> <img src='G_3.jpg' height='90'> <img src='G_7.jpg' height='90'> <img src='G_1.jpg' height='90'> <img src='G_4.jpg' height='90'>","0","Learning example 1","",""
"","","","","","html-button-response","135","146169","0.0-111.1-0.1-0.1","17","1","2025-02-02 03:13:08","bc01a2b6f61d06f6604adb8657495020","68.45.37.73","Mozilla/5.0 (Windows NT 10.0; Win64; x64) AppleWebKit/537.36 (KHTML, like Gecko) Chrome/132.0.0.0 Safari/537.36","WebKit","Chrome","132.0.0.0","Windows","10.0","https://app.prolific.com/","en-US,en;q=0.9,fr;q=0.8,id;q=0.7","661de1d2f9c50b06f796b9cc","679edb085803f58d6bbd31ca","679ee2a7fdc71b640a413a6f","","884","<img id='selected' src='G_2.jpg' height='90'> <img id='selected' src='G_8.jpg' height='90'> <img src='G_5.jpg' height='90'> <img src='G_6.jpg' height='90'> <img src='G_3.jpg' height='90'> <img src='G_7.jpg' height='90'> <img src='G_1.jpg' height='90'> <img src='G_4.jpg' height='90'>","1","Learning example 1","",""
"","","","","","html-button-response","136","146383","0.0-112.0","17","1","2025-02-02 03:13:08","bc01a2b6f61d06f6604adb8657495020","68.45.37.73","Mozilla/5.0 (Windows NT 10.0; Win64; x64) AppleWebKit/537.36 (KHTML, like Gecko) Chrome/132.0.0.0 Safari/537.36","WebKit","Chrome","132.0.0.0","Windows","10.0","https://app.prolific.com/","en-US,en;q=0.9,fr;q=0.8,id;q=0.7","661de1d2f9c50b06f796b9cc","679edb085803f58d6bbd31ca","679ee2a7fdc71b640a413a6f","","null","<img  src='G_2.jpg' height='90'> <img  src='G_8.jpg' height='90'> <img src='G_5.jpg' height='90'> <img src='G_6.jpg' height='90'> <img src='G_3.jpg' height='90'> <img src='G_7.jpg' height='90'> <img src='G_1.jpg' height='90'> <img src='G_4.jpg' height='90'>","null","Learning example 1","",""
"","","","","","html-button-response","137","146801","0.0-113.0","17","1","2025-02-02 03:13:08","bc01a2b6f61d06f6604adb8657495020","68.45.37.73","Mozilla/5.0 (Windows NT 10.0; Win64; x64) AppleWebKit/537.36 (KHTML, like Gecko) Chrome/132.0.0.0 Safari/537.36","WebKit","Chrome","132.0.0.0","Windows","10.0","https://app.prolific.com/","en-US,en;q=0.9,fr;q=0.8,id;q=0.7","661de1d2f9c50b06f796b9cc","679edb085803f58d6bbd31ca","679ee2a7fdc71b640a413a6f","","null","<img  src='G_2.jpg' height='90'> <img id='selected'  src='G_8.jpg' height='90'> <img src='G_5.jpg' height='90'> <img src='G_6.jpg' height='90'> <img src='G_3.jpg' height='90'> <img src='G_7.jpg' height='90'> <img src='G_1.jpg' height='90'> <img src='G_4.jpg' height='90'>","null","Learning example 1","",""
"","","","","","html-button-response","138","147110","0.0-114.0","17","1","2025-02-02 03:13:08","bc01a2b6f61d06f6604adb8657495020","68.45.37.73","Mozilla/5.0 (Windows NT 10.0; Win64; x64) AppleWebKit/537.36 (KHTML, like Gecko) Chrome/132.0.0.0 Safari/537.36","WebKit","Chrome","132.0.0.0","Windows","10.0","https://app.prolific.com/","en-US,en;q=0.9,fr;q=0.8,id;q=0.7","661de1d2f9c50b06f796b9cc","679edb085803f58d6bbd31ca","679ee2a7fdc71b640a413a6f","","null","<img  src='G_2.jpg' height='90'> <img id='selected'  src='G_8.jpg' height='90'> <img id='selected' src='G_5.jpg' height='90'> <img src='G_6.jpg' height='90'> <img src='G_3.jpg' height='90'> <img src='G_7.jpg' height='90'> <img src='G_1.jpg' height='90'> <img src='G_4.jpg' height='90'>","null","Learning example 1","",""
"","","","","","html-button-response","139","147331","0.0-115.0","17","1","2025-02-02 03:13:08","bc01a2b6f61d06f6604adb8657495020","68.45.37.73","Mozilla/5.0 (Windows NT 10.0; Win64; x64) AppleWebKit/537.36 (KHTML, like Gecko) Chrome/132.0.0.0 Safari/537.36","WebKit","Chrome","132.0.0.0","Windows","10.0","https://app.prolific.com/","en-US,en;q=0.9,fr;q=0.8,id;q=0.7","661de1d2f9c50b06f796b9cc","679edb085803f58d6bbd31ca","679ee2a7fdc71b640a413a6f","","215","<img  src='G_2.jpg' height='90'> <img id='swapped' src='G_5.jpg' height='90'> <img id='swapped'  src='G_8.jpg' height='90'> <img src='G_6.jpg' height='90'> <img src='G_3.jpg' height='90'> <img src='G_7.jpg' height='90'> <img src='G_1.jpg' height='90'> <img src='G_4.jpg' height='90'>","1","Learning example 1","",""
"","","","","","html-button-response","140","148555","0.0-116.0-0.0-0.0","17","1","2025-02-02 03:13:08","bc01a2b6f61d06f6604adb8657495020","68.45.37.73","Mozilla/5.0 (Windows NT 10.0; Win64; x64) AppleWebKit/537.36 (KHTML, like Gecko) Chrome/132.0.0.0 Safari/537.36","WebKit","Chrome","132.0.0.0","Windows","10.0","https://app.prolific.com/","en-US,en;q=0.9,fr;q=0.8,id;q=0.7","661de1d2f9c50b06f796b9cc","679edb085803f58d6bbd31ca","679ee2a7fdc71b640a413a6f","","1221","<img  src='G_2.jpg' height='90'> <img id='swapped' src='G_5.jpg' height='90'> <img id='swapped'  src='G_8.jpg' height='90'> <img src='G_6.jpg' height='90'> <img src='G_3.jpg' height='90'> <img src='G_7.jpg' height='90'> <img src='G_1.jpg' height='90'> <img src='G_4.jpg' height='90'>","1","Learning example 1","",""
"","","","","","html-button-response","141","149047","0.0-116.1-0.1-0.1","17","1","2025-02-02 03:13:08","bc01a2b6f61d06f6604adb8657495020","68.45.37.73","Mozilla/5.0 (Windows NT 10.0; Win64; x64) AppleWebKit/537.36 (KHTML, like Gecko) Chrome/132.0.0.0 Safari/537.36","WebKit","Chrome","132.0.0.0","Windows","10.0","https://app.prolific.com/","en-US,en;q=0.9,fr;q=0.8,id;q=0.7","661de1d2f9c50b06f796b9cc","679edb085803f58d6bbd31ca","679ee2a7fdc71b640a413a6f","","488","<img  src='G_2.jpg' height='90'> <img id='swapped' src='G_5.jpg' height='90'> <img id='swapped'  src='G_8.jpg' height='90'> <img src='G_6.jpg' height='90'> <img src='G_3.jpg' height='90'> <img src='G_7.jpg' height='90'> <img src='G_1.jpg' height='90'> <img src='G_4.jpg' height='90'>","2","Learning example 1","",""
"","","","","","html-button-response","142","149251","0.0-117.0","17","1","2025-02-02 03:13:08","bc01a2b6f61d06f6604adb8657495020","68.45.37.73","Mozilla/5.0 (Windows NT 10.0; Win64; x64) AppleWebKit/537.36 (KHTML, like Gecko) Chrome/132.0.0.0 Safari/537.36","WebKit","Chrome","132.0.0.0","Windows","10.0","https://app.prolific.com/","en-US,en;q=0.9,fr;q=0.8,id;q=0.7","661de1d2f9c50b06f796b9cc","679edb085803f58d6bbd31ca","679ee2a7fdc71b640a413a6f","","null","<img  src='G_2.jpg' height='90'> <img  src='G_5.jpg' height='90'> <img   src='G_8.jpg' height='90'> <img src='G_6.jpg' height='90'> <img src='G_3.jpg' height='90'> <img src='G_7.jpg' height='90'> <img src='G_1.jpg' height='90'> <img src='G_4.jpg' height='90'>","null","Learning example 1","",""
