"success","timeout","failed_images","failed_audio","failed_video","trial_type","trial_index","time_elapsed","internal_node_id","run_id","condition","recorded_at","source_code_version","ip","user_agent","device","browser","browser_version","platform","platform_version","referer","accept_language","PROLIFIC_PID","STUDY_ID","SESSION_ID","view_history","rt","stimulus","response","phase","question_order","presented_choices"
"true","false","[]","[]","[]","preload","0","989","0.0-0.0","18","1","2025-02-02 03:13:16","bc01a2b6f61d06f6604adb8657495020","108.195.189.32","Mozilla/5.0 (Windows NT 10.0; Win64; x64) AppleWebKit/537.36 (KHTML, like Gecko) Chrome/131.0.0.0 Safari/537.36","WebKit","Chrome","131.0.0.0","Windows","10.0","https://app.prolific.com/","en-US,en;q=0.9","6413c7853eba2b2215197ff4","679edb085803f58d6bbd31ca","679ee2b0add92295c037602e","","","","","","",""
"","","","","","instructions","1","14107","0.0-1.0","18","1","2025-02-02 03:13:16","bc01a2b6f61d06f6604adb8657495020","108.195.189.32","Mozilla/5.0 (Windows NT 10.0; Win64; x64) AppleWebKit/537.36 (KHTML, like Gecko) Chrome/131.0.0.0 Safari/537.36","WebKit","Chrome","131.0.0.0","Windows","10.0","https://app.prolific.com/","en-US,en;q=0.9","6413c7853eba2b2215197ff4","679edb085803f58d6bbd31ca","679ee2b0add92295c037602e","[{""page_index"":0,""viewing_time"":13117}]","13117","","","","",""
"","","","","","html-keyboard-response","2","14619","0.0-2.0","18","1","2025-02-02 03:13:16","bc01a2b6f61d06f6604adb8657495020","108.195.189.32","Mozilla/5.0 (Windows NT 10.0; Win64; x64) AppleWebKit/537.36 (KHTML, like Gecko) Chrome/131.0.0.0 Safari/537.36","WebKit","Chrome","131.0.0.0","Windows","10.0","https://app.prolific.com/","en-US,en;q=0.9","6413c7853eba2b2215197ff4","679edb085803f58d6bbd31ca","679ee2b0add92295c037602e","","null","<p> + <p/>","null","","",""
"","","","","","instructions","3","62176","0.0-3.0","18","1","2025-02-02 03:13:16","bc01a2b6f61d06f6604adb8657495020","108.195.189.32","Mozilla/5.0 (Windows NT 10.0; Win64; x64) AppleWebKit/537.36 (KHTML, like Gecko) Chrome/131.0.0.0 Safari/537.36","WebKit","Chrome","131.0.0.0","Windows","10.0","https://app.prolific.com/","en-US,en;q=0.9","6413c7853eba2b2215197ff4","679edb085803f58d6bbd31ca","679ee2b0add92295c037602e","[{""page_index"":0,""viewing_time"":3878},{""page_index"":1,""viewing_time"":11065},{""page_index"":2,""viewing_time"":13404},{""page_index"":3,""viewing_time"":5401},{""page_index"":4,""viewing_time"":7763}]","41510","","","","",""
"","","","","","html-button-response","4","79474","0.0-4.0-0.0-0.0","18","1","2025-02-02 03:13:16","bc01a2b6f61d06f6604adb8657495020","108.195.189.32","Mozilla/5.0 (Windows NT 10.0; Win64; x64) AppleWebKit/537.36 (KHTML, like Gecko) Chrome/131.0.0.0 Safari/537.36","WebKit","Chrome","131.0.0.0","Windows","10.0","https://app.prolific.com/","en-US,en;q=0.9","6413c7853eba2b2215197ff4","679edb085803f58d6bbd31ca","679ee2b0add92295c037602e","","17296","","2","Intro Trial","",""
"","","","","","html-button-response","5","86036","0.0-4.1-0.1-0.1","18","1","2025-02-02 03:13:16","bc01a2b6f61d06f6604adb8657495020","108.195.189.32","Mozilla/5.0 (Windows NT 10.0; Win64; x64) AppleWebKit/537.36 (KHTML, like Gecko) Chrome/131.0.0.0 Safari/537.36","WebKit","Chrome","131.0.0.0","Windows","10.0","https://app.prolific.com/","en-US,en;q=0.9","6413c7853eba2b2215197ff4","679edb085803f58d6bbd31ca","679ee2b0add92295c037602e","","6560","","0","Intro Trial","",""
"","","","","","html-button-response","6","98751","0.0-4.2-0.2-0.2","18","1","2025-02-02 03:13:16","bc01a2b6f61d06f6604adb8657495020","108.195.189.32","Mozilla/5.0 (Windows NT 10.0; Win64; x64) AppleWebKit/537.36 (KHTML, like Gecko) Chrome/131.0.0.0 Safari/537.36","WebKit","Chrome","131.0.0.0","Windows","10.0","https://app.prolific.com/","en-US,en;q=0.9","6413c7853eba2b2215197ff4","679edb085803f58d6bbd31ca","679ee2b0add92295c037602e","","12713","","3","Intro Trial","",""
"","","","","","html-button-response","7","100412","0.0-4.3-0.3-0.3","18","1","2025-02-02 03:13:16","bc01a2b6f61d06f6604adb8657495020","108.195.189.32","Mozilla/5.0 (Windows NT 10.0; Win64; x64) AppleWebKit/537.36 (KHTML, like Gecko) Chrome/131.0.0.0 Safari/537.36","WebKit","Chrome","131.0.0.0","Windows","10.0","https://app.prolific.com/","en-US,en;q=0.9","6413c7853eba2b2215197ff4","679edb085803f58d6bbd31ca","679ee2b0add92295c037602e","","1659","","4","Intro Trial","",""
"","","","","","html-button-response","8","108423","0.0-4.4-0.4-0.4","18","1","2025-02-02 03:13:16","bc01a2b6f61d06f6604adb8657495020","108.195.189.32","Mozilla/5.0 (Windows NT 10.0; Win64; x64) AppleWebKit/537.36 (KHTML, like Gecko) Chrome/131.0.0.0 Safari/537.36","WebKit","Chrome","131.0.0.0","Windows","10.0","https://app.prolific.com/","en-US,en;q=0.9","6413c7853eba2b2215197ff4","679edb085803f58d6bbd31ca","679ee2b0add92295c037602e","","8009","","5","Intro Trial","",""
"","","","","","html-keyboard-response","9","117712","0.0-5.0","18","1","2025-02-02 03:13:16","bc01a2b6f61d06f6604adb8657495020","108.195.189.32","Mozilla/5.0 (Windows NT 10.0; Win64; x64) AppleWebKit/537.36 (KHTML, like Gecko) Chrome/131.0.0.0 Safari/537.36","WebKit","Chrome","131.0.0.0","Windows","10.0","https://app.prolific.com/","en-US,en;q=0.9","6413c7853eba2b2215197ff4","679edb085803f58d6bbd31ca","679ee2b0add92295c037602e","","9287","[""You sorted incorrectly by using the balance 2 times. <br><br> <img src='G_3.jpg' height='90'><img src='G_2.jpg' height='90'><img src='G_1.jpg' height='90'><img src='G_5.jpg' height='90'><img src='G_4.jpg' height='90'><br><br> Your final order is 3,2,4,1,5<br><br><br>Omgne Sort in this game will allow you to sort correctly by using the balance 8 times. Press Enter to learn it!""]","enter","","",""
"","","","","","html-keyboard-response","10","123025","0.0-6.0","18","1","2025-02-02 03:13:16","bc01a2b6f61d06f6604adb8657495020","108.195.189.32","Mozilla/5.0 (Windows NT 10.0; Win64; x64) AppleWebKit/537.36 (KHTML, like Gecko) Chrome/131.0.0.0 Safari/537.36","WebKit","Chrome","131.0.0.0","Windows","10.0","https://app.prolific.com/","en-US,en;q=0.9","6413c7853eba2b2215197ff4","679edb085803f58d6bbd31ca","679ee2b0add92295c037602e","","5311","<p>Welcome to the learning phase! <br><br> You will learn by six examples. The following learning trials will not be used to calculate your performance. <br><br> Press Enter to continue.<p/>","enter","","",""
"","","","","","html-keyboard-response","11","127781","0.0-7.0","18","1","2025-02-02 03:13:16","bc01a2b6f61d06f6604adb8657495020","108.195.189.32","Mozilla/5.0 (Windows NT 10.0; Win64; x64) AppleWebKit/537.36 (KHTML, like Gecko) Chrome/131.0.0.0 Safari/537.36","WebKit","Chrome","131.0.0.0","Windows","10.0","https://app.prolific.com/","en-US,en;q=0.9","6413c7853eba2b2215197ff4","679edb085803f58d6bbd31ca","679ee2b0add92295c037602e","","4755","[""Example 1<br><br>You will watch Omnge Sort in action. Try to identify any patterns in the comparisons made by this method. <br><br>Press Enter to continue.""]","enter","","",""
"","","","","","html-keyboard-response","12","128287","0.0-8.0","18","1","2025-02-02 03:13:16","bc01a2b6f61d06f6604adb8657495020","108.195.189.32","Mozilla/5.0 (Windows NT 10.0; Win64; x64) AppleWebKit/537.36 (KHTML, like Gecko) Chrome/131.0.0.0 Safari/537.36","WebKit","Chrome","131.0.0.0","Windows","10.0","https://app.prolific.com/","en-US,en;q=0.9","6413c7853eba2b2215197ff4","679edb085803f58d6bbd31ca","679ee2b0add92295c037602e","","null","<img id='selected' src='G_7.jpg' height='90'> <img src='G_1.jpg' height='90'> <img src='G_5.jpg' height='90'> <img src='G_9.jpg' height='90'> <img src='G_3.jpg' height='90'>","null","Animation0","",""
"","","","","","html-keyboard-response","13","128811","0.0-9.0","18","1","2025-02-02 03:13:16","bc01a2b6f61d06f6604adb8657495020","108.195.189.32","Mozilla/5.0 (Windows NT 10.0; Win64; x64) AppleWebKit/537.36 (KHTML, like Gecko) Chrome/131.0.0.0 Safari/537.36","WebKit","Chrome","131.0.0.0","Windows","10.0","https://app.prolific.com/","en-US,en;q=0.9","6413c7853eba2b2215197ff4","679edb085803f58d6bbd31ca","679ee2b0add92295c037602e","","null","<img id='selected' src='G_7.jpg' height='90'> <img id='selected' src='G_1.jpg' height='90'> <img src='G_5.jpg' height='90'> <img src='G_9.jpg' height='90'> <img src='G_3.jpg' height='90'>","null","Animation0","",""
"","","","","","html-keyboard-response","14","129331","0.0-10.0","18","1","2025-02-02 03:13:16","bc01a2b6f61d06f6604adb8657495020","108.195.189.32","Mozilla/5.0 (Windows NT 10.0; Win64; x64) AppleWebKit/537.36 (KHTML, like Gecko) Chrome/131.0.0.0 Safari/537.36","WebKit","Chrome","131.0.0.0","Windows","10.0","https://app.prolific.com/","en-US,en;q=0.9","6413c7853eba2b2215197ff4","679edb085803f58d6bbd31ca","679ee2b0add92295c037602e","","null","<img id='swapped' src='G_1.jpg' height='90'> <img id='swapped' src='G_7.jpg' height='90'> <img src='G_5.jpg' height='90'> <img src='G_9.jpg' height='90'> <img src='G_3.jpg' height='90'>","null","Animation0","",""
"","","","","","html-keyboard-response","15","129642","0.0-11.0","18","1","2025-02-02 03:13:16","bc01a2b6f61d06f6604adb8657495020","108.195.189.32","Mozilla/5.0 (Windows NT 10.0; Win64; x64) AppleWebKit/537.36 (KHTML, like Gecko) Chrome/131.0.0.0 Safari/537.36","WebKit","Chrome","131.0.0.0","Windows","10.0","https://app.prolific.com/","en-US,en;q=0.9","6413c7853eba2b2215197ff4","679edb085803f58d6bbd31ca","679ee2b0add92295c037602e","","null","<img  src='G_1.jpg' height='90'> <img  src='G_7.jpg' height='90'> <img src='G_5.jpg' height='90'> <img src='G_9.jpg' height='90'> <img src='G_3.jpg' height='90'>","null","Animation0","",""
"","","","","","html-keyboard-response","16","130153","0.0-12.0","18","1","2025-02-02 03:13:16","bc01a2b6f61d06f6604adb8657495020","108.195.189.32","Mozilla/5.0 (Windows NT 10.0; Win64; x64) AppleWebKit/537.36 (KHTML, like Gecko) Chrome/131.0.0.0 Safari/537.36","WebKit","Chrome","131.0.0.0","Windows","10.0","https://app.prolific.com/","en-US,en;q=0.9","6413c7853eba2b2215197ff4","679edb085803f58d6bbd31ca","679ee2b0add92295c037602e","","null","<img  src='G_1.jpg' height='90'> <img id='selected'  src='G_7.jpg' height='90'> <img src='G_5.jpg' height='90'> <img src='G_9.jpg' height='90'> <img src='G_3.jpg' height='90'>","null","Animation0","",""
"","","","","","html-keyboard-response","17","130656","0.0-13.0","18","1","2025-02-02 03:13:16","bc01a2b6f61d06f6604adb8657495020","108.195.189.32","Mozilla/5.0 (Windows NT 10.0; Win64; x64) AppleWebKit/537.36 (KHTML, like Gecko) Chrome/131.0.0.0 Safari/537.36","WebKit","Chrome","131.0.0.0","Windows","10.0","https://app.prolific.com/","en-US,en;q=0.9","6413c7853eba2b2215197ff4","679edb085803f58d6bbd31ca","679ee2b0add92295c037602e","","null","<img  src='G_1.jpg' height='90'> <img id='selected'  src='G_7.jpg' height='90'> <img id='selected' src='G_5.jpg' height='90'> <img src='G_9.jpg' height='90'> <img src='G_3.jpg' height='90'>","null","Animation0","",""
"","","","","","html-keyboard-response","18","131169","0.0-14.0","18","1","2025-02-02 03:13:16","bc01a2b6f61d06f6604adb8657495020","108.195.189.32","Mozilla/5.0 (Windows NT 10.0; Win64; x64) AppleWebKit/537.36 (KHTML, like Gecko) Chrome/131.0.0.0 Safari/537.36","WebKit","Chrome","131.0.0.0","Windows","10.0","https://app.prolific.com/","en-US,en;q=0.9","6413c7853eba2b2215197ff4","679edb085803f58d6bbd31ca","679ee2b0add92295c037602e","","null","<img  src='G_1.jpg' height='90'> <img id='selected'  src='G_7.jpg' height='90'> <img id='selected' src='G_5.jpg' height='90'> <img src='G_9.jpg' height='90'> <img src='G_3.jpg' height='90'>","null","Animation0","",""
"","","","","","html-keyboard-response","19","131478","0.0-15.0","18","1","2025-02-02 03:13:16","bc01a2b6f61d06f6604adb8657495020","108.195.189.32","Mozilla/5.0 (Windows NT 10.0; Win64; x64) AppleWebKit/537.36 (KHTML, like Gecko) Chrome/131.0.0.0 Safari/537.36","WebKit","Chrome","131.0.0.0","Windows","10.0","https://app.prolific.com/","en-US,en;q=0.9","6413c7853eba2b2215197ff4","679edb085803f58d6bbd31ca","679ee2b0add92295c037602e","","null","<img  src='G_1.jpg' height='90'> <img   src='G_7.jpg' height='90'> <img  src='G_5.jpg' height='90'> <img src='G_9.jpg' height='90'> <img src='G_3.jpg' height='90'>","null","Animation0","",""
"","","","","","html-keyboard-response","20","131989","0.0-16.0","18","1","2025-02-02 03:13:16","bc01a2b6f61d06f6604adb8657495020","108.195.189.32","Mozilla/5.0 (Windows NT 10.0; Win64; x64) AppleWebKit/537.36 (KHTML, like Gecko) Chrome/131.0.0.0 Safari/537.36","WebKit","Chrome","131.0.0.0","Windows","10.0","https://app.prolific.com/","en-US,en;q=0.9","6413c7853eba2b2215197ff4","679edb085803f58d6bbd31ca","679ee2b0add92295c037602e","","null","<img  src='G_1.jpg' height='90'> <img   src='G_7.jpg' height='90'> <img id='selected'  src='G_5.jpg' height='90'> <img src='G_9.jpg' height='90'> <img src='G_3.jpg' height='90'>","null","Animation0","",""
"","","","","","html-keyboard-response","21","132501","0.0-17.0","18","1","2025-02-02 03:13:16","bc01a2b6f61d06f6604adb8657495020","108.195.189.32","Mozilla/5.0 (Windows NT 10.0; Win64; x64) AppleWebKit/537.36 (KHTML, like Gecko) Chrome/131.0.0.0 Safari/537.36","WebKit","Chrome","131.0.0.0","Windows","10.0","https://app.prolific.com/","en-US,en;q=0.9","6413c7853eba2b2215197ff4","679edb085803f58d6bbd31ca","679ee2b0add92295c037602e","","null","<img  src='G_1.jpg' height='90'> <img   src='G_7.jpg' height='90'> <img id='selected'  src='G_5.jpg' height='90'> <img id='selected' src='G_9.jpg' height='90'> <img src='G_3.jpg' height='90'>","null","Animation0","",""
"","","","","","html-keyboard-response","22","133005","0.0-18.0","18","1","2025-02-02 03:13:16","bc01a2b6f61d06f6604adb8657495020","108.195.189.32","Mozilla/5.0 (Windows NT 10.0; Win64; x64) AppleWebKit/537.36 (KHTML, like Gecko) Chrome/131.0.0.0 Safari/537.36","WebKit","Chrome","131.0.0.0","Windows","10.0","https://app.prolific.com/","en-US,en;q=0.9","6413c7853eba2b2215197ff4","679edb085803f58d6bbd31ca","679ee2b0add92295c037602e","","null","<img  src='G_1.jpg' height='90'> <img   src='G_7.jpg' height='90'> <img id='selected'  src='G_5.jpg' height='90'> <img id='selected' src='G_9.jpg' height='90'> <img src='G_3.jpg' height='90'>","null","Animation0","",""
"","","","","","html-keyboard-response","23","133325","0.0-19.0","18","1","2025-02-02 03:13:16","bc01a2b6f61d06f6604adb8657495020","108.195.189.32","Mozilla/5.0 (Windows NT 10.0; Win64; x64) AppleWebKit/537.36 (KHTML, like Gecko) Chrome/131.0.0.0 Safari/537.36","WebKit","Chrome","131.0.0.0","Windows","10.0","https://app.prolific.com/","en-US,en;q=0.9","6413c7853eba2b2215197ff4","679edb085803f58d6bbd31ca","679ee2b0add92295c037602e","","null","<img  src='G_1.jpg' height='90'> <img   src='G_7.jpg' height='90'> <img   src='G_5.jpg' height='90'> <img  src='G_9.jpg' height='90'> <img src='G_3.jpg' height='90'>","null","Animation0","",""
"","","","","","html-keyboard-response","24","133836","0.0-20.0","18","1","2025-02-02 03:13:16","bc01a2b6f61d06f6604adb8657495020","108.195.189.32","Mozilla/5.0 (Windows NT 10.0; Win64; x64) AppleWebKit/537.36 (KHTML, like Gecko) Chrome/131.0.0.0 Safari/537.36","WebKit","Chrome","131.0.0.0","Windows","10.0","https://app.prolific.com/","en-US,en;q=0.9","6413c7853eba2b2215197ff4","679edb085803f58d6bbd31ca","679ee2b0add92295c037602e","","null","<img  src='G_1.jpg' height='90'> <img   src='G_7.jpg' height='90'> <img   src='G_5.jpg' height='90'> <img id='selected'  src='G_9.jpg' height='90'> <img src='G_3.jpg' height='90'>","null","Animation0","",""
"","","","","","html-keyboard-response","25","134346","0.0-21.0","18","1","2025-02-02 03:13:16","bc01a2b6f61d06f6604adb8657495020","108.195.189.32","Mozilla/5.0 (Windows NT 10.0; Win64; x64) AppleWebKit/537.36 (KHTML, like Gecko) Chrome/131.0.0.0 Safari/537.36","WebKit","Chrome","131.0.0.0","Windows","10.0","https://app.prolific.com/","en-US,en;q=0.9","6413c7853eba2b2215197ff4","679edb085803f58d6bbd31ca","679ee2b0add92295c037602e","","null","<img  src='G_1.jpg' height='90'> <img   src='G_7.jpg' height='90'> <img   src='G_5.jpg' height='90'> <img id='selected'  src='G_9.jpg' height='90'> <img id='selected' src='G_3.jpg' height='90'>","null","Animation0","",""
"","","","","","html-keyboard-response","26","134849","0.0-22.0","18","1","2025-02-02 03:13:16","bc01a2b6f61d06f6604adb8657495020","108.195.189.32","Mozilla/5.0 (Windows NT 10.0; Win64; x64) AppleWebKit/537.36 (KHTML, like Gecko) Chrome/131.0.0.0 Safari/537.36","WebKit","Chrome","131.0.0.0","Windows","10.0","https://app.prolific.com/","en-US,en;q=0.9","6413c7853eba2b2215197ff4","679edb085803f58d6bbd31ca","679ee2b0add92295c037602e","","null","<img  src='G_1.jpg' height='90'> <img   src='G_7.jpg' height='90'> <img   src='G_5.jpg' height='90'> <img id='selected'  src='G_9.jpg' height='90'> <img id='selected' src='G_3.jpg' height='90'>","null","Animation0","",""
"","","","","","html-keyboard-response","27","135164","0.0-23.0","18","1","2025-02-02 03:13:16","bc01a2b6f61d06f6604adb8657495020","108.195.189.32","Mozilla/5.0 (Windows NT 10.0; Win64; x64) AppleWebKit/537.36 (KHTML, like Gecko) Chrome/131.0.0.0 Safari/537.36","WebKit","Chrome","131.0.0.0","Windows","10.0","https://app.prolific.com/","en-US,en;q=0.9","6413c7853eba2b2215197ff4","679edb085803f58d6bbd31ca","679ee2b0add92295c037602e","","null","<img  src='G_1.jpg' height='90'> <img   src='G_7.jpg' height='90'> <img   src='G_5.jpg' height='90'> <img   src='G_9.jpg' height='90'> <img  src='G_3.jpg' height='90'>","null","Animation0","",""
"","","","","","html-keyboard-response","28","139394","0.0-24.0","18","1","2025-02-02 03:13:16","bc01a2b6f61d06f6604adb8657495020","108.195.189.32","Mozilla/5.0 (Windows NT 10.0; Win64; x64) AppleWebKit/537.36 (KHTML, like Gecko) Chrome/131.0.0.0 Safari/537.36","WebKit","Chrome","131.0.0.0","Windows","10.0","https://app.prolific.com/","en-US,en;q=0.9","6413c7853eba2b2215197ff4","679edb085803f58d6bbd31ca","679ee2b0add92295c037602e","","4229","[""Did you notice any patterns? <br><br>Press Enter to watch that example again and follow the steps of Omgne Sort.""]","enter","","",""
"","","","","","html-button-response","29","139806","0.0-25.0","18","1","2025-02-02 03:13:16","bc01a2b6f61d06f6604adb8657495020","108.195.189.32","Mozilla/5.0 (Windows NT 10.0; Win64; x64) AppleWebKit/537.36 (KHTML, like Gecko) Chrome/131.0.0.0 Safari/537.36","WebKit","Chrome","131.0.0.0","Windows","10.0","https://app.prolific.com/","en-US,en;q=0.9","6413c7853eba2b2215197ff4","679edb085803f58d6bbd31ca","679ee2b0add92295c037602e","","null","<img id='selected' src='G_7.jpg' height='90'> <img src='G_1.jpg' height='90'> <img src='G_5.jpg' height='90'> <img src='G_9.jpg' height='90'> <img src='G_3.jpg' height='90'>","null","Learning example 0","",""
"","","","","","html-button-response","30","140123","0.0-26.0","18","1","2025-02-02 03:13:16","bc01a2b6f61d06f6604adb8657495020","108.195.189.32","Mozilla/5.0 (Windows NT 10.0; Win64; x64) AppleWebKit/537.36 (KHTML, like Gecko) Chrome/131.0.0.0 Safari/537.36","WebKit","Chrome","131.0.0.0","Windows","10.0","https://app.prolific.com/","en-US,en;q=0.9","6413c7853eba2b2215197ff4","679edb085803f58d6bbd31ca","679ee2b0add92295c037602e","","null","<img id='selected' src='G_7.jpg' height='90'> <img id='selected' src='G_1.jpg' height='90'> <img src='G_5.jpg' height='90'> <img src='G_9.jpg' height='90'> <img src='G_3.jpg' height='90'>","null","Learning example 0","",""
"","","","","","html-button-response","31","140428","0.0-27.0","18","1","2025-02-02 03:13:16","bc01a2b6f61d06f6604adb8657495020","108.195.189.32","Mozilla/5.0 (Windows NT 10.0; Win64; x64) AppleWebKit/537.36 (KHTML, like Gecko) Chrome/131.0.0.0 Safari/537.36","WebKit","Chrome","131.0.0.0","Windows","10.0","https://app.prolific.com/","en-US,en;q=0.9","6413c7853eba2b2215197ff4","679edb085803f58d6bbd31ca","679ee2b0add92295c037602e","","null","<img id='swapped' src='G_1.jpg' height='90'> <img id='swapped' src='G_7.jpg' height='90'> <img src='G_5.jpg' height='90'> <img src='G_9.jpg' height='90'> <img src='G_3.jpg' height='90'>","null","Learning example 0","",""
"","","","","","html-button-response","32","179377","0.0-28.0-0.0-0.0","18","1","2025-02-02 03:13:16","bc01a2b6f61d06f6604adb8657495020","108.195.189.32","Mozilla/5.0 (Windows NT 10.0; Win64; x64) AppleWebKit/537.36 (KHTML, like Gecko) Chrome/131.0.0.0 Safari/537.36","WebKit","Chrome","131.0.0.0","Windows","10.0","https://app.prolific.com/","en-US,en;q=0.9","6413c7853eba2b2215197ff4","679edb085803f58d6bbd31ca","679ee2b0add92295c037602e","","38945","<img id='swapped' src='G_1.jpg' height='90'> <img id='swapped' src='G_7.jpg' height='90'> <img src='G_5.jpg' height='90'> <img src='G_9.jpg' height='90'> <img src='G_3.jpg' height='90'>","1","Learning example 0","",""
"","","","","","html-button-response","33","182311","0.0-28.1-0.1-0.1","18","1","2025-02-02 03:13:16","bc01a2b6f61d06f6604adb8657495020","108.195.189.32","Mozilla/5.0 (Windows NT 10.0; Win64; x64) AppleWebKit/537.36 (KHTML, like Gecko) Chrome/131.0.0.0 Safari/537.36","WebKit","Chrome","131.0.0.0","Windows","10.0","https://app.prolific.com/","en-US,en;q=0.9","6413c7853eba2b2215197ff4","679edb085803f58d6bbd31ca","679ee2b0add92295c037602e","","2931","<img id='swapped' src='G_1.jpg' height='90'> <img id='swapped' src='G_7.jpg' height='90'> <img src='G_5.jpg' height='90'> <img src='G_9.jpg' height='90'> <img src='G_3.jpg' height='90'>","0","Learning example 0","",""
"","","","","","html-button-response","34","182530","0.0-29.0","18","1","2025-02-02 03:13:16","bc01a2b6f61d06f6604adb8657495020","108.195.189.32","Mozilla/5.0 (Windows NT 10.0; Win64; x64) AppleWebKit/537.36 (KHTML, like Gecko) Chrome/131.0.0.0 Safari/537.36","WebKit","Chrome","131.0.0.0","Windows","10.0","https://app.prolific.com/","en-US,en;q=0.9","6413c7853eba2b2215197ff4","679edb085803f58d6bbd31ca","679ee2b0add92295c037602e","","null","<img  src='G_1.jpg' height='90'> <img  src='G_7.jpg' height='90'> <img src='G_5.jpg' height='90'> <img src='G_9.jpg' height='90'> <img src='G_3.jpg' height='90'>","null","Learning example 0","",""
"","","","","","html-button-response","35","182950","0.0-30.0","18","1","2025-02-02 03:13:16","bc01a2b6f61d06f6604adb8657495020","108.195.189.32","Mozilla/5.0 (Windows NT 10.0; Win64; x64) AppleWebKit/537.36 (KHTML, like Gecko) Chrome/131.0.0.0 Safari/537.36","WebKit","Chrome","131.0.0.0","Windows","10.0","https://app.prolific.com/","en-US,en;q=0.9","6413c7853eba2b2215197ff4","679edb085803f58d6bbd31ca","679ee2b0add92295c037602e","","null","<img  src='G_1.jpg' height='90'> <img id='selected'  src='G_7.jpg' height='90'> <img src='G_5.jpg' height='90'> <img src='G_9.jpg' height='90'> <img src='G_3.jpg' height='90'>","null","Learning example 0","",""
"","","","","","html-button-response","36","183273","0.0-31.0","18","1","2025-02-02 03:13:16","bc01a2b6f61d06f6604adb8657495020","108.195.189.32","Mozilla/5.0 (Windows NT 10.0; Win64; x64) AppleWebKit/537.36 (KHTML, like Gecko) Chrome/131.0.0.0 Safari/537.36","WebKit","Chrome","131.0.0.0","Windows","10.0","https://app.prolific.com/","en-US,en;q=0.9","6413c7853eba2b2215197ff4","679edb085803f58d6bbd31ca","679ee2b0add92295c037602e","","null","<img  src='G_1.jpg' height='90'> <img id='selected'  src='G_7.jpg' height='90'> <img id='selected' src='G_5.jpg' height='90'> <img src='G_9.jpg' height='90'> <img src='G_3.jpg' height='90'>","null","Learning example 0","",""
"","","","","","html-button-response","37","183598","0.0-32.0","18","1","2025-02-02 03:13:16","bc01a2b6f61d06f6604adb8657495020","108.195.189.32","Mozilla/5.0 (Windows NT 10.0; Win64; x64) AppleWebKit/537.36 (KHTML, like Gecko) Chrome/131.0.0.0 Safari/537.36","WebKit","Chrome","131.0.0.0","Windows","10.0","https://app.prolific.com/","en-US,en;q=0.9","6413c7853eba2b2215197ff4","679edb085803f58d6bbd31ca","679ee2b0add92295c037602e","","null","<img  src='G_1.jpg' height='90'> <img id='selected'  src='G_7.jpg' height='90'> <img id='selected' src='G_5.jpg' height='90'> <img src='G_9.jpg' height='90'> <img src='G_3.jpg' height='90'>","null","Learning example 0","",""
"","","","","","html-button-response","38","191835","0.0-33.0-0.0-0.0","18","1","2025-02-02 03:13:16","bc01a2b6f61d06f6604adb8657495020","108.195.189.32","Mozilla/5.0 (Windows NT 10.0; Win64; x64) AppleWebKit/537.36 (KHTML, like Gecko) Chrome/131.0.0.0 Safari/537.36","WebKit","Chrome","131.0.0.0","Windows","10.0","https://app.prolific.com/","en-US,en;q=0.9","6413c7853eba2b2215197ff4","679edb085803f58d6bbd31ca","679ee2b0add92295c037602e","","8234","<img  src='G_1.jpg' height='90'> <img id='selected'  src='G_7.jpg' height='90'> <img id='selected' src='G_5.jpg' height='90'> <img src='G_9.jpg' height='90'> <img src='G_3.jpg' height='90'>","1","Learning example 0","",""
"","","","","","html-button-response","39","192420","0.0-33.1-0.1-0.1","18","1","2025-02-02 03:13:16","bc01a2b6f61d06f6604adb8657495020","108.195.189.32","Mozilla/5.0 (Windows NT 10.0; Win64; x64) AppleWebKit/537.36 (KHTML, like Gecko) Chrome/131.0.0.0 Safari/537.36","WebKit","Chrome","131.0.0.0","Windows","10.0","https://app.prolific.com/","en-US,en;q=0.9","6413c7853eba2b2215197ff4","679edb085803f58d6bbd31ca","679ee2b0add92295c037602e","","582","<img  src='G_1.jpg' height='90'> <img id='selected'  src='G_7.jpg' height='90'> <img id='selected' src='G_5.jpg' height='90'> <img src='G_9.jpg' height='90'> <img src='G_3.jpg' height='90'>","2","Learning example 0","",""
"","","","","","html-button-response","40","192624","0.0-34.0","18","1","2025-02-02 03:13:16","bc01a2b6f61d06f6604adb8657495020","108.195.189.32","Mozilla/5.0 (Windows NT 10.0; Win64; x64) AppleWebKit/537.36 (KHTML, like Gecko) Chrome/131.0.0.0 Safari/537.36","WebKit","Chrome","131.0.0.0","Windows","10.0","https://app.prolific.com/","en-US,en;q=0.9","6413c7853eba2b2215197ff4","679edb085803f58d6bbd31ca","679ee2b0add92295c037602e","","null","<img  src='G_1.jpg' height='90'> <img   src='G_7.jpg' height='90'> <img  src='G_5.jpg' height='90'> <img src='G_9.jpg' height='90'> <img src='G_3.jpg' height='90'>","null","Learning example 0","",""
"","","","","","html-button-response","41","193034","0.0-35.0","18","1","2025-02-02 03:13:16","bc01a2b6f61d06f6604adb8657495020","108.195.189.32","Mozilla/5.0 (Windows NT 10.0; Win64; x64) AppleWebKit/537.36 (KHTML, like Gecko) Chrome/131.0.0.0 Safari/537.36","WebKit","Chrome","131.0.0.0","Windows","10.0","https://app.prolific.com/","en-US,en;q=0.9","6413c7853eba2b2215197ff4","679edb085803f58d6bbd31ca","679ee2b0add92295c037602e","","null","<img  src='G_1.jpg' height='90'> <img   src='G_7.jpg' height='90'> <img id='selected'  src='G_5.jpg' height='90'> <img src='G_9.jpg' height='90'> <img src='G_3.jpg' height='90'>","null","Learning example 0","",""
"","","","","","html-button-response","42","193345","0.0-36.0","18","1","2025-02-02 03:13:16","bc01a2b6f61d06f6604adb8657495020","108.195.189.32","Mozilla/5.0 (Windows NT 10.0; Win64; x64) AppleWebKit/537.36 (KHTML, like Gecko) Chrome/131.0.0.0 Safari/537.36","WebKit","Chrome","131.0.0.0","Windows","10.0","https://app.prolific.com/","en-US,en;q=0.9","6413c7853eba2b2215197ff4","679edb085803f58d6bbd31ca","679ee2b0add92295c037602e","","null","<img  src='G_1.jpg' height='90'> <img   src='G_7.jpg' height='90'> <img id='selected'  src='G_5.jpg' height='90'> <img id='selected' src='G_9.jpg' height='90'> <img src='G_3.jpg' height='90'>","null","Learning example 0","",""
"","","","","","html-button-response","43","193655","0.0-37.0","18","1","2025-02-02 03:13:16","bc01a2b6f61d06f6604adb8657495020","108.195.189.32","Mozilla/5.0 (Windows NT 10.0; Win64; x64) AppleWebKit/537.36 (KHTML, like Gecko) Chrome/131.0.0.0 Safari/537.36","WebKit","Chrome","131.0.0.0","Windows","10.0","https://app.prolific.com/","en-US,en;q=0.9","6413c7853eba2b2215197ff4","679edb085803f58d6bbd31ca","679ee2b0add92295c037602e","","null","<img  src='G_1.jpg' height='90'> <img   src='G_7.jpg' height='90'> <img id='selected'  src='G_5.jpg' height='90'> <img id='selected' src='G_9.jpg' height='90'> <img src='G_3.jpg' height='90'>","null","Learning example 0","",""
"","","","","","html-button-response","44","194017","0.0-38.0-0.0-0.0","18","1","2025-02-02 03:13:16","bc01a2b6f61d06f6604adb8657495020","108.195.189.32","Mozilla/5.0 (Windows NT 10.0; Win64; x64) AppleWebKit/537.36 (KHTML, like Gecko) Chrome/131.0.0.0 Safari/537.36","WebKit","Chrome","131.0.0.0","Windows","10.0","https://app.prolific.com/","en-US,en;q=0.9","6413c7853eba2b2215197ff4","679edb085803f58d6bbd31ca","679ee2b0add92295c037602e","","358","<img  src='G_1.jpg' height='90'> <img   src='G_7.jpg' height='90'> <img id='selected'  src='G_5.jpg' height='90'> <img id='selected' src='G_9.jpg' height='90'> <img src='G_3.jpg' height='90'>","2","Learning example 0","",""
"","","","","","html-button-response","45","194617","0.0-38.1-0.1-0.1","18","1","2025-02-02 03:13:16","bc01a2b6f61d06f6604adb8657495020","108.195.189.32","Mozilla/5.0 (Windows NT 10.0; Win64; x64) AppleWebKit/537.36 (KHTML, like Gecko) Chrome/131.0.0.0 Safari/537.36","WebKit","Chrome","131.0.0.0","Windows","10.0","https://app.prolific.com/","en-US,en;q=0.9","6413c7853eba2b2215197ff4","679edb085803f58d6bbd31ca","679ee2b0add92295c037602e","","598","<img  src='G_1.jpg' height='90'> <img   src='G_7.jpg' height='90'> <img id='selected'  src='G_5.jpg' height='90'> <img id='selected' src='G_9.jpg' height='90'> <img src='G_3.jpg' height='90'>","3","Learning example 0","",""
"","","","","","html-button-response","46","194826","0.0-39.0","18","1","2025-02-02 03:13:16","bc01a2b6f61d06f6604adb8657495020","108.195.189.32","Mozilla/5.0 (Windows NT 10.0; Win64; x64) AppleWebKit/537.36 (KHTML, like Gecko) Chrome/131.0.0.0 Safari/537.36","WebKit","Chrome","131.0.0.0","Windows","10.0","https://app.prolific.com/","en-US,en;q=0.9","6413c7853eba2b2215197ff4","679edb085803f58d6bbd31ca","679ee2b0add92295c037602e","","null","<img  src='G_1.jpg' height='90'> <img   src='G_7.jpg' height='90'> <img   src='G_5.jpg' height='90'> <img  src='G_9.jpg' height='90'> <img src='G_3.jpg' height='90'>","null","Learning example 0","",""
"","","","","","html-button-response","47","195245","0.0-40.0","18","1","2025-02-02 03:13:16","bc01a2b6f61d06f6604adb8657495020","108.195.189.32","Mozilla/5.0 (Windows NT 10.0; Win64; x64) AppleWebKit/537.36 (KHTML, like Gecko) Chrome/131.0.0.0 Safari/537.36","WebKit","Chrome","131.0.0.0","Windows","10.0","https://app.prolific.com/","en-US,en;q=0.9","6413c7853eba2b2215197ff4","679edb085803f58d6bbd31ca","679ee2b0add92295c037602e","","null","<img  src='G_1.jpg' height='90'> <img   src='G_7.jpg' height='90'> <img   src='G_5.jpg' height='90'> <img id='selected'  src='G_9.jpg' height='90'> <img src='G_3.jpg' height='90'>","null","Learning example 0","",""
"","","","","","html-button-response","48","195558","0.0-41.0","18","1","2025-02-02 03:13:16","bc01a2b6f61d06f6604adb8657495020","108.195.189.32","Mozilla/5.0 (Windows NT 10.0; Win64; x64) AppleWebKit/537.36 (KHTML, like Gecko) Chrome/131.0.0.0 Safari/537.36","WebKit","Chrome","131.0.0.0","Windows","10.0","https://app.prolific.com/","en-US,en;q=0.9","6413c7853eba2b2215197ff4","679edb085803f58d6bbd31ca","679ee2b0add92295c037602e","","null","<img  src='G_1.jpg' height='90'> <img   src='G_7.jpg' height='90'> <img   src='G_5.jpg' height='90'> <img id='selected'  src='G_9.jpg' height='90'> <img id='selected' src='G_3.jpg' height='90'>","null","Learning example 0","",""
"","","","","","html-button-response","49","195865","0.0-42.0","18","1","2025-02-02 03:13:16","bc01a2b6f61d06f6604adb8657495020","108.195.189.32","Mozilla/5.0 (Windows NT 10.0; Win64; x64) AppleWebKit/537.36 (KHTML, like Gecko) Chrome/131.0.0.0 Safari/537.36","WebKit","Chrome","131.0.0.0","Windows","10.0","https://app.prolific.com/","en-US,en;q=0.9","6413c7853eba2b2215197ff4","679edb085803f58d6bbd31ca","679ee2b0add92295c037602e","","null","<img  src='G_1.jpg' height='90'> <img   src='G_7.jpg' height='90'> <img   src='G_5.jpg' height='90'> <img id='selected'  src='G_9.jpg' height='90'> <img id='selected' src='G_3.jpg' height='90'>","null","Learning example 0","",""
"","","","","","html-button-response","50","196254","0.0-43.0-0.0-0.0","18","1","2025-02-02 03:13:16","bc01a2b6f61d06f6604adb8657495020","108.195.189.32","Mozilla/5.0 (Windows NT 10.0; Win64; x64) AppleWebKit/537.36 (KHTML, like Gecko) Chrome/131.0.0.0 Safari/537.36","WebKit","Chrome","131.0.0.0","Windows","10.0","https://app.prolific.com/","en-US,en;q=0.9","6413c7853eba2b2215197ff4","679edb085803f58d6bbd31ca","679ee2b0add92295c037602e","","386","<img  src='G_1.jpg' height='90'> <img   src='G_7.jpg' height='90'> <img   src='G_5.jpg' height='90'> <img id='selected'  src='G_9.jpg' height='90'> <img id='selected' src='G_3.jpg' height='90'>","3","Learning example 0","",""
"","","","","","html-button-response","51","197974","0.0-43.1-0.1-0.1","18","1","2025-02-02 03:13:16","bc01a2b6f61d06f6604adb8657495020","108.195.189.32","Mozilla/5.0 (Windows NT 10.0; Win64; x64) AppleWebKit/537.36 (KHTML, like Gecko) Chrome/131.0.0.0 Safari/537.36","WebKit","Chrome","131.0.0.0","Windows","10.0","https://app.prolific.com/","en-US,en;q=0.9","6413c7853eba2b2215197ff4","679edb085803f58d6bbd31ca","679ee2b0add92295c037602e","","1717","<img  src='G_1.jpg' height='90'> <img   src='G_7.jpg' height='90'> <img   src='G_5.jpg' height='90'> <img id='selected'  src='G_9.jpg' height='90'> <img id='selected' src='G_3.jpg' height='90'>","4","Learning example 0","",""
"","","","","","html-button-response","52","198192","0.0-44.0","18","1","2025-02-02 03:13:16","bc01a2b6f61d06f6604adb8657495020","108.195.189.32","Mozilla/5.0 (Windows NT 10.0; Win64; x64) AppleWebKit/537.36 (KHTML, like Gecko) Chrome/131.0.0.0 Safari/537.36","WebKit","Chrome","131.0.0.0","Windows","10.0","https://app.prolific.com/","en-US,en;q=0.9","6413c7853eba2b2215197ff4","679edb085803f58d6bbd31ca","679ee2b0add92295c037602e","","null","<img  src='G_1.jpg' height='90'> <img   src='G_7.jpg' height='90'> <img   src='G_5.jpg' height='90'> <img   src='G_9.jpg' height='90'> <img  src='G_3.jpg' height='90'>","null","Learning example 0","",""
"","","","","","html-keyboard-response","53","205030","0.0-45.0","18","1","2025-02-02 03:13:16","bc01a2b6f61d06f6604adb8657495020","108.195.189.32","Mozilla/5.0 (Windows NT 10.0; Win64; x64) AppleWebKit/537.36 (KHTML, like Gecko) Chrome/131.0.0.0 Safari/537.36","WebKit","Chrome","131.0.0.0","Windows","10.0","https://app.prolific.com/","en-US,en;q=0.9","6413c7853eba2b2215197ff4","679edb085803f58d6bbd31ca","679ee2b0add92295c037602e","","6837","[""Final order was 1,2,3,4,5. The initial order was 2,1,3,4,5.<br>It took 1 swaps to sort it correctly with Omgne Sort. <br><br>Press Enter to continue.""]","enter","","",""
"","","","","","html-keyboard-response","54","209018","0.0-46.0","18","1","2025-02-02 03:13:16","bc01a2b6f61d06f6604adb8657495020","108.195.189.32","Mozilla/5.0 (Windows NT 10.0; Win64; x64) AppleWebKit/537.36 (KHTML, like Gecko) Chrome/131.0.0.0 Safari/537.36","WebKit","Chrome","131.0.0.0","Windows","10.0","https://app.prolific.com/","en-US,en;q=0.9","6413c7853eba2b2215197ff4","679edb085803f58d6bbd31ca","679ee2b0add92295c037602e","","3986","[""Example 2<br><br>You will watch Omnge Sort in action. Try to identify any patterns in the comparisons made by this method. <br><br>Press Enter to continue.""]","enter","","",""
"","","","","","html-keyboard-response","55","209530","0.0-47.0","18","1","2025-02-02 03:13:16","bc01a2b6f61d06f6604adb8657495020","108.195.189.32","Mozilla/5.0 (Windows NT 10.0; Win64; x64) AppleWebKit/537.36 (KHTML, like Gecko) Chrome/131.0.0.0 Safari/537.36","WebKit","Chrome","131.0.0.0","Windows","10.0","https://app.prolific.com/","en-US,en;q=0.9","6413c7853eba2b2215197ff4","679edb085803f58d6bbd31ca","679ee2b0add92295c037602e","","null","<img id='selected' src='G_1.jpg' height='90'> <img src='G_2.jpg' height='90'> <img src='G_5.jpg' height='90'> <img src='G_6.jpg' height='90'> <img src='G_8.jpg' height='90'> <img src='G_4.jpg' height='90'> <img src='G_3.jpg' height='90'> <img src='G_7.jpg' height='90'>","null","Animation1","",""
"","","","","","html-keyboard-response","56","210050","0.0-48.0","18","1","2025-02-02 03:13:16","bc01a2b6f61d06f6604adb8657495020","108.195.189.32","Mozilla/5.0 (Windows NT 10.0; Win64; x64) AppleWebKit/537.36 (KHTML, like Gecko) Chrome/131.0.0.0 Safari/537.36","WebKit","Chrome","131.0.0.0","Windows","10.0","https://app.prolific.com/","en-US,en;q=0.9","6413c7853eba2b2215197ff4","679edb085803f58d6bbd31ca","679ee2b0add92295c037602e","","null","<img id='selected' src='G_1.jpg' height='90'> <img id='selected' src='G_2.jpg' height='90'> <img src='G_5.jpg' height='90'> <img src='G_6.jpg' height='90'> <img src='G_8.jpg' height='90'> <img src='G_4.jpg' height='90'> <img src='G_3.jpg' height='90'> <img src='G_7.jpg' height='90'>","null","Animation1","",""
"","","","","","html-keyboard-response","57","210568","0.0-49.0","18","1","2025-02-02 03:13:16","bc01a2b6f61d06f6604adb8657495020","108.195.189.32","Mozilla/5.0 (Windows NT 10.0; Win64; x64) AppleWebKit/537.36 (KHTML, like Gecko) Chrome/131.0.0.0 Safari/537.36","WebKit","Chrome","131.0.0.0","Windows","10.0","https://app.prolific.com/","en-US,en;q=0.9","6413c7853eba2b2215197ff4","679edb085803f58d6bbd31ca","679ee2b0add92295c037602e","","null","<img id='selected' src='G_1.jpg' height='90'> <img id='selected' src='G_2.jpg' height='90'> <img src='G_5.jpg' height='90'> <img src='G_6.jpg' height='90'> <img src='G_8.jpg' height='90'> <img src='G_4.jpg' height='90'> <img src='G_3.jpg' height='90'> <img src='G_7.jpg' height='90'>","null","Animation1","",""
"","","","","","html-keyboard-response","58","210880","0.0-50.0","18","1","2025-02-02 03:13:16","bc01a2b6f61d06f6604adb8657495020","108.195.189.32","Mozilla/5.0 (Windows NT 10.0; Win64; x64) AppleWebKit/537.36 (KHTML, like Gecko) Chrome/131.0.0.0 Safari/537.36","WebKit","Chrome","131.0.0.0","Windows","10.0","https://app.prolific.com/","en-US,en;q=0.9","6413c7853eba2b2215197ff4","679edb085803f58d6bbd31ca","679ee2b0add92295c037602e","","null","<img  src='G_1.jpg' height='90'> <img  src='G_2.jpg' height='90'> <img src='G_5.jpg' height='90'> <img src='G_6.jpg' height='90'> <img src='G_8.jpg' height='90'> <img src='G_4.jpg' height='90'> <img src='G_3.jpg' height='90'> <img src='G_7.jpg' height='90'>","null","Animation1","",""
"","","","","","html-keyboard-response","59","211405","0.0-51.0","18","1","2025-02-02 03:13:16","bc01a2b6f61d06f6604adb8657495020","108.195.189.32","Mozilla/5.0 (Windows NT 10.0; Win64; x64) AppleWebKit/537.36 (KHTML, like Gecko) Chrome/131.0.0.0 Safari/537.36","WebKit","Chrome","131.0.0.0","Windows","10.0","https://app.prolific.com/","en-US,en;q=0.9","6413c7853eba2b2215197ff4","679edb085803f58d6bbd31ca","679ee2b0add92295c037602e","","null","<img  src='G_1.jpg' height='90'> <img id='selected'  src='G_2.jpg' height='90'> <img src='G_5.jpg' height='90'> <img src='G_6.jpg' height='90'> <img src='G_8.jpg' height='90'> <img src='G_4.jpg' height='90'> <img src='G_3.jpg' height='90'> <img src='G_7.jpg' height='90'>","null","Animation1","",""
"","","","","","html-keyboard-response","60","211928","0.0-52.0","18","1","2025-02-02 03:13:16","bc01a2b6f61d06f6604adb8657495020","108.195.189.32","Mozilla/5.0 (Windows NT 10.0; Win64; x64) AppleWebKit/537.36 (KHTML, like Gecko) Chrome/131.0.0.0 Safari/537.36","WebKit","Chrome","131.0.0.0","Windows","10.0","https://app.prolific.com/","en-US,en;q=0.9","6413c7853eba2b2215197ff4","679edb085803f58d6bbd31ca","679ee2b0add92295c037602e","","null","<img  src='G_1.jpg' height='90'> <img id='selected'  src='G_2.jpg' height='90'> <img id='selected' src='G_5.jpg' height='90'> <img src='G_6.jpg' height='90'> <img src='G_8.jpg' height='90'> <img src='G_4.jpg' height='90'> <img src='G_3.jpg' height='90'> <img src='G_7.jpg' height='90'>","null","Animation1","",""
"","","","","","html-keyboard-response","61","212437","0.0-53.0","18","1","2025-02-02 03:13:16","bc01a2b6f61d06f6604adb8657495020","108.195.189.32","Mozilla/5.0 (Windows NT 10.0; Win64; x64) AppleWebKit/537.36 (KHTML, like Gecko) Chrome/131.0.0.0 Safari/537.36","WebKit","Chrome","131.0.0.0","Windows","10.0","https://app.prolific.com/","en-US,en;q=0.9","6413c7853eba2b2215197ff4","679edb085803f58d6bbd31ca","679ee2b0add92295c037602e","","null","<img  src='G_1.jpg' height='90'> <img id='swapped' src='G_5.jpg' height='90'> <img id='swapped'  src='G_2.jpg' height='90'> <img src='G_6.jpg' height='90'> <img src='G_8.jpg' height='90'> <img src='G_4.jpg' height='90'> <img src='G_3.jpg' height='90'> <img src='G_7.jpg' height='90'>","null","Animation1","",""
"","","","","","html-keyboard-response","62","212756","0.0-54.0","18","1","2025-02-02 03:13:16","bc01a2b6f61d06f6604adb8657495020","108.195.189.32","Mozilla/5.0 (Windows NT 10.0; Win64; x64) AppleWebKit/537.36 (KHTML, like Gecko) Chrome/131.0.0.0 Safari/537.36","WebKit","Chrome","131.0.0.0","Windows","10.0","https://app.prolific.com/","en-US,en;q=0.9","6413c7853eba2b2215197ff4","679edb085803f58d6bbd31ca","679ee2b0add92295c037602e","","null","<img  src='G_1.jpg' height='90'> <img  src='G_5.jpg' height='90'> <img   src='G_2.jpg' height='90'> <img src='G_6.jpg' height='90'> <img src='G_8.jpg' height='90'> <img src='G_4.jpg' height='90'> <img src='G_3.jpg' height='90'> <img src='G_7.jpg' height='90'>","null","Animation1","",""
"","","","","","html-keyboard-response","63","213268","0.0-55.0","18","1","2025-02-02 03:13:16","bc01a2b6f61d06f6604adb8657495020","108.195.189.32","Mozilla/5.0 (Windows NT 10.0; Win64; x64) AppleWebKit/537.36 (KHTML, like Gecko) Chrome/131.0.0.0 Safari/537.36","WebKit","Chrome","131.0.0.0","Windows","10.0","https://app.prolific.com/","en-US,en;q=0.9","6413c7853eba2b2215197ff4","679edb085803f58d6bbd31ca","679ee2b0add92295c037602e","","null","<img id='selected'  src='G_1.jpg' height='90'> <img  src='G_5.jpg' height='90'> <img   src='G_2.jpg' height='90'> <img src='G_6.jpg' height='90'> <img src='G_8.jpg' height='90'> <img src='G_4.jpg' height='90'> <img src='G_3.jpg' height='90'> <img src='G_7.jpg' height='90'>","null","Animation1","",""
"","","","","","html-keyboard-response","64","213778","0.0-56.0","18","1","2025-02-02 03:13:16","bc01a2b6f61d06f6604adb8657495020","108.195.189.32","Mozilla/5.0 (Windows NT 10.0; Win64; x64) AppleWebKit/537.36 (KHTML, like Gecko) Chrome/131.0.0.0 Safari/537.36","WebKit","Chrome","131.0.0.0","Windows","10.0","https://app.prolific.com/","en-US,en;q=0.9","6413c7853eba2b2215197ff4","679edb085803f58d6bbd31ca","679ee2b0add92295c037602e","","null","<img id='selected'  src='G_1.jpg' height='90'> <img id='selected'  src='G_5.jpg' height='90'> <img   src='G_2.jpg' height='90'> <img src='G_6.jpg' height='90'> <img src='G_8.jpg' height='90'> <img src='G_4.jpg' height='90'> <img src='G_3.jpg' height='90'> <img src='G_7.jpg' height='90'>","null","Animation1","",""
"","","","","","html-keyboard-response","65","214286","0.0-57.0","18","1","2025-02-02 03:13:16","bc01a2b6f61d06f6604adb8657495020","108.195.189.32","Mozilla/5.0 (Windows NT 10.0; Win64; x64) AppleWebKit/537.36 (KHTML, like Gecko) Chrome/131.0.0.0 Safari/537.36","WebKit","Chrome","131.0.0.0","Windows","10.0","https://app.prolific.com/","en-US,en;q=0.9","6413c7853eba2b2215197ff4","679edb085803f58d6bbd31ca","679ee2b0add92295c037602e","","null","<img id='swapped'  src='G_5.jpg' height='90'> <img id='swapped'  src='G_1.jpg' height='90'> <img   src='G_2.jpg' height='90'> <img src='G_6.jpg' height='90'> <img src='G_8.jpg' height='90'> <img src='G_4.jpg' height='90'> <img src='G_3.jpg' height='90'> <img src='G_7.jpg' height='90'>","null","Animation1","",""
"","","","","","html-keyboard-response","66","214594","0.0-58.0","18","1","2025-02-02 03:13:16","bc01a2b6f61d06f6604adb8657495020","108.195.189.32","Mozilla/5.0 (Windows NT 10.0; Win64; x64) AppleWebKit/537.36 (KHTML, like Gecko) Chrome/131.0.0.0 Safari/537.36","WebKit","Chrome","131.0.0.0","Windows","10.0","https://app.prolific.com/","en-US,en;q=0.9","6413c7853eba2b2215197ff4","679edb085803f58d6bbd31ca","679ee2b0add92295c037602e","","null","<img   src='G_5.jpg' height='90'> <img   src='G_1.jpg' height='90'> <img   src='G_2.jpg' height='90'> <img src='G_6.jpg' height='90'> <img src='G_8.jpg' height='90'> <img src='G_4.jpg' height='90'> <img src='G_3.jpg' height='90'> <img src='G_7.jpg' height='90'>","null","Animation1","",""
"","","","","","html-keyboard-response","67","215111","0.0-59.0","18","1","2025-02-02 03:13:16","bc01a2b6f61d06f6604adb8657495020","108.195.189.32","Mozilla/5.0 (Windows NT 10.0; Win64; x64) AppleWebKit/537.36 (KHTML, like Gecko) Chrome/131.0.0.0 Safari/537.36","WebKit","Chrome","131.0.0.0","Windows","10.0","https://app.prolific.com/","en-US,en;q=0.9","6413c7853eba2b2215197ff4","679edb085803f58d6bbd31ca","679ee2b0add92295c037602e","","null","<img   src='G_5.jpg' height='90'> <img   src='G_1.jpg' height='90'> <img id='selected'   src='G_2.jpg' height='90'> <img src='G_6.jpg' height='90'> <img src='G_8.jpg' height='90'> <img src='G_4.jpg' height='90'> <img src='G_3.jpg' height='90'> <img src='G_7.jpg' height='90'>","null","Animation1","",""
"","","","","","html-keyboard-response","68","215617","0.0-60.0","18","1","2025-02-02 03:13:16","bc01a2b6f61d06f6604adb8657495020","108.195.189.32","Mozilla/5.0 (Windows NT 10.0; Win64; x64) AppleWebKit/537.36 (KHTML, like Gecko) Chrome/131.0.0.0 Safari/537.36","WebKit","Chrome","131.0.0.0","Windows","10.0","https://app.prolific.com/","en-US,en;q=0.9","6413c7853eba2b2215197ff4","679edb085803f58d6bbd31ca","679ee2b0add92295c037602e","","null","<img   src='G_5.jpg' height='90'> <img   src='G_1.jpg' height='90'> <img id='selected'   src='G_2.jpg' height='90'> <img id='selected' src='G_6.jpg' height='90'> <img src='G_8.jpg' height='90'> <img src='G_4.jpg' height='90'> <img src='G_3.jpg' height='90'> <img src='G_7.jpg' height='90'>","null","Animation1","",""
"","","","","","html-keyboard-response","69","216120","0.0-61.0","18","1","2025-02-02 03:13:16","bc01a2b6f61d06f6604adb8657495020","108.195.189.32","Mozilla/5.0 (Windows NT 10.0; Win64; x64) AppleWebKit/537.36 (KHTML, like Gecko) Chrome/131.0.0.0 Safari/537.36","WebKit","Chrome","131.0.0.0","Windows","10.0","https://app.prolific.com/","en-US,en;q=0.9","6413c7853eba2b2215197ff4","679edb085803f58d6bbd31ca","679ee2b0add92295c037602e","","null","<img   src='G_5.jpg' height='90'> <img   src='G_1.jpg' height='90'> <img id='swapped' src='G_6.jpg' height='90'> <img id='swapped'   src='G_2.jpg' height='90'> <img src='G_8.jpg' height='90'> <img src='G_4.jpg' height='90'> <img src='G_3.jpg' height='90'> <img src='G_7.jpg' height='90'>","null","Animation1","",""
"","","","","","html-keyboard-response","70","216437","0.0-62.0","18","1","2025-02-02 03:13:16","bc01a2b6f61d06f6604adb8657495020","108.195.189.32","Mozilla/5.0 (Windows NT 10.0; Win64; x64) AppleWebKit/537.36 (KHTML, like Gecko) Chrome/131.0.0.0 Safari/537.36","WebKit","Chrome","131.0.0.0","Windows","10.0","https://app.prolific.com/","en-US,en;q=0.9","6413c7853eba2b2215197ff4","679edb085803f58d6bbd31ca","679ee2b0add92295c037602e","","null","<img   src='G_5.jpg' height='90'> <img   src='G_1.jpg' height='90'> <img  src='G_6.jpg' height='90'> <img    src='G_2.jpg' height='90'> <img src='G_8.jpg' height='90'> <img src='G_4.jpg' height='90'> <img src='G_3.jpg' height='90'> <img src='G_7.jpg' height='90'>","null","Animation1","",""
"","","","","","html-keyboard-response","71","216951","0.0-63.0","18","1","2025-02-02 03:13:16","bc01a2b6f61d06f6604adb8657495020","108.195.189.32","Mozilla/5.0 (Windows NT 10.0; Win64; x64) AppleWebKit/537.36 (KHTML, like Gecko) Chrome/131.0.0.0 Safari/537.36","WebKit","Chrome","131.0.0.0","Windows","10.0","https://app.prolific.com/","en-US,en;q=0.9","6413c7853eba2b2215197ff4","679edb085803f58d6bbd31ca","679ee2b0add92295c037602e","","null","<img   src='G_5.jpg' height='90'> <img id='selected'   src='G_1.jpg' height='90'> <img  src='G_6.jpg' height='90'> <img    src='G_2.jpg' height='90'> <img src='G_8.jpg' height='90'> <img src='G_4.jpg' height='90'> <img src='G_3.jpg' height='90'> <img src='G_7.jpg' height='90'>","null","Animation1","",""
"","","","","","html-keyboard-response","72","217463","0.0-64.0","18","1","2025-02-02 03:13:16","bc01a2b6f61d06f6604adb8657495020","108.195.189.32","Mozilla/5.0 (Windows NT 10.0; Win64; x64) AppleWebKit/537.36 (KHTML, like Gecko) Chrome/131.0.0.0 Safari/537.36","WebKit","Chrome","131.0.0.0","Windows","10.0","https://app.prolific.com/","en-US,en;q=0.9","6413c7853eba2b2215197ff4","679edb085803f58d6bbd31ca","679ee2b0add92295c037602e","","null","<img   src='G_5.jpg' height='90'> <img id='selected'   src='G_1.jpg' height='90'> <img id='selected'  src='G_6.jpg' height='90'> <img    src='G_2.jpg' height='90'> <img src='G_8.jpg' height='90'> <img src='G_4.jpg' height='90'> <img src='G_3.jpg' height='90'> <img src='G_7.jpg' height='90'>","null","Animation1","",""
"","","","","","html-keyboard-response","73","217977","0.0-65.0","18","1","2025-02-02 03:13:16","bc01a2b6f61d06f6604adb8657495020","108.195.189.32","Mozilla/5.0 (Windows NT 10.0; Win64; x64) AppleWebKit/537.36 (KHTML, like Gecko) Chrome/131.0.0.0 Safari/537.36","WebKit","Chrome","131.0.0.0","Windows","10.0","https://app.prolific.com/","en-US,en;q=0.9","6413c7853eba2b2215197ff4","679edb085803f58d6bbd31ca","679ee2b0add92295c037602e","","null","<img   src='G_5.jpg' height='90'> <img id='swapped'  src='G_6.jpg' height='90'> <img id='swapped'   src='G_1.jpg' height='90'> <img    src='G_2.jpg' height='90'> <img src='G_8.jpg' height='90'> <img src='G_4.jpg' height='90'> <img src='G_3.jpg' height='90'> <img src='G_7.jpg' height='90'>","null","Animation1","",""
"","","","","","html-keyboard-response","74","218299","0.0-66.0","18","1","2025-02-02 03:13:16","bc01a2b6f61d06f6604adb8657495020","108.195.189.32","Mozilla/5.0 (Windows NT 10.0; Win64; x64) AppleWebKit/537.36 (KHTML, like Gecko) Chrome/131.0.0.0 Safari/537.36","WebKit","Chrome","131.0.0.0","Windows","10.0","https://app.prolific.com/","en-US,en;q=0.9","6413c7853eba2b2215197ff4","679edb085803f58d6bbd31ca","679ee2b0add92295c037602e","","null","<img   src='G_5.jpg' height='90'> <img   src='G_6.jpg' height='90'> <img    src='G_1.jpg' height='90'> <img    src='G_2.jpg' height='90'> <img src='G_8.jpg' height='90'> <img src='G_4.jpg' height='90'> <img src='G_3.jpg' height='90'> <img src='G_7.jpg' height='90'>","null","Animation1","",""
"","","","","","html-keyboard-response","75","218818","0.0-67.0","18","1","2025-02-02 03:13:16","bc01a2b6f61d06f6604adb8657495020","108.195.189.32","Mozilla/5.0 (Windows NT 10.0; Win64; x64) AppleWebKit/537.36 (KHTML, like Gecko) Chrome/131.0.0.0 Safari/537.36","WebKit","Chrome","131.0.0.0","Windows","10.0","https://app.prolific.com/","en-US,en;q=0.9","6413c7853eba2b2215197ff4","679edb085803f58d6bbd31ca","679ee2b0add92295c037602e","","null","<img id='selected'   src='G_5.jpg' height='90'> <img   src='G_6.jpg' height='90'> <img    src='G_1.jpg' height='90'> <img    src='G_2.jpg' height='90'> <img src='G_8.jpg' height='90'> <img src='G_4.jpg' height='90'> <img src='G_3.jpg' height='90'> <img src='G_7.jpg' height='90'>","null","Animation1","",""
"","","","","","html-keyboard-response","76","219322","0.0-68.0","18","1","2025-02-02 03:13:16","bc01a2b6f61d06f6604adb8657495020","108.195.189.32","Mozilla/5.0 (Windows NT 10.0; Win64; x64) AppleWebKit/537.36 (KHTML, like Gecko) Chrome/131.0.0.0 Safari/537.36","WebKit","Chrome","131.0.0.0","Windows","10.0","https://app.prolific.com/","en-US,en;q=0.9","6413c7853eba2b2215197ff4","679edb085803f58d6bbd31ca","679ee2b0add92295c037602e","","null","<img id='selected'   src='G_5.jpg' height='90'> <img id='selected'   src='G_6.jpg' height='90'> <img    src='G_1.jpg' height='90'> <img    src='G_2.jpg' height='90'> <img src='G_8.jpg' height='90'> <img src='G_4.jpg' height='90'> <img src='G_3.jpg' height='90'> <img src='G_7.jpg' height='90'>","null","Animation1","",""
"","","","","","html-keyboard-response","77","219834","0.0-69.0","18","1","2025-02-02 03:13:16","bc01a2b6f61d06f6604adb8657495020","108.195.189.32","Mozilla/5.0 (Windows NT 10.0; Win64; x64) AppleWebKit/537.36 (KHTML, like Gecko) Chrome/131.0.0.0 Safari/537.36","WebKit","Chrome","131.0.0.0","Windows","10.0","https://app.prolific.com/","en-US,en;q=0.9","6413c7853eba2b2215197ff4","679edb085803f58d6bbd31ca","679ee2b0add92295c037602e","","null","<img id='swapped'   src='G_6.jpg' height='90'> <img id='swapped'   src='G_5.jpg' height='90'> <img    src='G_1.jpg' height='90'> <img    src='G_2.jpg' height='90'> <img src='G_8.jpg' height='90'> <img src='G_4.jpg' height='90'> <img src='G_3.jpg' height='90'> <img src='G_7.jpg' height='90'>","null","Animation1","",""
"","","","","","html-keyboard-response","78","220152","0.0-70.0","18","1","2025-02-02 03:13:16","bc01a2b6f61d06f6604adb8657495020","108.195.189.32","Mozilla/5.0 (Windows NT 10.0; Win64; x64) AppleWebKit/537.36 (KHTML, like Gecko) Chrome/131.0.0.0 Safari/537.36","WebKit","Chrome","131.0.0.0","Windows","10.0","https://app.prolific.com/","en-US,en;q=0.9","6413c7853eba2b2215197ff4","679edb085803f58d6bbd31ca","679ee2b0add92295c037602e","","null","<img    src='G_6.jpg' height='90'> <img    src='G_5.jpg' height='90'> <img    src='G_1.jpg' height='90'> <img    src='G_2.jpg' height='90'> <img src='G_8.jpg' height='90'> <img src='G_4.jpg' height='90'> <img src='G_3.jpg' height='90'> <img src='G_7.jpg' height='90'>","null","Animation1","",""
"","","","","","html-keyboard-response","79","220662","0.0-71.0","18","1","2025-02-02 03:13:16","bc01a2b6f61d06f6604adb8657495020","108.195.189.32","Mozilla/5.0 (Windows NT 10.0; Win64; x64) AppleWebKit/537.36 (KHTML, like Gecko) Chrome/131.0.0.0 Safari/537.36","WebKit","Chrome","131.0.0.0","Windows","10.0","https://app.prolific.com/","en-US,en;q=0.9","6413c7853eba2b2215197ff4","679edb085803f58d6bbd31ca","679ee2b0add92295c037602e","","null","<img    src='G_6.jpg' height='90'> <img    src='G_5.jpg' height='90'> <img    src='G_1.jpg' height='90'> <img id='selected'    src='G_2.jpg' height='90'> <img src='G_8.jpg' height='90'> <img src='G_4.jpg' height='90'> <img src='G_3.jpg' height='90'> <img src='G_7.jpg' height='90'>","null","Animation1","",""
"","","","","","html-keyboard-response","80","221165","0.0-72.0","18","1","2025-02-02 03:13:16","bc01a2b6f61d06f6604adb8657495020","108.195.189.32","Mozilla/5.0 (Windows NT 10.0; Win64; x64) AppleWebKit/537.36 (KHTML, like Gecko) Chrome/131.0.0.0 Safari/537.36","WebKit","Chrome","131.0.0.0","Windows","10.0","https://app.prolific.com/","en-US,en;q=0.9","6413c7853eba2b2215197ff4","679edb085803f58d6bbd31ca","679ee2b0add92295c037602e","","null","<img    src='G_6.jpg' height='90'> <img    src='G_5.jpg' height='90'> <img    src='G_1.jpg' height='90'> <img id='selected'    src='G_2.jpg' height='90'> <img id='selected' src='G_8.jpg' height='90'> <img src='G_4.jpg' height='90'> <img src='G_3.jpg' height='90'> <img src='G_7.jpg' height='90'>","null","Animation1","",""
"","","","","","html-keyboard-response","81","221683","0.0-73.0","18","1","2025-02-02 03:13:16","bc01a2b6f61d06f6604adb8657495020","108.195.189.32","Mozilla/5.0 (Windows NT 10.0; Win64; x64) AppleWebKit/537.36 (KHTML, like Gecko) Chrome/131.0.0.0 Safari/537.36","WebKit","Chrome","131.0.0.0","Windows","10.0","https://app.prolific.com/","en-US,en;q=0.9","6413c7853eba2b2215197ff4","679edb085803f58d6bbd31ca","679ee2b0add92295c037602e","","null","<img    src='G_6.jpg' height='90'> <img    src='G_5.jpg' height='90'> <img    src='G_1.jpg' height='90'> <img id='swapped' src='G_8.jpg' height='90'> <img id='swapped'    src='G_2.jpg' height='90'> <img src='G_4.jpg' height='90'> <img src='G_3.jpg' height='90'> <img src='G_7.jpg' height='90'>","null","Animation1","",""
"","","","","","html-keyboard-response","82","222002","0.0-74.0","18","1","2025-02-02 03:13:16","bc01a2b6f61d06f6604adb8657495020","108.195.189.32","Mozilla/5.0 (Windows NT 10.0; Win64; x64) AppleWebKit/537.36 (KHTML, like Gecko) Chrome/131.0.0.0 Safari/537.36","WebKit","Chrome","131.0.0.0","Windows","10.0","https://app.prolific.com/","en-US,en;q=0.9","6413c7853eba2b2215197ff4","679edb085803f58d6bbd31ca","679ee2b0add92295c037602e","","null","<img    src='G_6.jpg' height='90'> <img    src='G_5.jpg' height='90'> <img    src='G_1.jpg' height='90'> <img  src='G_8.jpg' height='90'> <img     src='G_2.jpg' height='90'> <img src='G_4.jpg' height='90'> <img src='G_3.jpg' height='90'> <img src='G_7.jpg' height='90'>","null","Animation1","",""
"","","","","","html-keyboard-response","83","222513","0.0-75.0","18","1","2025-02-02 03:13:16","bc01a2b6f61d06f6604adb8657495020","108.195.189.32","Mozilla/5.0 (Windows NT 10.0; Win64; x64) AppleWebKit/537.36 (KHTML, like Gecko) Chrome/131.0.0.0 Safari/537.36","WebKit","Chrome","131.0.0.0","Windows","10.0","https://app.prolific.com/","en-US,en;q=0.9","6413c7853eba2b2215197ff4","679edb085803f58d6bbd31ca","679ee2b0add92295c037602e","","null","<img    src='G_6.jpg' height='90'> <img    src='G_5.jpg' height='90'> <img id='selected'    src='G_1.jpg' height='90'> <img  src='G_8.jpg' height='90'> <img     src='G_2.jpg' height='90'> <img src='G_4.jpg' height='90'> <img src='G_3.jpg' height='90'> <img src='G_7.jpg' height='90'>","null","Animation1","",""
"","","","","","html-keyboard-response","84","223031","0.0-76.0","18","1","2025-02-02 03:13:16","bc01a2b6f61d06f6604adb8657495020","108.195.189.32","Mozilla/5.0 (Windows NT 10.0; Win64; x64) AppleWebKit/537.36 (KHTML, like Gecko) Chrome/131.0.0.0 Safari/537.36","WebKit","Chrome","131.0.0.0","Windows","10.0","https://app.prolific.com/","en-US,en;q=0.9","6413c7853eba2b2215197ff4","679edb085803f58d6bbd31ca","679ee2b0add92295c037602e","","null","<img    src='G_6.jpg' height='90'> <img    src='G_5.jpg' height='90'> <img id='selected'    src='G_1.jpg' height='90'> <img id='selected'  src='G_8.jpg' height='90'> <img     src='G_2.jpg' height='90'> <img src='G_4.jpg' height='90'> <img src='G_3.jpg' height='90'> <img src='G_7.jpg' height='90'>","null","Animation1","",""
"","","","","","html-keyboard-response","85","223548","0.0-77.0","18","1","2025-02-02 03:13:16","bc01a2b6f61d06f6604adb8657495020","108.195.189.32","Mozilla/5.0 (Windows NT 10.0; Win64; x64) AppleWebKit/537.36 (KHTML, like Gecko) Chrome/131.0.0.0 Safari/537.36","WebKit","Chrome","131.0.0.0","Windows","10.0","https://app.prolific.com/","en-US,en;q=0.9","6413c7853eba2b2215197ff4","679edb085803f58d6bbd31ca","679ee2b0add92295c037602e","","null","<img    src='G_6.jpg' height='90'> <img    src='G_5.jpg' height='90'> <img id='swapped'  src='G_8.jpg' height='90'> <img id='swapped'    src='G_1.jpg' height='90'> <img     src='G_2.jpg' height='90'> <img src='G_4.jpg' height='90'> <img src='G_3.jpg' height='90'> <img src='G_7.jpg' height='90'>","null","Animation1","",""
"","","","","","html-keyboard-response","86","223869","0.0-78.0","18","1","2025-02-02 03:13:16","bc01a2b6f61d06f6604adb8657495020","108.195.189.32","Mozilla/5.0 (Windows NT 10.0; Win64; x64) AppleWebKit/537.36 (KHTML, like Gecko) Chrome/131.0.0.0 Safari/537.36","WebKit","Chrome","131.0.0.0","Windows","10.0","https://app.prolific.com/","en-US,en;q=0.9","6413c7853eba2b2215197ff4","679edb085803f58d6bbd31ca","679ee2b0add92295c037602e","","null","<img    src='G_6.jpg' height='90'> <img    src='G_5.jpg' height='90'> <img   src='G_8.jpg' height='90'> <img     src='G_1.jpg' height='90'> <img     src='G_2.jpg' height='90'> <img src='G_4.jpg' height='90'> <img src='G_3.jpg' height='90'> <img src='G_7.jpg' height='90'>","null","Animation1","",""
"","","","","","html-keyboard-response","87","224383","0.0-79.0","18","1","2025-02-02 03:13:16","bc01a2b6f61d06f6604adb8657495020","108.195.189.32","Mozilla/5.0 (Windows NT 10.0; Win64; x64) AppleWebKit/537.36 (KHTML, like Gecko) Chrome/131.0.0.0 Safari/537.36","WebKit","Chrome","131.0.0.0","Windows","10.0","https://app.prolific.com/","en-US,en;q=0.9","6413c7853eba2b2215197ff4","679edb085803f58d6bbd31ca","679ee2b0add92295c037602e","","null","<img    src='G_6.jpg' height='90'> <img id='selected'    src='G_5.jpg' height='90'> <img   src='G_8.jpg' height='90'> <img     src='G_1.jpg' height='90'> <img     src='G_2.jpg' height='90'> <img src='G_4.jpg' height='90'> <img src='G_3.jpg' height='90'> <img src='G_7.jpg' height='90'>","null","Animation1","",""
"","","","","","html-keyboard-response","88","224897","0.0-80.0","18","1","2025-02-02 03:13:16","bc01a2b6f61d06f6604adb8657495020","108.195.189.32","Mozilla/5.0 (Windows NT 10.0; Win64; x64) AppleWebKit/537.36 (KHTML, like Gecko) Chrome/131.0.0.0 Safari/537.36","WebKit","Chrome","131.0.0.0","Windows","10.0","https://app.prolific.com/","en-US,en;q=0.9","6413c7853eba2b2215197ff4","679edb085803f58d6bbd31ca","679ee2b0add92295c037602e","","null","<img    src='G_6.jpg' height='90'> <img id='selected'    src='G_5.jpg' height='90'> <img id='selected'   src='G_8.jpg' height='90'> <img     src='G_1.jpg' height='90'> <img     src='G_2.jpg' height='90'> <img src='G_4.jpg' height='90'> <img src='G_3.jpg' height='90'> <img src='G_7.jpg' height='90'>","null","Animation1","",""
"","","","","","html-keyboard-response","89","225400","0.0-81.0","18","1","2025-02-02 03:13:16","bc01a2b6f61d06f6604adb8657495020","108.195.189.32","Mozilla/5.0 (Windows NT 10.0; Win64; x64) AppleWebKit/537.36 (KHTML, like Gecko) Chrome/131.0.0.0 Safari/537.36","WebKit","Chrome","131.0.0.0","Windows","10.0","https://app.prolific.com/","en-US,en;q=0.9","6413c7853eba2b2215197ff4","679edb085803f58d6bbd31ca","679ee2b0add92295c037602e","","null","<img    src='G_6.jpg' height='90'> <img id='swapped'   src='G_8.jpg' height='90'> <img id='swapped'    src='G_5.jpg' height='90'> <img     src='G_1.jpg' height='90'> <img     src='G_2.jpg' height='90'> <img src='G_4.jpg' height='90'> <img src='G_3.jpg' height='90'> <img src='G_7.jpg' height='90'>","null","Animation1","",""
"","","","","","html-keyboard-response","90","225711","0.0-82.0","18","1","2025-02-02 03:13:16","bc01a2b6f61d06f6604adb8657495020","108.195.189.32","Mozilla/5.0 (Windows NT 10.0; Win64; x64) AppleWebKit/537.36 (KHTML, like Gecko) Chrome/131.0.0.0 Safari/537.36","WebKit","Chrome","131.0.0.0","Windows","10.0","https://app.prolific.com/","en-US,en;q=0.9","6413c7853eba2b2215197ff4","679edb085803f58d6bbd31ca","679ee2b0add92295c037602e","","null","<img    src='G_6.jpg' height='90'> <img    src='G_8.jpg' height='90'> <img     src='G_5.jpg' height='90'> <img     src='G_1.jpg' height='90'> <img     src='G_2.jpg' height='90'> <img src='G_4.jpg' height='90'> <img src='G_3.jpg' height='90'> <img src='G_7.jpg' height='90'>","null","Animation1","",""
"","","","","","html-keyboard-response","91","226221","0.0-83.0","18","1","2025-02-02 03:13:16","bc01a2b6f61d06f6604adb8657495020","108.195.189.32","Mozilla/5.0 (Windows NT 10.0; Win64; x64) AppleWebKit/537.36 (KHTML, like Gecko) Chrome/131.0.0.0 Safari/537.36","WebKit","Chrome","131.0.0.0","Windows","10.0","https://app.prolific.com/","en-US,en;q=0.9","6413c7853eba2b2215197ff4","679edb085803f58d6bbd31ca","679ee2b0add92295c037602e","","null","<img id='selected'    src='G_6.jpg' height='90'> <img    src='G_8.jpg' height='90'> <img     src='G_5.jpg' height='90'> <img     src='G_1.jpg' height='90'> <img     src='G_2.jpg' height='90'> <img src='G_4.jpg' height='90'> <img src='G_3.jpg' height='90'> <img src='G_7.jpg' height='90'>","null","Animation1","",""
"","","","","","html-keyboard-response","92","226733","0.0-84.0","18","1","2025-02-02 03:13:16","bc01a2b6f61d06f6604adb8657495020","108.195.189.32","Mozilla/5.0 (Windows NT 10.0; Win64; x64) AppleWebKit/537.36 (KHTML, like Gecko) Chrome/131.0.0.0 Safari/537.36","WebKit","Chrome","131.0.0.0","Windows","10.0","https://app.prolific.com/","en-US,en;q=0.9","6413c7853eba2b2215197ff4","679edb085803f58d6bbd31ca","679ee2b0add92295c037602e","","null","<img id='selected'    src='G_6.jpg' height='90'> <img id='selected'    src='G_8.jpg' height='90'> <img     src='G_5.jpg' height='90'> <img     src='G_1.jpg' height='90'> <img     src='G_2.jpg' height='90'> <img src='G_4.jpg' height='90'> <img src='G_3.jpg' height='90'> <img src='G_7.jpg' height='90'>","null","Animation1","",""
"","","","","","html-keyboard-response","93","227250","0.0-85.0","18","1","2025-02-02 03:13:16","bc01a2b6f61d06f6604adb8657495020","108.195.189.32","Mozilla/5.0 (Windows NT 10.0; Win64; x64) AppleWebKit/537.36 (KHTML, like Gecko) Chrome/131.0.0.0 Safari/537.36","WebKit","Chrome","131.0.0.0","Windows","10.0","https://app.prolific.com/","en-US,en;q=0.9","6413c7853eba2b2215197ff4","679edb085803f58d6bbd31ca","679ee2b0add92295c037602e","","null","<img id='selected'    src='G_6.jpg' height='90'> <img id='selected'    src='G_8.jpg' height='90'> <img     src='G_5.jpg' height='90'> <img     src='G_1.jpg' height='90'> <img     src='G_2.jpg' height='90'> <img src='G_4.jpg' height='90'> <img src='G_3.jpg' height='90'> <img src='G_7.jpg' height='90'>","null","Animation1","",""
"","","","","","html-keyboard-response","94","227572","0.0-86.0","18","1","2025-02-02 03:13:16","bc01a2b6f61d06f6604adb8657495020","108.195.189.32","Mozilla/5.0 (Windows NT 10.0; Win64; x64) AppleWebKit/537.36 (KHTML, like Gecko) Chrome/131.0.0.0 Safari/537.36","WebKit","Chrome","131.0.0.0","Windows","10.0","https://app.prolific.com/","en-US,en;q=0.9","6413c7853eba2b2215197ff4","679edb085803f58d6bbd31ca","679ee2b0add92295c037602e","","null","<img     src='G_6.jpg' height='90'> <img     src='G_8.jpg' height='90'> <img     src='G_5.jpg' height='90'> <img     src='G_1.jpg' height='90'> <img     src='G_2.jpg' height='90'> <img src='G_4.jpg' height='90'> <img src='G_3.jpg' height='90'> <img src='G_7.jpg' height='90'>","null","Animation1","",""
"","","","","","html-keyboard-response","95","228079","0.0-87.0","18","1","2025-02-02 03:13:16","bc01a2b6f61d06f6604adb8657495020","108.195.189.32","Mozilla/5.0 (Windows NT 10.0; Win64; x64) AppleWebKit/537.36 (KHTML, like Gecko) Chrome/131.0.0.0 Safari/537.36","WebKit","Chrome","131.0.0.0","Windows","10.0","https://app.prolific.com/","en-US,en;q=0.9","6413c7853eba2b2215197ff4","679edb085803f58d6bbd31ca","679ee2b0add92295c037602e","","null","<img     src='G_6.jpg' height='90'> <img     src='G_8.jpg' height='90'> <img     src='G_5.jpg' height='90'> <img     src='G_1.jpg' height='90'> <img id='selected'     src='G_2.jpg' height='90'> <img src='G_4.jpg' height='90'> <img src='G_3.jpg' height='90'> <img src='G_7.jpg' height='90'>","null","Animation1","",""
"","","","","","html-keyboard-response","96","228583","0.0-88.0","18","1","2025-02-02 03:13:16","bc01a2b6f61d06f6604adb8657495020","108.195.189.32","Mozilla/5.0 (Windows NT 10.0; Win64; x64) AppleWebKit/537.36 (KHTML, like Gecko) Chrome/131.0.0.0 Safari/537.36","WebKit","Chrome","131.0.0.0","Windows","10.0","https://app.prolific.com/","en-US,en;q=0.9","6413c7853eba2b2215197ff4","679edb085803f58d6bbd31ca","679ee2b0add92295c037602e","","null","<img     src='G_6.jpg' height='90'> <img     src='G_8.jpg' height='90'> <img     src='G_5.jpg' height='90'> <img     src='G_1.jpg' height='90'> <img id='selected'     src='G_2.jpg' height='90'> <img id='selected' src='G_4.jpg' height='90'> <img src='G_3.jpg' height='90'> <img src='G_7.jpg' height='90'>","null","Animation1","",""
"","","","","","html-keyboard-response","97","229094","0.0-89.0","18","1","2025-02-02 03:13:16","bc01a2b6f61d06f6604adb8657495020","108.195.189.32","Mozilla/5.0 (Windows NT 10.0; Win64; x64) AppleWebKit/537.36 (KHTML, like Gecko) Chrome/131.0.0.0 Safari/537.36","WebKit","Chrome","131.0.0.0","Windows","10.0","https://app.prolific.com/","en-US,en;q=0.9","6413c7853eba2b2215197ff4","679edb085803f58d6bbd31ca","679ee2b0add92295c037602e","","null","<img     src='G_6.jpg' height='90'> <img     src='G_8.jpg' height='90'> <img     src='G_5.jpg' height='90'> <img     src='G_1.jpg' height='90'> <img id='swapped' src='G_4.jpg' height='90'> <img id='swapped'     src='G_2.jpg' height='90'> <img src='G_3.jpg' height='90'> <img src='G_7.jpg' height='90'>","null","Animation1","",""
"","","","","","html-keyboard-response","98","229403","0.0-90.0","18","1","2025-02-02 03:13:16","bc01a2b6f61d06f6604adb8657495020","108.195.189.32","Mozilla/5.0 (Windows NT 10.0; Win64; x64) AppleWebKit/537.36 (KHTML, like Gecko) Chrome/131.0.0.0 Safari/537.36","WebKit","Chrome","131.0.0.0","Windows","10.0","https://app.prolific.com/","en-US,en;q=0.9","6413c7853eba2b2215197ff4","679edb085803f58d6bbd31ca","679ee2b0add92295c037602e","","null","<img     src='G_6.jpg' height='90'> <img     src='G_8.jpg' height='90'> <img     src='G_5.jpg' height='90'> <img     src='G_1.jpg' height='90'> <img  src='G_4.jpg' height='90'> <img      src='G_2.jpg' height='90'> <img src='G_3.jpg' height='90'> <img src='G_7.jpg' height='90'>","null","Animation1","",""
"","","","","","html-keyboard-response","99","229917","0.0-91.0","18","1","2025-02-02 03:13:16","bc01a2b6f61d06f6604adb8657495020","108.195.189.32","Mozilla/5.0 (Windows NT 10.0; Win64; x64) AppleWebKit/537.36 (KHTML, like Gecko) Chrome/131.0.0.0 Safari/537.36","WebKit","Chrome","131.0.0.0","Windows","10.0","https://app.prolific.com/","en-US,en;q=0.9","6413c7853eba2b2215197ff4","679edb085803f58d6bbd31ca","679ee2b0add92295c037602e","","null","<img     src='G_6.jpg' height='90'> <img     src='G_8.jpg' height='90'> <img     src='G_5.jpg' height='90'> <img id='selected'     src='G_1.jpg' height='90'> <img  src='G_4.jpg' height='90'> <img      src='G_2.jpg' height='90'> <img src='G_3.jpg' height='90'> <img src='G_7.jpg' height='90'>","null","Animation1","",""
"","","","","","html-keyboard-response","100","230430","0.0-92.0","18","1","2025-02-02 03:13:16","bc01a2b6f61d06f6604adb8657495020","108.195.189.32","Mozilla/5.0 (Windows NT 10.0; Win64; x64) AppleWebKit/537.36 (KHTML, like Gecko) Chrome/131.0.0.0 Safari/537.36","WebKit","Chrome","131.0.0.0","Windows","10.0","https://app.prolific.com/","en-US,en;q=0.9","6413c7853eba2b2215197ff4","679edb085803f58d6bbd31ca","679ee2b0add92295c037602e","","null","<img     src='G_6.jpg' height='90'> <img     src='G_8.jpg' height='90'> <img     src='G_5.jpg' height='90'> <img id='selected'     src='G_1.jpg' height='90'> <img id='selected'  src='G_4.jpg' height='90'> <img      src='G_2.jpg' height='90'> <img src='G_3.jpg' height='90'> <img src='G_7.jpg' height='90'>","null","Animation1","",""
"","","","","","html-keyboard-response","101","230947","0.0-93.0","18","1","2025-02-02 03:13:16","bc01a2b6f61d06f6604adb8657495020","108.195.189.32","Mozilla/5.0 (Windows NT 10.0; Win64; x64) AppleWebKit/537.36 (KHTML, like Gecko) Chrome/131.0.0.0 Safari/537.36","WebKit","Chrome","131.0.0.0","Windows","10.0","https://app.prolific.com/","en-US,en;q=0.9","6413c7853eba2b2215197ff4","679edb085803f58d6bbd31ca","679ee2b0add92295c037602e","","null","<img     src='G_6.jpg' height='90'> <img     src='G_8.jpg' height='90'> <img     src='G_5.jpg' height='90'> <img id='selected'     src='G_1.jpg' height='90'> <img id='selected'  src='G_4.jpg' height='90'> <img      src='G_2.jpg' height='90'> <img src='G_3.jpg' height='90'> <img src='G_7.jpg' height='90'>","null","Animation1","",""
"","","","","","html-keyboard-response","102","231269","0.0-94.0","18","1","2025-02-02 03:13:16","bc01a2b6f61d06f6604adb8657495020","108.195.189.32","Mozilla/5.0 (Windows NT 10.0; Win64; x64) AppleWebKit/537.36 (KHTML, like Gecko) Chrome/131.0.0.0 Safari/537.36","WebKit","Chrome","131.0.0.0","Windows","10.0","https://app.prolific.com/","en-US,en;q=0.9","6413c7853eba2b2215197ff4","679edb085803f58d6bbd31ca","679ee2b0add92295c037602e","","null","<img     src='G_6.jpg' height='90'> <img     src='G_8.jpg' height='90'> <img     src='G_5.jpg' height='90'> <img      src='G_1.jpg' height='90'> <img   src='G_4.jpg' height='90'> <img      src='G_2.jpg' height='90'> <img src='G_3.jpg' height='90'> <img src='G_7.jpg' height='90'>","null","Animation1","",""
"","","","","","html-keyboard-response","103","231780","0.0-95.0","18","1","2025-02-02 03:13:16","bc01a2b6f61d06f6604adb8657495020","108.195.189.32","Mozilla/5.0 (Windows NT 10.0; Win64; x64) AppleWebKit/537.36 (KHTML, like Gecko) Chrome/131.0.0.0 Safari/537.36","WebKit","Chrome","131.0.0.0","Windows","10.0","https://app.prolific.com/","en-US,en;q=0.9","6413c7853eba2b2215197ff4","679edb085803f58d6bbd31ca","679ee2b0add92295c037602e","","null","<img     src='G_6.jpg' height='90'> <img     src='G_8.jpg' height='90'> <img     src='G_5.jpg' height='90'> <img      src='G_1.jpg' height='90'> <img   src='G_4.jpg' height='90'> <img id='selected'      src='G_2.jpg' height='90'> <img src='G_3.jpg' height='90'> <img src='G_7.jpg' height='90'>","null","Animation1","",""
"","","","","","html-keyboard-response","104","232297","0.0-96.0","18","1","2025-02-02 03:13:16","bc01a2b6f61d06f6604adb8657495020","108.195.189.32","Mozilla/5.0 (Windows NT 10.0; Win64; x64) AppleWebKit/537.36 (KHTML, like Gecko) Chrome/131.0.0.0 Safari/537.36","WebKit","Chrome","131.0.0.0","Windows","10.0","https://app.prolific.com/","en-US,en;q=0.9","6413c7853eba2b2215197ff4","679edb085803f58d6bbd31ca","679ee2b0add92295c037602e","","null","<img     src='G_6.jpg' height='90'> <img     src='G_8.jpg' height='90'> <img     src='G_5.jpg' height='90'> <img      src='G_1.jpg' height='90'> <img   src='G_4.jpg' height='90'> <img id='selected'      src='G_2.jpg' height='90'> <img id='selected' src='G_3.jpg' height='90'> <img src='G_7.jpg' height='90'>","null","Animation1","",""
"","","","","","html-keyboard-response","105","232805","0.0-97.0","18","1","2025-02-02 03:13:16","bc01a2b6f61d06f6604adb8657495020","108.195.189.32","Mozilla/5.0 (Windows NT 10.0; Win64; x64) AppleWebKit/537.36 (KHTML, like Gecko) Chrome/131.0.0.0 Safari/537.36","WebKit","Chrome","131.0.0.0","Windows","10.0","https://app.prolific.com/","en-US,en;q=0.9","6413c7853eba2b2215197ff4","679edb085803f58d6bbd31ca","679ee2b0add92295c037602e","","null","<img     src='G_6.jpg' height='90'> <img     src='G_8.jpg' height='90'> <img     src='G_5.jpg' height='90'> <img      src='G_1.jpg' height='90'> <img   src='G_4.jpg' height='90'> <img id='selected'      src='G_2.jpg' height='90'> <img id='selected' src='G_3.jpg' height='90'> <img src='G_7.jpg' height='90'>","null","Animation1","",""
"","","","","","html-keyboard-response","106","233125","0.0-98.0","18","1","2025-02-02 03:13:16","bc01a2b6f61d06f6604adb8657495020","108.195.189.32","Mozilla/5.0 (Windows NT 10.0; Win64; x64) AppleWebKit/537.36 (KHTML, like Gecko) Chrome/131.0.0.0 Safari/537.36","WebKit","Chrome","131.0.0.0","Windows","10.0","https://app.prolific.com/","en-US,en;q=0.9","6413c7853eba2b2215197ff4","679edb085803f58d6bbd31ca","679ee2b0add92295c037602e","","null","<img     src='G_6.jpg' height='90'> <img     src='G_8.jpg' height='90'> <img     src='G_5.jpg' height='90'> <img      src='G_1.jpg' height='90'> <img   src='G_4.jpg' height='90'> <img       src='G_2.jpg' height='90'> <img  src='G_3.jpg' height='90'> <img src='G_7.jpg' height='90'>","null","Animation1","",""
"","","","","","html-keyboard-response","107","233630","0.0-99.0","18","1","2025-02-02 03:13:16","bc01a2b6f61d06f6604adb8657495020","108.195.189.32","Mozilla/5.0 (Windows NT 10.0; Win64; x64) AppleWebKit/537.36 (KHTML, like Gecko) Chrome/131.0.0.0 Safari/537.36","WebKit","Chrome","131.0.0.0","Windows","10.0","https://app.prolific.com/","en-US,en;q=0.9","6413c7853eba2b2215197ff4","679edb085803f58d6bbd31ca","679ee2b0add92295c037602e","","null","<img     src='G_6.jpg' height='90'> <img     src='G_8.jpg' height='90'> <img     src='G_5.jpg' height='90'> <img      src='G_1.jpg' height='90'> <img   src='G_4.jpg' height='90'> <img       src='G_2.jpg' height='90'> <img id='selected'  src='G_3.jpg' height='90'> <img src='G_7.jpg' height='90'>","null","Animation1","",""
"","","","","","html-keyboard-response","108","234144","0.0-100.0","18","1","2025-02-02 03:13:16","bc01a2b6f61d06f6604adb8657495020","108.195.189.32","Mozilla/5.0 (Windows NT 10.0; Win64; x64) AppleWebKit/537.36 (KHTML, like Gecko) Chrome/131.0.0.0 Safari/537.36","WebKit","Chrome","131.0.0.0","Windows","10.0","https://app.prolific.com/","en-US,en;q=0.9","6413c7853eba2b2215197ff4","679edb085803f58d6bbd31ca","679ee2b0add92295c037602e","","null","<img     src='G_6.jpg' height='90'> <img     src='G_8.jpg' height='90'> <img     src='G_5.jpg' height='90'> <img      src='G_1.jpg' height='90'> <img   src='G_4.jpg' height='90'> <img       src='G_2.jpg' height='90'> <img id='selected'  src='G_3.jpg' height='90'> <img id='selected' src='G_7.jpg' height='90'>","null","Animation1","",""
"","","","","","html-keyboard-response","109","234659","0.0-101.0","18","1","2025-02-02 03:13:16","bc01a2b6f61d06f6604adb8657495020","108.195.189.32","Mozilla/5.0 (Windows NT 10.0; Win64; x64) AppleWebKit/537.36 (KHTML, like Gecko) Chrome/131.0.0.0 Safari/537.36","WebKit","Chrome","131.0.0.0","Windows","10.0","https://app.prolific.com/","en-US,en;q=0.9","6413c7853eba2b2215197ff4","679edb085803f58d6bbd31ca","679ee2b0add92295c037602e","","null","<img     src='G_6.jpg' height='90'> <img     src='G_8.jpg' height='90'> <img     src='G_5.jpg' height='90'> <img      src='G_1.jpg' height='90'> <img   src='G_4.jpg' height='90'> <img       src='G_2.jpg' height='90'> <img id='swapped' src='G_7.jpg' height='90'> <img id='swapped'  src='G_3.jpg' height='90'>","null","Animation1","",""
"","","","","","html-keyboard-response","110","234975","0.0-102.0","18","1","2025-02-02 03:13:16","bc01a2b6f61d06f6604adb8657495020","108.195.189.32","Mozilla/5.0 (Windows NT 10.0; Win64; x64) AppleWebKit/537.36 (KHTML, like Gecko) Chrome/131.0.0.0 Safari/537.36","WebKit","Chrome","131.0.0.0","Windows","10.0","https://app.prolific.com/","en-US,en;q=0.9","6413c7853eba2b2215197ff4","679edb085803f58d6bbd31ca","679ee2b0add92295c037602e","","null","<img     src='G_6.jpg' height='90'> <img     src='G_8.jpg' height='90'> <img     src='G_5.jpg' height='90'> <img      src='G_1.jpg' height='90'> <img   src='G_4.jpg' height='90'> <img       src='G_2.jpg' height='90'> <img  src='G_7.jpg' height='90'> <img   src='G_3.jpg' height='90'>","null","Animation1","",""
"","","","","","html-keyboard-response","111","235487","0.0-103.0","18","1","2025-02-02 03:13:16","bc01a2b6f61d06f6604adb8657495020","108.195.189.32","Mozilla/5.0 (Windows NT 10.0; Win64; x64) AppleWebKit/537.36 (KHTML, like Gecko) Chrome/131.0.0.0 Safari/537.36","WebKit","Chrome","131.0.0.0","Windows","10.0","https://app.prolific.com/","en-US,en;q=0.9","6413c7853eba2b2215197ff4","679edb085803f58d6bbd31ca","679ee2b0add92295c037602e","","null","<img     src='G_6.jpg' height='90'> <img     src='G_8.jpg' height='90'> <img     src='G_5.jpg' height='90'> <img      src='G_1.jpg' height='90'> <img   src='G_4.jpg' height='90'> <img id='selected'       src='G_2.jpg' height='90'> <img  src='G_7.jpg' height='90'> <img   src='G_3.jpg' height='90'>","null","Animation1","",""
"","","","","","html-keyboard-response","112","236001","0.0-104.0","18","1","2025-02-02 03:13:16","bc01a2b6f61d06f6604adb8657495020","108.195.189.32","Mozilla/5.0 (Windows NT 10.0; Win64; x64) AppleWebKit/537.36 (KHTML, like Gecko) Chrome/131.0.0.0 Safari/537.36","WebKit","Chrome","131.0.0.0","Windows","10.0","https://app.prolific.com/","en-US,en;q=0.9","6413c7853eba2b2215197ff4","679edb085803f58d6bbd31ca","679ee2b0add92295c037602e","","null","<img     src='G_6.jpg' height='90'> <img     src='G_8.jpg' height='90'> <img     src='G_5.jpg' height='90'> <img      src='G_1.jpg' height='90'> <img   src='G_4.jpg' height='90'> <img id='selected'       src='G_2.jpg' height='90'> <img id='selected'  src='G_7.jpg' height='90'> <img   src='G_3.jpg' height='90'>","null","Animation1","",""
"","","","","","html-keyboard-response","113","236523","0.0-105.0","18","1","2025-02-02 03:13:16","bc01a2b6f61d06f6604adb8657495020","108.195.189.32","Mozilla/5.0 (Windows NT 10.0; Win64; x64) AppleWebKit/537.36 (KHTML, like Gecko) Chrome/131.0.0.0 Safari/537.36","WebKit","Chrome","131.0.0.0","Windows","10.0","https://app.prolific.com/","en-US,en;q=0.9","6413c7853eba2b2215197ff4","679edb085803f58d6bbd31ca","679ee2b0add92295c037602e","","null","<img     src='G_6.jpg' height='90'> <img     src='G_8.jpg' height='90'> <img     src='G_5.jpg' height='90'> <img      src='G_1.jpg' height='90'> <img   src='G_4.jpg' height='90'> <img id='selected'       src='G_2.jpg' height='90'> <img id='selected'  src='G_7.jpg' height='90'> <img   src='G_3.jpg' height='90'>","null","Animation1","",""
"","","","","","html-keyboard-response","114","236843","0.0-106.0","18","1","2025-02-02 03:13:16","bc01a2b6f61d06f6604adb8657495020","108.195.189.32","Mozilla/5.0 (Windows NT 10.0; Win64; x64) AppleWebKit/537.36 (KHTML, like Gecko) Chrome/131.0.0.0 Safari/537.36","WebKit","Chrome","131.0.0.0","Windows","10.0","https://app.prolific.com/","en-US,en;q=0.9","6413c7853eba2b2215197ff4","679edb085803f58d6bbd31ca","679ee2b0add92295c037602e","","null","<img     src='G_6.jpg' height='90'> <img     src='G_8.jpg' height='90'> <img     src='G_5.jpg' height='90'> <img      src='G_1.jpg' height='90'> <img   src='G_4.jpg' height='90'> <img        src='G_2.jpg' height='90'> <img   src='G_7.jpg' height='90'> <img   src='G_3.jpg' height='90'>","null","Animation1","",""
"","","","","","html-keyboard-response","115","240821","0.0-107.0","18","1","2025-02-02 03:13:16","bc01a2b6f61d06f6604adb8657495020","108.195.189.32","Mozilla/5.0 (Windows NT 10.0; Win64; x64) AppleWebKit/537.36 (KHTML, like Gecko) Chrome/131.0.0.0 Safari/537.36","WebKit","Chrome","131.0.0.0","Windows","10.0","https://app.prolific.com/","en-US,en;q=0.9","6413c7853eba2b2215197ff4","679edb085803f58d6bbd31ca","679ee2b0add92295c037602e","","3975","[""Did you notice any patterns? <br><br>Press Enter to watch that example again and follow the steps of Omgne Sort.""]","enter","","",""
"","","","","","html-button-response","116","241234","0.0-108.0","18","1","2025-02-02 03:13:16","bc01a2b6f61d06f6604adb8657495020","108.195.189.32","Mozilla/5.0 (Windows NT 10.0; Win64; x64) AppleWebKit/537.36 (KHTML, like Gecko) Chrome/131.0.0.0 Safari/537.36","WebKit","Chrome","131.0.0.0","Windows","10.0","https://app.prolific.com/","en-US,en;q=0.9","6413c7853eba2b2215197ff4","679edb085803f58d6bbd31ca","679ee2b0add92295c037602e","","null","<img id='selected' src='G_1.jpg' height='90'> <img src='G_2.jpg' height='90'> <img src='G_5.jpg' height='90'> <img src='G_6.jpg' height='90'> <img src='G_8.jpg' height='90'> <img src='G_4.jpg' height='90'> <img src='G_3.jpg' height='90'> <img src='G_7.jpg' height='90'>","null","Learning example 1","",""
"","","","","","html-button-response","117","241546","0.0-109.0","18","1","2025-02-02 03:13:16","bc01a2b6f61d06f6604adb8657495020","108.195.189.32","Mozilla/5.0 (Windows NT 10.0; Win64; x64) AppleWebKit/537.36 (KHTML, like Gecko) Chrome/131.0.0.0 Safari/537.36","WebKit","Chrome","131.0.0.0","Windows","10.0","https://app.prolific.com/","en-US,en;q=0.9","6413c7853eba2b2215197ff4","679edb085803f58d6bbd31ca","679ee2b0add92295c037602e","","null","<img id='selected' src='G_1.jpg' height='90'> <img id='selected' src='G_2.jpg' height='90'> <img src='G_5.jpg' height='90'> <img src='G_6.jpg' height='90'> <img src='G_8.jpg' height='90'> <img src='G_4.jpg' height='90'> <img src='G_3.jpg' height='90'> <img src='G_7.jpg' height='90'>","null","Learning example 1","",""
"","","","","","html-button-response","118","241853","0.0-110.0","18","1","2025-02-02 03:13:16","bc01a2b6f61d06f6604adb8657495020","108.195.189.32","Mozilla/5.0 (Windows NT 10.0; Win64; x64) AppleWebKit/537.36 (KHTML, like Gecko) Chrome/131.0.0.0 Safari/537.36","WebKit","Chrome","131.0.0.0","Windows","10.0","https://app.prolific.com/","en-US,en;q=0.9","6413c7853eba2b2215197ff4","679edb085803f58d6bbd31ca","679ee2b0add92295c037602e","","null","<img id='selected' src='G_1.jpg' height='90'> <img id='selected' src='G_2.jpg' height='90'> <img src='G_5.jpg' height='90'> <img src='G_6.jpg' height='90'> <img src='G_8.jpg' height='90'> <img src='G_4.jpg' height='90'> <img src='G_3.jpg' height='90'> <img src='G_7.jpg' height='90'>","null","Learning example 1","",""
"","","","","","html-button-response","119","245339","0.0-111.0-0.0-0.0","18","1","2025-02-02 03:13:16","bc01a2b6f61d06f6604adb8657495020","108.195.189.32","Mozilla/5.0 (Windows NT 10.0; Win64; x64) AppleWebKit/537.36 (KHTML, like Gecko) Chrome/131.0.0.0 Safari/537.36","WebKit","Chrome","131.0.0.0","Windows","10.0","https://app.prolific.com/","en-US,en;q=0.9","6413c7853eba2b2215197ff4","679edb085803f58d6bbd31ca","679ee2b0add92295c037602e","","3482","<img id='selected' src='G_1.jpg' height='90'> <img id='selected' src='G_2.jpg' height='90'> <img src='G_5.jpg' height='90'> <img src='G_6.jpg' height='90'> <img src='G_8.jpg' height='90'> <img src='G_4.jpg' height='90'> <img src='G_3.jpg' height='90'> <img src='G_7.jpg' height='90'>","0","Learning example 1","",""
"","","","","","html-button-response","120","245815","0.0-111.1-0.1-0.1","18","1","2025-02-02 03:13:16","bc01a2b6f61d06f6604adb8657495020","108.195.189.32","Mozilla/5.0 (Windows NT 10.0; Win64; x64) AppleWebKit/537.36 (KHTML, like Gecko) Chrome/131.0.0.0 Safari/537.36","WebKit","Chrome","131.0.0.0","Windows","10.0","https://app.prolific.com/","en-US,en;q=0.9","6413c7853eba2b2215197ff4","679edb085803f58d6bbd31ca","679ee2b0add92295c037602e","","472","<img id='selected' src='G_1.jpg' height='90'> <img id='selected' src='G_2.jpg' height='90'> <img src='G_5.jpg' height='90'> <img src='G_6.jpg' height='90'> <img src='G_8.jpg' height='90'> <img src='G_4.jpg' height='90'> <img src='G_3.jpg' height='90'> <img src='G_7.jpg' height='90'>","1","Learning example 1","",""
"","","","","","html-button-response","121","246027","0.0-112.0","18","1","2025-02-02 03:13:16","bc01a2b6f61d06f6604adb8657495020","108.195.189.32","Mozilla/5.0 (Windows NT 10.0; Win64; x64) AppleWebKit/537.36 (KHTML, like Gecko) Chrome/131.0.0.0 Safari/537.36","WebKit","Chrome","131.0.0.0","Windows","10.0","https://app.prolific.com/","en-US,en;q=0.9","6413c7853eba2b2215197ff4","679edb085803f58d6bbd31ca","679ee2b0add92295c037602e","","null","<img  src='G_1.jpg' height='90'> <img  src='G_2.jpg' height='90'> <img src='G_5.jpg' height='90'> <img src='G_6.jpg' height='90'> <img src='G_8.jpg' height='90'> <img src='G_4.jpg' height='90'> <img src='G_3.jpg' height='90'> <img src='G_7.jpg' height='90'>","null","Learning example 1","",""
"","","","","","html-button-response","122","246452","0.0-113.0","18","1","2025-02-02 03:13:16","bc01a2b6f61d06f6604adb8657495020","108.195.189.32","Mozilla/5.0 (Windows NT 10.0; Win64; x64) AppleWebKit/537.36 (KHTML, like Gecko) Chrome/131.0.0.0 Safari/537.36","WebKit","Chrome","131.0.0.0","Windows","10.0","https://app.prolific.com/","en-US,en;q=0.9","6413c7853eba2b2215197ff4","679edb085803f58d6bbd31ca","679ee2b0add92295c037602e","","null","<img  src='G_1.jpg' height='90'> <img id='selected'  src='G_2.jpg' height='90'> <img src='G_5.jpg' height='90'> <img src='G_6.jpg' height='90'> <img src='G_8.jpg' height='90'> <img src='G_4.jpg' height='90'> <img src='G_3.jpg' height='90'> <img src='G_7.jpg' height='90'>","null","Learning example 1","",""
"","","","","","html-button-response","123","246760","0.0-114.0","18","1","2025-02-02 03:13:16","bc01a2b6f61d06f6604adb8657495020","108.195.189.32","Mozilla/5.0 (Windows NT 10.0; Win64; x64) AppleWebKit/537.36 (KHTML, like Gecko) Chrome/131.0.0.0 Safari/537.36","WebKit","Chrome","131.0.0.0","Windows","10.0","https://app.prolific.com/","en-US,en;q=0.9","6413c7853eba2b2215197ff4","679edb085803f58d6bbd31ca","679ee2b0add92295c037602e","","null","<img  src='G_1.jpg' height='90'> <img id='selected'  src='G_2.jpg' height='90'> <img id='selected' src='G_5.jpg' height='90'> <img src='G_6.jpg' height='90'> <img src='G_8.jpg' height='90'> <img src='G_4.jpg' height='90'> <img src='G_3.jpg' height='90'> <img src='G_7.jpg' height='90'>","null","Learning example 1","",""
"","","","","","html-button-response","124","247088","0.0-115.0","18","1","2025-02-02 03:13:16","bc01a2b6f61d06f6604adb8657495020","108.195.189.32","Mozilla/5.0 (Windows NT 10.0; Win64; x64) AppleWebKit/537.36 (KHTML, like Gecko) Chrome/131.0.0.0 Safari/537.36","WebKit","Chrome","131.0.0.0","Windows","10.0","https://app.prolific.com/","en-US,en;q=0.9","6413c7853eba2b2215197ff4","679edb085803f58d6bbd31ca","679ee2b0add92295c037602e","","null","<img  src='G_1.jpg' height='90'> <img id='swapped' src='G_5.jpg' height='90'> <img id='swapped'  src='G_2.jpg' height='90'> <img src='G_6.jpg' height='90'> <img src='G_8.jpg' height='90'> <img src='G_4.jpg' height='90'> <img src='G_3.jpg' height='90'> <img src='G_7.jpg' height='90'>","null","Learning example 1","",""
"","","","","","html-button-response","125","247704","0.0-116.0-0.0-0.0","18","1","2025-02-02 03:13:16","bc01a2b6f61d06f6604adb8657495020","108.195.189.32","Mozilla/5.0 (Windows NT 10.0; Win64; x64) AppleWebKit/537.36 (KHTML, like Gecko) Chrome/131.0.0.0 Safari/537.36","WebKit","Chrome","131.0.0.0","Windows","10.0","https://app.prolific.com/","en-US,en;q=0.9","6413c7853eba2b2215197ff4","679edb085803f58d6bbd31ca","679ee2b0add92295c037602e","","612","<img  src='G_1.jpg' height='90'> <img id='swapped' src='G_5.jpg' height='90'> <img id='swapped'  src='G_2.jpg' height='90'> <img src='G_6.jpg' height='90'> <img src='G_8.jpg' height='90'> <img src='G_4.jpg' height='90'> <img src='G_3.jpg' height='90'> <img src='G_7.jpg' height='90'>","2","Learning example 1","",""
"","","","","","html-button-response","126","248869","0.0-116.1-0.1-0.1","18","1","2025-02-02 03:13:16","bc01a2b6f61d06f6604adb8657495020","108.195.189.32","Mozilla/5.0 (Windows NT 10.0; Win64; x64) AppleWebKit/537.36 (KHTML, like Gecko) Chrome/131.0.0.0 Safari/537.36","WebKit","Chrome","131.0.0.0","Windows","10.0","https://app.prolific.com/","en-US,en;q=0.9","6413c7853eba2b2215197ff4","679edb085803f58d6bbd31ca","679ee2b0add92295c037602e","","1161","<img  src='G_1.jpg' height='90'> <img id='swapped' src='G_5.jpg' height='90'> <img id='swapped'  src='G_2.jpg' height='90'> <img src='G_6.jpg' height='90'> <img src='G_8.jpg' height='90'> <img src='G_4.jpg' height='90'> <img src='G_3.jpg' height='90'> <img src='G_7.jpg' height='90'>","1","Learning example 1","",""
"","","","","","html-button-response","127","249075","0.0-117.0","18","1","2025-02-02 03:13:16","bc01a2b6f61d06f6604adb8657495020","108.195.189.32","Mozilla/5.0 (Windows NT 10.0; Win64; x64) AppleWebKit/537.36 (KHTML, like Gecko) Chrome/131.0.0.0 Safari/537.36","WebKit","Chrome","131.0.0.0","Windows","10.0","https://app.prolific.com/","en-US,en;q=0.9","6413c7853eba2b2215197ff4","679edb085803f58d6bbd31ca","679ee2b0add92295c037602e","","null","<img  src='G_1.jpg' height='90'> <img  src='G_5.jpg' height='90'> <img   src='G_2.jpg' height='90'> <img src='G_6.jpg' height='90'> <img src='G_8.jpg' height='90'> <img src='G_4.jpg' height='90'> <img src='G_3.jpg' height='90'> <img src='G_7.jpg' height='90'>","null","Learning example 1","",""
"","","","","","html-button-response","128","249484","0.0-118.0","18","1","2025-02-02 03:13:16","bc01a2b6f61d06f6604adb8657495020","108.195.189.32","Mozilla/5.0 (Windows NT 10.0; Win64; x64) AppleWebKit/537.36 (KHTML, like Gecko) Chrome/131.0.0.0 Safari/537.36","WebKit","Chrome","131.0.0.0","Windows","10.0","https://app.prolific.com/","en-US,en;q=0.9","6413c7853eba2b2215197ff4","679edb085803f58d6bbd31ca","679ee2b0add92295c037602e","","null","<img id='selected'  src='G_1.jpg' height='90'> <img  src='G_5.jpg' height='90'> <img   src='G_2.jpg' height='90'> <img src='G_6.jpg' height='90'> <img src='G_8.jpg' height='90'> <img src='G_4.jpg' height='90'> <img src='G_3.jpg' height='90'> <img src='G_7.jpg' height='90'>","null","Learning example 1","",""
"","","","","","html-button-response","129","249796","0.0-119.0","18","1","2025-02-02 03:13:16","bc01a2b6f61d06f6604adb8657495020","108.195.189.32","Mozilla/5.0 (Windows NT 10.0; Win64; x64) AppleWebKit/537.36 (KHTML, like Gecko) Chrome/131.0.0.0 Safari/537.36","WebKit","Chrome","131.0.0.0","Windows","10.0","https://app.prolific.com/","en-US,en;q=0.9","6413c7853eba2b2215197ff4","679edb085803f58d6bbd31ca","679ee2b0add92295c037602e","","null","<img id='selected'  src='G_1.jpg' height='90'> <img id='selected'  src='G_5.jpg' height='90'> <img   src='G_2.jpg' height='90'> <img src='G_6.jpg' height='90'> <img src='G_8.jpg' height='90'> <img src='G_4.jpg' height='90'> <img src='G_3.jpg' height='90'> <img src='G_7.jpg' height='90'>","null","Learning example 1","",""
"","","","","","html-button-response","130","250104","0.0-120.0","18","1","2025-02-02 03:13:16","bc01a2b6f61d06f6604adb8657495020","108.195.189.32","Mozilla/5.0 (Windows NT 10.0; Win64; x64) AppleWebKit/537.36 (KHTML, like Gecko) Chrome/131.0.0.0 Safari/537.36","WebKit","Chrome","131.0.0.0","Windows","10.0","https://app.prolific.com/","en-US,en;q=0.9","6413c7853eba2b2215197ff4","679edb085803f58d6bbd31ca","679ee2b0add92295c037602e","","null","<img id='swapped'  src='G_5.jpg' height='90'> <img id='swapped'  src='G_1.jpg' height='90'> <img   src='G_2.jpg' height='90'> <img src='G_6.jpg' height='90'> <img src='G_8.jpg' height='90'> <img src='G_4.jpg' height='90'> <img src='G_3.jpg' height='90'> <img src='G_7.jpg' height='90'>","null","Learning example 1","",""
"","","","","","html-button-response","131","251066","0.0-121.0-0.0-0.0","18","1","2025-02-02 03:13:16","bc01a2b6f61d06f6604adb8657495020","108.195.189.32","Mozilla/5.0 (Windows NT 10.0; Win64; x64) AppleWebKit/537.36 (KHTML, like Gecko) Chrome/131.0.0.0 Safari/537.36","WebKit","Chrome","131.0.0.0","Windows","10.0","https://app.prolific.com/","en-US,en;q=0.9","6413c7853eba2b2215197ff4","679edb085803f58d6bbd31ca","679ee2b0add92295c037602e","","958","<img id='swapped'  src='G_5.jpg' height='90'> <img id='swapped'  src='G_1.jpg' height='90'> <img   src='G_2.jpg' height='90'> <img src='G_6.jpg' height='90'> <img src='G_8.jpg' height='90'> <img src='G_4.jpg' height='90'> <img src='G_3.jpg' height='90'> <img src='G_7.jpg' height='90'>","0","Learning example 1","",""
"","","","","","html-button-response","132","251546","0.0-121.1-0.1-0.1","18","1","2025-02-02 03:13:16","bc01a2b6f61d06f6604adb8657495020","108.195.189.32","Mozilla/5.0 (Windows NT 10.0; Win64; x64) AppleWebKit/537.36 (KHTML, like Gecko) Chrome/131.0.0.0 Safari/537.36","WebKit","Chrome","131.0.0.0","Windows","10.0","https://app.prolific.com/","en-US,en;q=0.9","6413c7853eba2b2215197ff4","679edb085803f58d6bbd31ca","679ee2b0add92295c037602e","","476","<img id='swapped'  src='G_5.jpg' height='90'> <img id='swapped'  src='G_1.jpg' height='90'> <img   src='G_2.jpg' height='90'> <img src='G_6.jpg' height='90'> <img src='G_8.jpg' height='90'> <img src='G_4.jpg' height='90'> <img src='G_3.jpg' height='90'> <img src='G_7.jpg' height='90'>","1","Learning example 1","",""
"","","","","","html-button-response","133","251755","0.0-122.0","18","1","2025-02-02 03:13:16","bc01a2b6f61d06f6604adb8657495020","108.195.189.32","Mozilla/5.0 (Windows NT 10.0; Win64; x64) AppleWebKit/537.36 (KHTML, like Gecko) Chrome/131.0.0.0 Safari/537.36","WebKit","Chrome","131.0.0.0","Windows","10.0","https://app.prolific.com/","en-US,en;q=0.9","6413c7853eba2b2215197ff4","679edb085803f58d6bbd31ca","679ee2b0add92295c037602e","","null","<img   src='G_5.jpg' height='90'> <img   src='G_1.jpg' height='90'> <img   src='G_2.jpg' height='90'> <img src='G_6.jpg' height='90'> <img src='G_8.jpg' height='90'> <img src='G_4.jpg' height='90'> <img src='G_3.jpg' height='90'> <img src='G_7.jpg' height='90'>","null","Learning example 1","",""
"","","","","","html-button-response","134","252175","0.0-123.0","18","1","2025-02-02 03:13:16","bc01a2b6f61d06f6604adb8657495020","108.195.189.32","Mozilla/5.0 (Windows NT 10.0; Win64; x64) AppleWebKit/537.36 (KHTML, like Gecko) Chrome/131.0.0.0 Safari/537.36","WebKit","Chrome","131.0.0.0","Windows","10.0","https://app.prolific.com/","en-US,en;q=0.9","6413c7853eba2b2215197ff4","679edb085803f58d6bbd31ca","679ee2b0add92295c037602e","","null","<img   src='G_5.jpg' height='90'> <img   src='G_1.jpg' height='90'> <img id='selected'   src='G_2.jpg' height='90'> <img src='G_6.jpg' height='90'> <img src='G_8.jpg' height='90'> <img src='G_4.jpg' height='90'> <img src='G_3.jpg' height='90'> <img src='G_7.jpg' height='90'>","null","Learning example 1","",""
"","","","","","html-button-response","135","252496","0.0-124.0","18","1","2025-02-02 03:13:16","bc01a2b6f61d06f6604adb8657495020","108.195.189.32","Mozilla/5.0 (Windows NT 10.0; Win64; x64) AppleWebKit/537.36 (KHTML, like Gecko) Chrome/131.0.0.0 Safari/537.36","WebKit","Chrome","131.0.0.0","Windows","10.0","https://app.prolific.com/","en-US,en;q=0.9","6413c7853eba2b2215197ff4","679edb085803f58d6bbd31ca","679ee2b0add92295c037602e","","null","<img   src='G_5.jpg' height='90'> <img   src='G_1.jpg' height='90'> <img id='selected'   src='G_2.jpg' height='90'> <img id='selected' src='G_6.jpg' height='90'> <img src='G_8.jpg' height='90'> <img src='G_4.jpg' height='90'> <img src='G_3.jpg' height='90'> <img src='G_7.jpg' height='90'>","null","Learning example 1","",""
"","","","","","html-button-response","136","252803","0.0-125.0","18","1","2025-02-02 03:13:16","bc01a2b6f61d06f6604adb8657495020","108.195.189.32","Mozilla/5.0 (Windows NT 10.0; Win64; x64) AppleWebKit/537.36 (KHTML, like Gecko) Chrome/131.0.0.0 Safari/537.36","WebKit","Chrome","131.0.0.0","Windows","10.0","https://app.prolific.com/","en-US,en;q=0.9","6413c7853eba2b2215197ff4","679edb085803f58d6bbd31ca","679ee2b0add92295c037602e","","null","<img   src='G_5.jpg' height='90'> <img   src='G_1.jpg' height='90'> <img id='swapped' src='G_6.jpg' height='90'> <img id='swapped'   src='G_2.jpg' height='90'> <img src='G_8.jpg' height='90'> <img src='G_4.jpg' height='90'> <img src='G_3.jpg' height='90'> <img src='G_7.jpg' height='90'>","null","Learning example 1","",""
"","","","","","html-button-response","137","253527","0.0-126.0-0.0-0.0","18","1","2025-02-02 03:13:16","bc01a2b6f61d06f6604adb8657495020","108.195.189.32","Mozilla/5.0 (Windows NT 10.0; Win64; x64) AppleWebKit/537.36 (KHTML, like Gecko) Chrome/131.0.0.0 Safari/537.36","WebKit","Chrome","131.0.0.0","Windows","10.0","https://app.prolific.com/","en-US,en;q=0.9","6413c7853eba2b2215197ff4","679edb085803f58d6bbd31ca","679ee2b0add92295c037602e","","720","<img   src='G_5.jpg' height='90'> <img   src='G_1.jpg' height='90'> <img id='swapped' src='G_6.jpg' height='90'> <img id='swapped'   src='G_2.jpg' height='90'> <img src='G_8.jpg' height='90'> <img src='G_4.jpg' height='90'> <img src='G_3.jpg' height='90'> <img src='G_7.jpg' height='90'>","2","Learning example 1","",""
"","","","","","html-button-response","138","254144","0.0-126.1-0.1-0.1","18","1","2025-02-02 03:13:16","bc01a2b6f61d06f6604adb8657495020","108.195.189.32","Mozilla/5.0 (Windows NT 10.0; Win64; x64) AppleWebKit/537.36 (KHTML, like Gecko) Chrome/131.0.0.0 Safari/537.36","WebKit","Chrome","131.0.0.0","Windows","10.0","https://app.prolific.com/","en-US,en;q=0.9","6413c7853eba2b2215197ff4","679edb085803f58d6bbd31ca","679ee2b0add92295c037602e","","613","<img   src='G_5.jpg' height='90'> <img   src='G_1.jpg' height='90'> <img id='swapped' src='G_6.jpg' height='90'> <img id='swapped'   src='G_2.jpg' height='90'> <img src='G_8.jpg' height='90'> <img src='G_4.jpg' height='90'> <img src='G_3.jpg' height='90'> <img src='G_7.jpg' height='90'>","3","Learning example 1","",""
"","","","","","html-button-response","139","254354","0.0-127.0","18","1","2025-02-02 03:13:16","bc01a2b6f61d06f6604adb8657495020","108.195.189.32","Mozilla/5.0 (Windows NT 10.0; Win64; x64) AppleWebKit/537.36 (KHTML, like Gecko) Chrome/131.0.0.0 Safari/537.36","WebKit","Chrome","131.0.0.0","Windows","10.0","https://app.prolific.com/","en-US,en;q=0.9","6413c7853eba2b2215197ff4","679edb085803f58d6bbd31ca","679ee2b0add92295c037602e","","null","<img   src='G_5.jpg' height='90'> <img   src='G_1.jpg' height='90'> <img  src='G_6.jpg' height='90'> <img    src='G_2.jpg' height='90'> <img src='G_8.jpg' height='90'> <img src='G_4.jpg' height='90'> <img src='G_3.jpg' height='90'> <img src='G_7.jpg' height='90'>","null","Learning example 1","",""
