"success","timeout","failed_images","failed_audio","failed_video","trial_type","trial_index","time_elapsed","internal_node_id","run_id","condition","recorded_at","source_code_version","ip","user_agent","device","browser","browser_version","platform","platform_version","referer","accept_language","PROLIFIC_PID","STUDY_ID","SESSION_ID","view_history","rt","stimulus","response","phase","question_order","presented_choices"
"true","false","[]","[]","[]","preload","0","219","0.0-0.0","19","1","2025-02-02 03:14:40","bc01a2b6f61d06f6604adb8657495020","69.250.72.32","Mozilla/5.0 (Macintosh; Intel Mac OS X 10_15_7) AppleWebKit/605.1.15 (KHTML, like Gecko) Version/17.5 Safari/605.1.15","Macintosh","Safari","17.5","OS X","10_15_7","https://app.prolific.com/","en-US,en;q=0.9","62e057323b4ee04dd8f508f6","679edb085803f58d6bbd31ca","679ee31196d08f1e19688ad4","","","","","","",""
"","","","","","instructions","1","15274","0.0-1.0","19","1","2025-02-02 03:14:40","bc01a2b6f61d06f6604adb8657495020","69.250.72.32","Mozilla/5.0 (Macintosh; Intel Mac OS X 10_15_7) AppleWebKit/605.1.15 (KHTML, like Gecko) Version/17.5 Safari/605.1.15","Macintosh","Safari","17.5","OS X","10_15_7","https://app.prolific.com/","en-US,en;q=0.9","62e057323b4ee04dd8f508f6","679edb085803f58d6bbd31ca","679ee31196d08f1e19688ad4","[{""page_index"":0,""viewing_time"":15050}]","15051","","","","",""
"","","","","","html-keyboard-response","2","15776","0.0-2.0","19","1","2025-02-02 03:14:40","bc01a2b6f61d06f6604adb8657495020","69.250.72.32","Mozilla/5.0 (Macintosh; Intel Mac OS X 10_15_7) AppleWebKit/605.1.15 (KHTML, like Gecko) Version/17.5 Safari/605.1.15","Macintosh","Safari","17.5","OS X","10_15_7","https://app.prolific.com/","en-US,en;q=0.9","62e057323b4ee04dd8f508f6","679edb085803f58d6bbd31ca","679ee31196d08f1e19688ad4","","null","<p> + <p/>","null","","",""
"","","","","","instructions","3","36498","0.0-3.0","19","1","2025-02-02 03:14:40","bc01a2b6f61d06f6604adb8657495020","69.250.72.32","Mozilla/5.0 (Macintosh; Intel Mac OS X 10_15_7) AppleWebKit/605.1.15 (KHTML, like Gecko) Version/17.5 Safari/605.1.15","Macintosh","Safari","17.5","OS X","10_15_7","https://app.prolific.com/","en-US,en;q=0.9","62e057323b4ee04dd8f508f6","679edb085803f58d6bbd31ca","679ee31196d08f1e19688ad4","[{""page_index"":0,""viewing_time"":1488},{""page_index"":1,""viewing_time"":8060},{""page_index"":2,""viewing_time"":4595},{""page_index"":3,""viewing_time"":2217},{""page_index"":4,""viewing_time"":4359}]","20720","","","","",""
"","","","","","html-button-response","4","40110","0.0-4.0-0.0-0.0","19","1","2025-02-02 03:14:40","bc01a2b6f61d06f6604adb8657495020","69.250.72.32","Mozilla/5.0 (Macintosh; Intel Mac OS X 10_15_7) AppleWebKit/605.1.15 (KHTML, like Gecko) Version/17.5 Safari/605.1.15","Macintosh","Safari","17.5","OS X","10_15_7","https://app.prolific.com/","en-US,en;q=0.9","62e057323b4ee04dd8f508f6","679edb085803f58d6bbd31ca","679ee31196d08f1e19688ad4","","3607","","3","Intro Trial","",""
"","","","","","html-button-response","5","40714","0.0-4.1-0.1-0.1","19","1","2025-02-02 03:14:40","bc01a2b6f61d06f6604adb8657495020","69.250.72.32","Mozilla/5.0 (Macintosh; Intel Mac OS X 10_15_7) AppleWebKit/605.1.15 (KHTML, like Gecko) Version/17.5 Safari/605.1.15","Macintosh","Safari","17.5","OS X","10_15_7","https://app.prolific.com/","en-US,en;q=0.9","62e057323b4ee04dd8f508f6","679edb085803f58d6bbd31ca","679ee31196d08f1e19688ad4","","601","","2","Intro Trial","",""
"","","","","","html-button-response","6","46624","0.0-4.2-0.2-0.2","19","1","2025-02-02 03:14:40","bc01a2b6f61d06f6604adb8657495020","69.250.72.32","Mozilla/5.0 (Macintosh; Intel Mac OS X 10_15_7) AppleWebKit/605.1.15 (KHTML, like Gecko) Version/17.5 Safari/605.1.15","Macintosh","Safari","17.5","OS X","10_15_7","https://app.prolific.com/","en-US,en;q=0.9","62e057323b4ee04dd8f508f6","679edb085803f58d6bbd31ca","679ee31196d08f1e19688ad4","","5906","","0","Intro Trial","",""
"","","","","","html-button-response","7","47242","0.0-4.3-0.3-0.3","19","1","2025-02-02 03:14:40","bc01a2b6f61d06f6604adb8657495020","69.250.72.32","Mozilla/5.0 (Macintosh; Intel Mac OS X 10_15_7) AppleWebKit/605.1.15 (KHTML, like Gecko) Version/17.5 Safari/605.1.15","Macintosh","Safari","17.5","OS X","10_15_7","https://app.prolific.com/","en-US,en;q=0.9","62e057323b4ee04dd8f508f6","679edb085803f58d6bbd31ca","679ee31196d08f1e19688ad4","","615","","1","Intro Trial","",""
"","","","","","html-button-response","8","48287","0.0-4.4-0.4-0.4","19","1","2025-02-02 03:14:40","bc01a2b6f61d06f6604adb8657495020","69.250.72.32","Mozilla/5.0 (Macintosh; Intel Mac OS X 10_15_7) AppleWebKit/605.1.15 (KHTML, like Gecko) Version/17.5 Safari/605.1.15","Macintosh","Safari","17.5","OS X","10_15_7","https://app.prolific.com/","en-US,en;q=0.9","62e057323b4ee04dd8f508f6","679edb085803f58d6bbd31ca","679ee31196d08f1e19688ad4","","1043","","1","Intro Trial","",""
"","","","","","html-button-response","9","48802","0.0-4.5-0.5-0.5","19","1","2025-02-02 03:14:40","bc01a2b6f61d06f6604adb8657495020","69.250.72.32","Mozilla/5.0 (Macintosh; Intel Mac OS X 10_15_7) AppleWebKit/605.1.15 (KHTML, like Gecko) Version/17.5 Safari/605.1.15","Macintosh","Safari","17.5","OS X","10_15_7","https://app.prolific.com/","en-US,en;q=0.9","62e057323b4ee04dd8f508f6","679edb085803f58d6bbd31ca","679ee31196d08f1e19688ad4","","512","","2","Intro Trial","",""
"","","","","","html-button-response","10","49357","0.0-4.6-0.6-0.6","19","1","2025-02-02 03:14:40","bc01a2b6f61d06f6604adb8657495020","69.250.72.32","Mozilla/5.0 (Macintosh; Intel Mac OS X 10_15_7) AppleWebKit/605.1.15 (KHTML, like Gecko) Version/17.5 Safari/605.1.15","Macintosh","Safari","17.5","OS X","10_15_7","https://app.prolific.com/","en-US,en;q=0.9","62e057323b4ee04dd8f508f6","679edb085803f58d6bbd31ca","679ee31196d08f1e19688ad4","","552","","2","Intro Trial","",""
"","","","","","html-button-response","11","49880","0.0-4.7-0.7-0.7","19","1","2025-02-02 03:14:40","bc01a2b6f61d06f6604adb8657495020","69.250.72.32","Mozilla/5.0 (Macintosh; Intel Mac OS X 10_15_7) AppleWebKit/605.1.15 (KHTML, like Gecko) Version/17.5 Safari/605.1.15","Macintosh","Safari","17.5","OS X","10_15_7","https://app.prolific.com/","en-US,en;q=0.9","62e057323b4ee04dd8f508f6","679edb085803f58d6bbd31ca","679ee31196d08f1e19688ad4","","520","","3","Intro Trial","",""
"","","","","","html-button-response","12","50668","0.0-4.8-0.8-0.8","19","1","2025-02-02 03:14:40","bc01a2b6f61d06f6604adb8657495020","69.250.72.32","Mozilla/5.0 (Macintosh; Intel Mac OS X 10_15_7) AppleWebKit/605.1.15 (KHTML, like Gecko) Version/17.5 Safari/605.1.15","Macintosh","Safari","17.5","OS X","10_15_7","https://app.prolific.com/","en-US,en;q=0.9","62e057323b4ee04dd8f508f6","679edb085803f58d6bbd31ca","679ee31196d08f1e19688ad4","","784","","3","Intro Trial","",""
"","","","","","html-button-response","13","51070","0.0-4.9-0.9-0.9","19","1","2025-02-02 03:14:40","bc01a2b6f61d06f6604adb8657495020","69.250.72.32","Mozilla/5.0 (Macintosh; Intel Mac OS X 10_15_7) AppleWebKit/605.1.15 (KHTML, like Gecko) Version/17.5 Safari/605.1.15","Macintosh","Safari","17.5","OS X","10_15_7","https://app.prolific.com/","en-US,en;q=0.9","62e057323b4ee04dd8f508f6","679edb085803f58d6bbd31ca","679ee31196d08f1e19688ad4","","400","","4","Intro Trial","",""
"","","","","","html-button-response","14","52437","0.0-4.10-0.10-0.10","19","1","2025-02-02 03:14:40","bc01a2b6f61d06f6604adb8657495020","69.250.72.32","Mozilla/5.0 (Macintosh; Intel Mac OS X 10_15_7) AppleWebKit/605.1.15 (KHTML, like Gecko) Version/17.5 Safari/605.1.15","Macintosh","Safari","17.5","OS X","10_15_7","https://app.prolific.com/","en-US,en;q=0.9","62e057323b4ee04dd8f508f6","679edb085803f58d6bbd31ca","679ee31196d08f1e19688ad4","","1364","","0","Intro Trial","",""
"","","","","","html-button-response","15","52881","0.0-4.11-0.11-0.11","19","1","2025-02-02 03:14:40","bc01a2b6f61d06f6604adb8657495020","69.250.72.32","Mozilla/5.0 (Macintosh; Intel Mac OS X 10_15_7) AppleWebKit/605.1.15 (KHTML, like Gecko) Version/17.5 Safari/605.1.15","Macintosh","Safari","17.5","OS X","10_15_7","https://app.prolific.com/","en-US,en;q=0.9","62e057323b4ee04dd8f508f6","679edb085803f58d6bbd31ca","679ee31196d08f1e19688ad4","","440","","1","Intro Trial","",""
"","","","","","html-button-response","16","53532","0.0-4.12-0.12-0.12","19","1","2025-02-02 03:14:40","bc01a2b6f61d06f6604adb8657495020","69.250.72.32","Mozilla/5.0 (Macintosh; Intel Mac OS X 10_15_7) AppleWebKit/605.1.15 (KHTML, like Gecko) Version/17.5 Safari/605.1.15","Macintosh","Safari","17.5","OS X","10_15_7","https://app.prolific.com/","en-US,en;q=0.9","62e057323b4ee04dd8f508f6","679edb085803f58d6bbd31ca","679ee31196d08f1e19688ad4","","649","","1","Intro Trial","",""
"","","","","","html-button-response","17","53990","0.0-4.13-0.13-0.13","19","1","2025-02-02 03:14:40","bc01a2b6f61d06f6604adb8657495020","69.250.72.32","Mozilla/5.0 (Macintosh; Intel Mac OS X 10_15_7) AppleWebKit/605.1.15 (KHTML, like Gecko) Version/17.5 Safari/605.1.15","Macintosh","Safari","17.5","OS X","10_15_7","https://app.prolific.com/","en-US,en;q=0.9","62e057323b4ee04dd8f508f6","679edb085803f58d6bbd31ca","679ee31196d08f1e19688ad4","","454","","2","Intro Trial","",""
"","","","","","html-button-response","18","54553","0.0-4.14-0.14-0.14","19","1","2025-02-02 03:14:40","bc01a2b6f61d06f6604adb8657495020","69.250.72.32","Mozilla/5.0 (Macintosh; Intel Mac OS X 10_15_7) AppleWebKit/605.1.15 (KHTML, like Gecko) Version/17.5 Safari/605.1.15","Macintosh","Safari","17.5","OS X","10_15_7","https://app.prolific.com/","en-US,en;q=0.9","62e057323b4ee04dd8f508f6","679edb085803f58d6bbd31ca","679ee31196d08f1e19688ad4","","559","","2","Intro Trial","",""
"","","","","","html-button-response","19","54962","0.0-4.15-0.15-0.15","19","1","2025-02-02 03:14:40","bc01a2b6f61d06f6604adb8657495020","69.250.72.32","Mozilla/5.0 (Macintosh; Intel Mac OS X 10_15_7) AppleWebKit/605.1.15 (KHTML, like Gecko) Version/17.5 Safari/605.1.15","Macintosh","Safari","17.5","OS X","10_15_7","https://app.prolific.com/","en-US,en;q=0.9","62e057323b4ee04dd8f508f6","679edb085803f58d6bbd31ca","679ee31196d08f1e19688ad4","","406","","3","Intro Trial","",""
"","","","","","html-button-response","20","55927","0.0-4.16-0.16-0.16","19","1","2025-02-02 03:14:40","bc01a2b6f61d06f6604adb8657495020","69.250.72.32","Mozilla/5.0 (Macintosh; Intel Mac OS X 10_15_7) AppleWebKit/605.1.15 (KHTML, like Gecko) Version/17.5 Safari/605.1.15","Macintosh","Safari","17.5","OS X","10_15_7","https://app.prolific.com/","en-US,en;q=0.9","62e057323b4ee04dd8f508f6","679edb085803f58d6bbd31ca","679ee31196d08f1e19688ad4","","962","","3","Intro Trial","",""
"","","","","","html-button-response","21","56362","0.0-4.17-0.17-0.17","19","1","2025-02-02 03:14:40","bc01a2b6f61d06f6604adb8657495020","69.250.72.32","Mozilla/5.0 (Macintosh; Intel Mac OS X 10_15_7) AppleWebKit/605.1.15 (KHTML, like Gecko) Version/17.5 Safari/605.1.15","Macintosh","Safari","17.5","OS X","10_15_7","https://app.prolific.com/","en-US,en;q=0.9","62e057323b4ee04dd8f508f6","679edb085803f58d6bbd31ca","679ee31196d08f1e19688ad4","","432","","4","Intro Trial","",""
"","","","","","html-button-response","22","57761","0.0-4.18-0.18-0.18","19","1","2025-02-02 03:14:40","bc01a2b6f61d06f6604adb8657495020","69.250.72.32","Mozilla/5.0 (Macintosh; Intel Mac OS X 10_15_7) AppleWebKit/605.1.15 (KHTML, like Gecko) Version/17.5 Safari/605.1.15","Macintosh","Safari","17.5","OS X","10_15_7","https://app.prolific.com/","en-US,en;q=0.9","62e057323b4ee04dd8f508f6","679edb085803f58d6bbd31ca","679ee31196d08f1e19688ad4","","1396","","0","Intro Trial","",""
"","","","","","html-button-response","23","58309","0.0-4.19-0.19-0.19","19","1","2025-02-02 03:14:40","bc01a2b6f61d06f6604adb8657495020","69.250.72.32","Mozilla/5.0 (Macintosh; Intel Mac OS X 10_15_7) AppleWebKit/605.1.15 (KHTML, like Gecko) Version/17.5 Safari/605.1.15","Macintosh","Safari","17.5","OS X","10_15_7","https://app.prolific.com/","en-US,en;q=0.9","62e057323b4ee04dd8f508f6","679edb085803f58d6bbd31ca","679ee31196d08f1e19688ad4","","544","","2","Intro Trial","",""
"","","","","","html-button-response","24","59193","0.0-4.20-0.20-0.20","19","1","2025-02-02 03:14:40","bc01a2b6f61d06f6604adb8657495020","69.250.72.32","Mozilla/5.0 (Macintosh; Intel Mac OS X 10_15_7) AppleWebKit/605.1.15 (KHTML, like Gecko) Version/17.5 Safari/605.1.15","Macintosh","Safari","17.5","OS X","10_15_7","https://app.prolific.com/","en-US,en;q=0.9","62e057323b4ee04dd8f508f6","679edb085803f58d6bbd31ca","679ee31196d08f1e19688ad4","","881","","2","Intro Trial","",""
"","","","","","html-button-response","25","59828","0.0-4.21-0.21-0.21","19","1","2025-02-02 03:14:40","bc01a2b6f61d06f6604adb8657495020","69.250.72.32","Mozilla/5.0 (Macintosh; Intel Mac OS X 10_15_7) AppleWebKit/605.1.15 (KHTML, like Gecko) Version/17.5 Safari/605.1.15","Macintosh","Safari","17.5","OS X","10_15_7","https://app.prolific.com/","en-US,en;q=0.9","62e057323b4ee04dd8f508f6","679edb085803f58d6bbd31ca","679ee31196d08f1e19688ad4","","631","","3","Intro Trial","",""
"","","","","","html-button-response","26","60455","0.0-4.22-0.22-0.22","19","1","2025-02-02 03:14:40","bc01a2b6f61d06f6604adb8657495020","69.250.72.32","Mozilla/5.0 (Macintosh; Intel Mac OS X 10_15_7) AppleWebKit/605.1.15 (KHTML, like Gecko) Version/17.5 Safari/605.1.15","Macintosh","Safari","17.5","OS X","10_15_7","https://app.prolific.com/","en-US,en;q=0.9","62e057323b4ee04dd8f508f6","679edb085803f58d6bbd31ca","679ee31196d08f1e19688ad4","","624","","2","Intro Trial","",""
"","","","","","html-button-response","27","61034","0.0-4.23-0.23-0.23","19","1","2025-02-02 03:14:40","bc01a2b6f61d06f6604adb8657495020","69.250.72.32","Mozilla/5.0 (Macintosh; Intel Mac OS X 10_15_7) AppleWebKit/605.1.15 (KHTML, like Gecko) Version/17.5 Safari/605.1.15","Macintosh","Safari","17.5","OS X","10_15_7","https://app.prolific.com/","en-US,en;q=0.9","62e057323b4ee04dd8f508f6","679edb085803f58d6bbd31ca","679ee31196d08f1e19688ad4","","577","","4","Intro Trial","",""
"","","","","","html-button-response","28","61726","0.0-4.24-0.24-0.24","19","1","2025-02-02 03:14:40","bc01a2b6f61d06f6604adb8657495020","69.250.72.32","Mozilla/5.0 (Macintosh; Intel Mac OS X 10_15_7) AppleWebKit/605.1.15 (KHTML, like Gecko) Version/17.5 Safari/605.1.15","Macintosh","Safari","17.5","OS X","10_15_7","https://app.prolific.com/","en-US,en;q=0.9","62e057323b4ee04dd8f508f6","679edb085803f58d6bbd31ca","679ee31196d08f1e19688ad4","","688","","0","Intro Trial","",""
"","","","","","html-button-response","29","62153","0.0-4.25-0.25-0.25","19","1","2025-02-02 03:14:40","bc01a2b6f61d06f6604adb8657495020","69.250.72.32","Mozilla/5.0 (Macintosh; Intel Mac OS X 10_15_7) AppleWebKit/605.1.15 (KHTML, like Gecko) Version/17.5 Safari/605.1.15","Macintosh","Safari","17.5","OS X","10_15_7","https://app.prolific.com/","en-US,en;q=0.9","62e057323b4ee04dd8f508f6","679edb085803f58d6bbd31ca","679ee31196d08f1e19688ad4","","424","","1","Intro Trial","",""
"","","","","","html-button-response","30","62812","0.0-4.26-0.26-0.26","19","1","2025-02-02 03:14:40","bc01a2b6f61d06f6604adb8657495020","69.250.72.32","Mozilla/5.0 (Macintosh; Intel Mac OS X 10_15_7) AppleWebKit/605.1.15 (KHTML, like Gecko) Version/17.5 Safari/605.1.15","Macintosh","Safari","17.5","OS X","10_15_7","https://app.prolific.com/","en-US,en;q=0.9","62e057323b4ee04dd8f508f6","679edb085803f58d6bbd31ca","679ee31196d08f1e19688ad4","","656","","1","Intro Trial","",""
"","","","","","html-button-response","31","63253","0.0-4.27-0.27-0.27","19","1","2025-02-02 03:14:40","bc01a2b6f61d06f6604adb8657495020","69.250.72.32","Mozilla/5.0 (Macintosh; Intel Mac OS X 10_15_7) AppleWebKit/605.1.15 (KHTML, like Gecko) Version/17.5 Safari/605.1.15","Macintosh","Safari","17.5","OS X","10_15_7","https://app.prolific.com/","en-US,en;q=0.9","62e057323b4ee04dd8f508f6","679edb085803f58d6bbd31ca","679ee31196d08f1e19688ad4","","438","","0","Intro Trial","",""
"","","","","","html-button-response","32","63993","0.0-4.28-0.28-0.28","19","1","2025-02-02 03:14:40","bc01a2b6f61d06f6604adb8657495020","69.250.72.32","Mozilla/5.0 (Macintosh; Intel Mac OS X 10_15_7) AppleWebKit/605.1.15 (KHTML, like Gecko) Version/17.5 Safari/605.1.15","Macintosh","Safari","17.5","OS X","10_15_7","https://app.prolific.com/","en-US,en;q=0.9","62e057323b4ee04dd8f508f6","679edb085803f58d6bbd31ca","679ee31196d08f1e19688ad4","","738","","1","Intro Trial","",""
"","","","","","html-button-response","33","64452","0.0-4.29-0.29-0.29","19","1","2025-02-02 03:14:40","bc01a2b6f61d06f6604adb8657495020","69.250.72.32","Mozilla/5.0 (Macintosh; Intel Mac OS X 10_15_7) AppleWebKit/605.1.15 (KHTML, like Gecko) Version/17.5 Safari/605.1.15","Macintosh","Safari","17.5","OS X","10_15_7","https://app.prolific.com/","en-US,en;q=0.9","62e057323b4ee04dd8f508f6","679edb085803f58d6bbd31ca","679ee31196d08f1e19688ad4","","455","","2","Intro Trial","",""
"","","","","","html-button-response","34","64958","0.0-4.30-0.30-0.30","19","1","2025-02-02 03:14:40","bc01a2b6f61d06f6604adb8657495020","69.250.72.32","Mozilla/5.0 (Macintosh; Intel Mac OS X 10_15_7) AppleWebKit/605.1.15 (KHTML, like Gecko) Version/17.5 Safari/605.1.15","Macintosh","Safari","17.5","OS X","10_15_7","https://app.prolific.com/","en-US,en;q=0.9","62e057323b4ee04dd8f508f6","679edb085803f58d6bbd31ca","679ee31196d08f1e19688ad4","","504","","1","Intro Trial","",""
"","","","","","html-button-response","35","65513","0.0-4.31-0.31-0.31","19","1","2025-02-02 03:14:40","bc01a2b6f61d06f6604adb8657495020","69.250.72.32","Mozilla/5.0 (Macintosh; Intel Mac OS X 10_15_7) AppleWebKit/605.1.15 (KHTML, like Gecko) Version/17.5 Safari/605.1.15","Macintosh","Safari","17.5","OS X","10_15_7","https://app.prolific.com/","en-US,en;q=0.9","62e057323b4ee04dd8f508f6","679edb085803f58d6bbd31ca","679ee31196d08f1e19688ad4","","551","","3","Intro Trial","",""
"","","","","","html-button-response","36","65988","0.0-4.32-0.32-0.32","19","1","2025-02-02 03:14:40","bc01a2b6f61d06f6604adb8657495020","69.250.72.32","Mozilla/5.0 (Macintosh; Intel Mac OS X 10_15_7) AppleWebKit/605.1.15 (KHTML, like Gecko) Version/17.5 Safari/605.1.15","Macintosh","Safari","17.5","OS X","10_15_7","https://app.prolific.com/","en-US,en;q=0.9","62e057323b4ee04dd8f508f6","679edb085803f58d6bbd31ca","679ee31196d08f1e19688ad4","","473","","2","Intro Trial","",""
"","","","","","html-button-response","37","66543","0.0-4.33-0.33-0.33","19","1","2025-02-02 03:14:40","bc01a2b6f61d06f6604adb8657495020","69.250.72.32","Mozilla/5.0 (Macintosh; Intel Mac OS X 10_15_7) AppleWebKit/605.1.15 (KHTML, like Gecko) Version/17.5 Safari/605.1.15","Macintosh","Safari","17.5","OS X","10_15_7","https://app.prolific.com/","en-US,en;q=0.9","62e057323b4ee04dd8f508f6","679edb085803f58d6bbd31ca","679ee31196d08f1e19688ad4","","552","","4","Intro Trial","",""
"","","","","","html-button-response","38","67162","0.0-4.34-0.34-0.34","19","1","2025-02-02 03:14:40","bc01a2b6f61d06f6604adb8657495020","69.250.72.32","Mozilla/5.0 (Macintosh; Intel Mac OS X 10_15_7) AppleWebKit/605.1.15 (KHTML, like Gecko) Version/17.5 Safari/605.1.15","Macintosh","Safari","17.5","OS X","10_15_7","https://app.prolific.com/","en-US,en;q=0.9","62e057323b4ee04dd8f508f6","679edb085803f58d6bbd31ca","679ee31196d08f1e19688ad4","","615","","4","Intro Trial","",""
"","","","","","html-button-response","39","67772","0.0-4.35-0.35-0.35","19","1","2025-02-02 03:14:40","bc01a2b6f61d06f6604adb8657495020","69.250.72.32","Mozilla/5.0 (Macintosh; Intel Mac OS X 10_15_7) AppleWebKit/605.1.15 (KHTML, like Gecko) Version/17.5 Safari/605.1.15","Macintosh","Safari","17.5","OS X","10_15_7","https://app.prolific.com/","en-US,en;q=0.9","62e057323b4ee04dd8f508f6","679edb085803f58d6bbd31ca","679ee31196d08f1e19688ad4","","607","","0","Intro Trial","",""
"","","","","","html-button-response","40","68552","0.0-4.36-0.36-0.36","19","1","2025-02-02 03:14:40","bc01a2b6f61d06f6604adb8657495020","69.250.72.32","Mozilla/5.0 (Macintosh; Intel Mac OS X 10_15_7) AppleWebKit/605.1.15 (KHTML, like Gecko) Version/17.5 Safari/605.1.15","Macintosh","Safari","17.5","OS X","10_15_7","https://app.prolific.com/","en-US,en;q=0.9","62e057323b4ee04dd8f508f6","679edb085803f58d6bbd31ca","679ee31196d08f1e19688ad4","","777","","4","Intro Trial","",""
"","","","","","html-button-response","41","69092","0.0-4.37-0.37-0.37","19","1","2025-02-02 03:14:40","bc01a2b6f61d06f6604adb8657495020","69.250.72.32","Mozilla/5.0 (Macintosh; Intel Mac OS X 10_15_7) AppleWebKit/605.1.15 (KHTML, like Gecko) Version/17.5 Safari/605.1.15","Macintosh","Safari","17.5","OS X","10_15_7","https://app.prolific.com/","en-US,en;q=0.9","62e057323b4ee04dd8f508f6","679edb085803f58d6bbd31ca","679ee31196d08f1e19688ad4","","536","","1","Intro Trial","",""
"","","","","","html-button-response","42","70064","0.0-4.38-0.38-0.38","19","1","2025-02-02 03:14:40","bc01a2b6f61d06f6604adb8657495020","69.250.72.32","Mozilla/5.0 (Macintosh; Intel Mac OS X 10_15_7) AppleWebKit/605.1.15 (KHTML, like Gecko) Version/17.5 Safari/605.1.15","Macintosh","Safari","17.5","OS X","10_15_7","https://app.prolific.com/","en-US,en;q=0.9","62e057323b4ee04dd8f508f6","679edb085803f58d6bbd31ca","679ee31196d08f1e19688ad4","","969","","4","Intro Trial","",""
"","","","","","html-button-response","43","70652","0.0-4.39-0.39-0.39","19","1","2025-02-02 03:14:40","bc01a2b6f61d06f6604adb8657495020","69.250.72.32","Mozilla/5.0 (Macintosh; Intel Mac OS X 10_15_7) AppleWebKit/605.1.15 (KHTML, like Gecko) Version/17.5 Safari/605.1.15","Macintosh","Safari","17.5","OS X","10_15_7","https://app.prolific.com/","en-US,en;q=0.9","62e057323b4ee04dd8f508f6","679edb085803f58d6bbd31ca","679ee31196d08f1e19688ad4","","584","","2","Intro Trial","",""
"","","","","","html-button-response","44","73210","0.0-4.40-0.40-0.40","19","1","2025-02-02 03:14:40","bc01a2b6f61d06f6604adb8657495020","69.250.72.32","Mozilla/5.0 (Macintosh; Intel Mac OS X 10_15_7) AppleWebKit/605.1.15 (KHTML, like Gecko) Version/17.5 Safari/605.1.15","Macintosh","Safari","17.5","OS X","10_15_7","https://app.prolific.com/","en-US,en;q=0.9","62e057323b4ee04dd8f508f6","679edb085803f58d6bbd31ca","679ee31196d08f1e19688ad4","","2554","","4","Intro Trial","",""
"","","","","","html-button-response","45","73894","0.0-4.41-0.41-0.41","19","1","2025-02-02 03:14:40","bc01a2b6f61d06f6604adb8657495020","69.250.72.32","Mozilla/5.0 (Macintosh; Intel Mac OS X 10_15_7) AppleWebKit/605.1.15 (KHTML, like Gecko) Version/17.5 Safari/605.1.15","Macintosh","Safari","17.5","OS X","10_15_7","https://app.prolific.com/","en-US,en;q=0.9","62e057323b4ee04dd8f508f6","679edb085803f58d6bbd31ca","679ee31196d08f1e19688ad4","","680","","3","Intro Trial","",""
"","","","","","html-button-response","46","74680","0.0-4.42-0.42-0.42","19","1","2025-02-02 03:14:40","bc01a2b6f61d06f6604adb8657495020","69.250.72.32","Mozilla/5.0 (Macintosh; Intel Mac OS X 10_15_7) AppleWebKit/605.1.15 (KHTML, like Gecko) Version/17.5 Safari/605.1.15","Macintosh","Safari","17.5","OS X","10_15_7","https://app.prolific.com/","en-US,en;q=0.9","62e057323b4ee04dd8f508f6","679edb085803f58d6bbd31ca","679ee31196d08f1e19688ad4","","784","","0","Intro Trial","",""
"","","","","","html-button-response","47","75123","0.0-4.43-0.43-0.43","19","1","2025-02-02 03:14:40","bc01a2b6f61d06f6604adb8657495020","69.250.72.32","Mozilla/5.0 (Macintosh; Intel Mac OS X 10_15_7) AppleWebKit/605.1.15 (KHTML, like Gecko) Version/17.5 Safari/605.1.15","Macintosh","Safari","17.5","OS X","10_15_7","https://app.prolific.com/","en-US,en;q=0.9","62e057323b4ee04dd8f508f6","679edb085803f58d6bbd31ca","679ee31196d08f1e19688ad4","","440","","1","Intro Trial","",""
"","","","","","html-button-response","48","75589","0.0-4.44-0.44-0.44","19","1","2025-02-02 03:14:40","bc01a2b6f61d06f6604adb8657495020","69.250.72.32","Mozilla/5.0 (Macintosh; Intel Mac OS X 10_15_7) AppleWebKit/605.1.15 (KHTML, like Gecko) Version/17.5 Safari/605.1.15","Macintosh","Safari","17.5","OS X","10_15_7","https://app.prolific.com/","en-US,en;q=0.9","62e057323b4ee04dd8f508f6","679edb085803f58d6bbd31ca","679ee31196d08f1e19688ad4","","462","","0","Intro Trial","",""
"","","","","","html-button-response","49","76119","0.0-4.45-0.45-0.45","19","1","2025-02-02 03:14:40","bc01a2b6f61d06f6604adb8657495020","69.250.72.32","Mozilla/5.0 (Macintosh; Intel Mac OS X 10_15_7) AppleWebKit/605.1.15 (KHTML, like Gecko) Version/17.5 Safari/605.1.15","Macintosh","Safari","17.5","OS X","10_15_7","https://app.prolific.com/","en-US,en;q=0.9","62e057323b4ee04dd8f508f6","679edb085803f58d6bbd31ca","679ee31196d08f1e19688ad4","","527","","2","Intro Trial","",""
"","","","","","html-button-response","50","76683","0.0-4.46-0.46-0.46","19","1","2025-02-02 03:14:40","bc01a2b6f61d06f6604adb8657495020","69.250.72.32","Mozilla/5.0 (Macintosh; Intel Mac OS X 10_15_7) AppleWebKit/605.1.15 (KHTML, like Gecko) Version/17.5 Safari/605.1.15","Macintosh","Safari","17.5","OS X","10_15_7","https://app.prolific.com/","en-US,en;q=0.9","62e057323b4ee04dd8f508f6","679edb085803f58d6bbd31ca","679ee31196d08f1e19688ad4","","560","","0","Intro Trial","",""
"","","","","","html-button-response","51","77245","0.0-4.47-0.47-0.47","19","1","2025-02-02 03:14:40","bc01a2b6f61d06f6604adb8657495020","69.250.72.32","Mozilla/5.0 (Macintosh; Intel Mac OS X 10_15_7) AppleWebKit/605.1.15 (KHTML, like Gecko) Version/17.5 Safari/605.1.15","Macintosh","Safari","17.5","OS X","10_15_7","https://app.prolific.com/","en-US,en;q=0.9","62e057323b4ee04dd8f508f6","679edb085803f58d6bbd31ca","679ee31196d08f1e19688ad4","","559","","3","Intro Trial","",""
"","","","","","html-button-response","52","77841","0.0-4.48-0.48-0.48","19","1","2025-02-02 03:14:40","bc01a2b6f61d06f6604adb8657495020","69.250.72.32","Mozilla/5.0 (Macintosh; Intel Mac OS X 10_15_7) AppleWebKit/605.1.15 (KHTML, like Gecko) Version/17.5 Safari/605.1.15","Macintosh","Safari","17.5","OS X","10_15_7","https://app.prolific.com/","en-US,en;q=0.9","62e057323b4ee04dd8f508f6","679edb085803f58d6bbd31ca","679ee31196d08f1e19688ad4","","592","","0","Intro Trial","",""
"","","","","","html-button-response","53","78565","0.0-4.49-0.49-0.49","19","1","2025-02-02 03:14:40","bc01a2b6f61d06f6604adb8657495020","69.250.72.32","Mozilla/5.0 (Macintosh; Intel Mac OS X 10_15_7) AppleWebKit/605.1.15 (KHTML, like Gecko) Version/17.5 Safari/605.1.15","Macintosh","Safari","17.5","OS X","10_15_7","https://app.prolific.com/","en-US,en;q=0.9","62e057323b4ee04dd8f508f6","679edb085803f58d6bbd31ca","679ee31196d08f1e19688ad4","","720","","4","Intro Trial","",""
"","","","","","html-button-response","54","79128","0.0-4.50-0.50-0.50","19","1","2025-02-02 03:14:40","bc01a2b6f61d06f6604adb8657495020","69.250.72.32","Mozilla/5.0 (Macintosh; Intel Mac OS X 10_15_7) AppleWebKit/605.1.15 (KHTML, like Gecko) Version/17.5 Safari/605.1.15","Macintosh","Safari","17.5","OS X","10_15_7","https://app.prolific.com/","en-US,en;q=0.9","62e057323b4ee04dd8f508f6","679edb085803f58d6bbd31ca","679ee31196d08f1e19688ad4","","560","","1","Intro Trial","",""
"","","","","","html-button-response","55","79570","0.0-4.51-0.51-0.51","19","1","2025-02-02 03:14:40","bc01a2b6f61d06f6604adb8657495020","69.250.72.32","Mozilla/5.0 (Macintosh; Intel Mac OS X 10_15_7) AppleWebKit/605.1.15 (KHTML, like Gecko) Version/17.5 Safari/605.1.15","Macintosh","Safari","17.5","OS X","10_15_7","https://app.prolific.com/","en-US,en;q=0.9","62e057323b4ee04dd8f508f6","679edb085803f58d6bbd31ca","679ee31196d08f1e19688ad4","","439","","0","Intro Trial","",""
"","","","","","html-button-response","56","80101","0.0-4.52-0.52-0.52","19","1","2025-02-02 03:14:40","bc01a2b6f61d06f6604adb8657495020","69.250.72.32","Mozilla/5.0 (Macintosh; Intel Mac OS X 10_15_7) AppleWebKit/605.1.15 (KHTML, like Gecko) Version/17.5 Safari/605.1.15","Macintosh","Safari","17.5","OS X","10_15_7","https://app.prolific.com/","en-US,en;q=0.9","62e057323b4ee04dd8f508f6","679edb085803f58d6bbd31ca","679ee31196d08f1e19688ad4","","528","","1","Intro Trial","",""
"","","","","","html-button-response","57","80519","0.0-4.53-0.53-0.53","19","1","2025-02-02 03:14:40","bc01a2b6f61d06f6604adb8657495020","69.250.72.32","Mozilla/5.0 (Macintosh; Intel Mac OS X 10_15_7) AppleWebKit/605.1.15 (KHTML, like Gecko) Version/17.5 Safari/605.1.15","Macintosh","Safari","17.5","OS X","10_15_7","https://app.prolific.com/","en-US,en;q=0.9","62e057323b4ee04dd8f508f6","679edb085803f58d6bbd31ca","679ee31196d08f1e19688ad4","","415","","2","Intro Trial","",""
"","","","","","html-button-response","58","80954","0.0-4.54-0.54-0.54","19","1","2025-02-02 03:14:40","bc01a2b6f61d06f6604adb8657495020","69.250.72.32","Mozilla/5.0 (Macintosh; Intel Mac OS X 10_15_7) AppleWebKit/605.1.15 (KHTML, like Gecko) Version/17.5 Safari/605.1.15","Macintosh","Safari","17.5","OS X","10_15_7","https://app.prolific.com/","en-US,en;q=0.9","62e057323b4ee04dd8f508f6","679edb085803f58d6bbd31ca","679ee31196d08f1e19688ad4","","428","","1","Intro Trial","",""
"","","","","","html-button-response","59","81396","0.0-4.55-0.55-0.55","19","1","2025-02-02 03:14:40","bc01a2b6f61d06f6604adb8657495020","69.250.72.32","Mozilla/5.0 (Macintosh; Intel Mac OS X 10_15_7) AppleWebKit/605.1.15 (KHTML, like Gecko) Version/17.5 Safari/605.1.15","Macintosh","Safari","17.5","OS X","10_15_7","https://app.prolific.com/","en-US,en;q=0.9","62e057323b4ee04dd8f508f6","679edb085803f58d6bbd31ca","679ee31196d08f1e19688ad4","","437","","3","Intro Trial","",""
"","","","","","html-button-response","60","81926","0.0-4.56-0.56-0.56","19","1","2025-02-02 03:14:40","bc01a2b6f61d06f6604adb8657495020","69.250.72.32","Mozilla/5.0 (Macintosh; Intel Mac OS X 10_15_7) AppleWebKit/605.1.15 (KHTML, like Gecko) Version/17.5 Safari/605.1.15","Macintosh","Safari","17.5","OS X","10_15_7","https://app.prolific.com/","en-US,en;q=0.9","62e057323b4ee04dd8f508f6","679edb085803f58d6bbd31ca","679ee31196d08f1e19688ad4","","527","","1","Intro Trial","",""
"","","","","","html-button-response","61","82507","0.0-4.57-0.57-0.57","19","1","2025-02-02 03:14:40","bc01a2b6f61d06f6604adb8657495020","69.250.72.32","Mozilla/5.0 (Macintosh; Intel Mac OS X 10_15_7) AppleWebKit/605.1.15 (KHTML, like Gecko) Version/17.5 Safari/605.1.15","Macintosh","Safari","17.5","OS X","10_15_7","https://app.prolific.com/","en-US,en;q=0.9","62e057323b4ee04dd8f508f6","679edb085803f58d6bbd31ca","679ee31196d08f1e19688ad4","","577","","4","Intro Trial","",""
"","","","","","html-button-response","62","83182","0.0-4.58-0.58-0.58","19","1","2025-02-02 03:14:40","bc01a2b6f61d06f6604adb8657495020","69.250.72.32","Mozilla/5.0 (Macintosh; Intel Mac OS X 10_15_7) AppleWebKit/605.1.15 (KHTML, like Gecko) Version/17.5 Safari/605.1.15","Macintosh","Safari","17.5","OS X","10_15_7","https://app.prolific.com/","en-US,en;q=0.9","62e057323b4ee04dd8f508f6","679edb085803f58d6bbd31ca","679ee31196d08f1e19688ad4","","672","","1","Intro Trial","",""
"","","","","","html-button-response","63","83728","0.0-4.59-0.59-0.59","19","1","2025-02-02 03:14:40","bc01a2b6f61d06f6604adb8657495020","69.250.72.32","Mozilla/5.0 (Macintosh; Intel Mac OS X 10_15_7) AppleWebKit/605.1.15 (KHTML, like Gecko) Version/17.5 Safari/605.1.15","Macintosh","Safari","17.5","OS X","10_15_7","https://app.prolific.com/","en-US,en;q=0.9","62e057323b4ee04dd8f508f6","679edb085803f58d6bbd31ca","679ee31196d08f1e19688ad4","","542","","2","Intro Trial","",""
"","","","","","html-button-response","64","84219","0.0-4.60-0.60-0.60","19","1","2025-02-02 03:14:40","bc01a2b6f61d06f6604adb8657495020","69.250.72.32","Mozilla/5.0 (Macintosh; Intel Mac OS X 10_15_7) AppleWebKit/605.1.15 (KHTML, like Gecko) Version/17.5 Safari/605.1.15","Macintosh","Safari","17.5","OS X","10_15_7","https://app.prolific.com/","en-US,en;q=0.9","62e057323b4ee04dd8f508f6","679edb085803f58d6bbd31ca","679ee31196d08f1e19688ad4","","487","","3","Intro Trial","",""
"","","","","","html-button-response","65","84757","0.0-4.61-0.61-0.61","19","1","2025-02-02 03:14:40","bc01a2b6f61d06f6604adb8657495020","69.250.72.32","Mozilla/5.0 (Macintosh; Intel Mac OS X 10_15_7) AppleWebKit/605.1.15 (KHTML, like Gecko) Version/17.5 Safari/605.1.15","Macintosh","Safari","17.5","OS X","10_15_7","https://app.prolific.com/","en-US,en;q=0.9","62e057323b4ee04dd8f508f6","679edb085803f58d6bbd31ca","679ee31196d08f1e19688ad4","","534","","2","Intro Trial","",""
"","","","","","html-button-response","66","85296","0.0-4.62-0.62-0.62","19","1","2025-02-02 03:14:40","bc01a2b6f61d06f6604adb8657495020","69.250.72.32","Mozilla/5.0 (Macintosh; Intel Mac OS X 10_15_7) AppleWebKit/605.1.15 (KHTML, like Gecko) Version/17.5 Safari/605.1.15","Macintosh","Safari","17.5","OS X","10_15_7","https://app.prolific.com/","en-US,en;q=0.9","62e057323b4ee04dd8f508f6","679edb085803f58d6bbd31ca","679ee31196d08f1e19688ad4","","535","","4","Intro Trial","",""
"","","","","","html-button-response","67","85899","0.0-4.63-0.63-0.63","19","1","2025-02-02 03:14:40","bc01a2b6f61d06f6604adb8657495020","69.250.72.32","Mozilla/5.0 (Macintosh; Intel Mac OS X 10_15_7) AppleWebKit/605.1.15 (KHTML, like Gecko) Version/17.5 Safari/605.1.15","Macintosh","Safari","17.5","OS X","10_15_7","https://app.prolific.com/","en-US,en;q=0.9","62e057323b4ee04dd8f508f6","679edb085803f58d6bbd31ca","679ee31196d08f1e19688ad4","","599","","3","Intro Trial","",""
"","","","","","html-button-response","68","86284","0.0-4.64-0.64-0.64","19","1","2025-02-02 03:14:40","bc01a2b6f61d06f6604adb8657495020","69.250.72.32","Mozilla/5.0 (Macintosh; Intel Mac OS X 10_15_7) AppleWebKit/605.1.15 (KHTML, like Gecko) Version/17.5 Safari/605.1.15","Macintosh","Safari","17.5","OS X","10_15_7","https://app.prolific.com/","en-US,en;q=0.9","62e057323b4ee04dd8f508f6","679edb085803f58d6bbd31ca","679ee31196d08f1e19688ad4","","382","","4","Intro Trial","",""
"","","","","","html-button-response","69","86717","0.0-4.65-0.65-0.65","19","1","2025-02-02 03:14:40","bc01a2b6f61d06f6604adb8657495020","69.250.72.32","Mozilla/5.0 (Macintosh; Intel Mac OS X 10_15_7) AppleWebKit/605.1.15 (KHTML, like Gecko) Version/17.5 Safari/605.1.15","Macintosh","Safari","17.5","OS X","10_15_7","https://app.prolific.com/","en-US,en;q=0.9","62e057323b4ee04dd8f508f6","679edb085803f58d6bbd31ca","679ee31196d08f1e19688ad4","","430","","4","Intro Trial","",""
"","","","","","html-button-response","70","87749","0.0-4.66-0.66-0.66","19","1","2025-02-02 03:14:40","bc01a2b6f61d06f6604adb8657495020","69.250.72.32","Mozilla/5.0 (Macintosh; Intel Mac OS X 10_15_7) AppleWebKit/605.1.15 (KHTML, like Gecko) Version/17.5 Safari/605.1.15","Macintosh","Safari","17.5","OS X","10_15_7","https://app.prolific.com/","en-US,en;q=0.9","62e057323b4ee04dd8f508f6","679edb085803f58d6bbd31ca","679ee31196d08f1e19688ad4","","1030","","0","Intro Trial","",""
"","","","","","html-button-response","71","88182","0.0-4.67-0.67-0.67","19","1","2025-02-02 03:14:40","bc01a2b6f61d06f6604adb8657495020","69.250.72.32","Mozilla/5.0 (Macintosh; Intel Mac OS X 10_15_7) AppleWebKit/605.1.15 (KHTML, like Gecko) Version/17.5 Safari/605.1.15","Macintosh","Safari","17.5","OS X","10_15_7","https://app.prolific.com/","en-US,en;q=0.9","62e057323b4ee04dd8f508f6","679edb085803f58d6bbd31ca","679ee31196d08f1e19688ad4","","429","","1","Intro Trial","",""
"","","","","","html-button-response","72","88592","0.0-4.68-0.68-0.68","19","1","2025-02-02 03:14:40","bc01a2b6f61d06f6604adb8657495020","69.250.72.32","Mozilla/5.0 (Macintosh; Intel Mac OS X 10_15_7) AppleWebKit/605.1.15 (KHTML, like Gecko) Version/17.5 Safari/605.1.15","Macintosh","Safari","17.5","OS X","10_15_7","https://app.prolific.com/","en-US,en;q=0.9","62e057323b4ee04dd8f508f6","679edb085803f58d6bbd31ca","679ee31196d08f1e19688ad4","","407","","0","Intro Trial","",""
"","","","","","html-button-response","73","89124","0.0-4.69-0.69-0.69","19","1","2025-02-02 03:14:40","bc01a2b6f61d06f6604adb8657495020","69.250.72.32","Mozilla/5.0 (Macintosh; Intel Mac OS X 10_15_7) AppleWebKit/605.1.15 (KHTML, like Gecko) Version/17.5 Safari/605.1.15","Macintosh","Safari","17.5","OS X","10_15_7","https://app.prolific.com/","en-US,en;q=0.9","62e057323b4ee04dd8f508f6","679edb085803f58d6bbd31ca","679ee31196d08f1e19688ad4","","528","","2","Intro Trial","",""
"","","","","","html-button-response","74","89646","0.0-4.70-0.70-0.70","19","1","2025-02-02 03:14:40","bc01a2b6f61d06f6604adb8657495020","69.250.72.32","Mozilla/5.0 (Macintosh; Intel Mac OS X 10_15_7) AppleWebKit/605.1.15 (KHTML, like Gecko) Version/17.5 Safari/605.1.15","Macintosh","Safari","17.5","OS X","10_15_7","https://app.prolific.com/","en-US,en;q=0.9","62e057323b4ee04dd8f508f6","679edb085803f58d6bbd31ca","679ee31196d08f1e19688ad4","","519","","0","Intro Trial","",""
"","","","","","html-button-response","75","90161","0.0-4.71-0.71-0.71","19","1","2025-02-02 03:14:40","bc01a2b6f61d06f6604adb8657495020","69.250.72.32","Mozilla/5.0 (Macintosh; Intel Mac OS X 10_15_7) AppleWebKit/605.1.15 (KHTML, like Gecko) Version/17.5 Safari/605.1.15","Macintosh","Safari","17.5","OS X","10_15_7","https://app.prolific.com/","en-US,en;q=0.9","62e057323b4ee04dd8f508f6","679edb085803f58d6bbd31ca","679ee31196d08f1e19688ad4","","511","","2","Intro Trial","",""
"","","","","","html-button-response","76","90612","0.0-4.72-0.72-0.72","19","1","2025-02-02 03:14:40","bc01a2b6f61d06f6604adb8657495020","69.250.72.32","Mozilla/5.0 (Macintosh; Intel Mac OS X 10_15_7) AppleWebKit/605.1.15 (KHTML, like Gecko) Version/17.5 Safari/605.1.15","Macintosh","Safari","17.5","OS X","10_15_7","https://app.prolific.com/","en-US,en;q=0.9","62e057323b4ee04dd8f508f6","679edb085803f58d6bbd31ca","679ee31196d08f1e19688ad4","","446","","1","Intro Trial","",""
"","","","","","html-button-response","77","91142","0.0-4.73-0.73-0.73","19","1","2025-02-02 03:14:40","bc01a2b6f61d06f6604adb8657495020","69.250.72.32","Mozilla/5.0 (Macintosh; Intel Mac OS X 10_15_7) AppleWebKit/605.1.15 (KHTML, like Gecko) Version/17.5 Safari/605.1.15","Macintosh","Safari","17.5","OS X","10_15_7","https://app.prolific.com/","en-US,en;q=0.9","62e057323b4ee04dd8f508f6","679edb085803f58d6bbd31ca","679ee31196d08f1e19688ad4","","526","","3","Intro Trial","",""
"","","","","","html-button-response","78","91705","0.0-4.74-0.74-0.74","19","1","2025-02-02 03:14:40","bc01a2b6f61d06f6604adb8657495020","69.250.72.32","Mozilla/5.0 (Macintosh; Intel Mac OS X 10_15_7) AppleWebKit/605.1.15 (KHTML, like Gecko) Version/17.5 Safari/605.1.15","Macintosh","Safari","17.5","OS X","10_15_7","https://app.prolific.com/","en-US,en;q=0.9","62e057323b4ee04dd8f508f6","679edb085803f58d6bbd31ca","679ee31196d08f1e19688ad4","","560","","0","Intro Trial","",""
"","","","","","html-button-response","79","92340","0.0-4.75-0.75-0.75","19","1","2025-02-02 03:14:40","bc01a2b6f61d06f6604adb8657495020","69.250.72.32","Mozilla/5.0 (Macintosh; Intel Mac OS X 10_15_7) AppleWebKit/605.1.15 (KHTML, like Gecko) Version/17.5 Safari/605.1.15","Macintosh","Safari","17.5","OS X","10_15_7","https://app.prolific.com/","en-US,en;q=0.9","62e057323b4ee04dd8f508f6","679edb085803f58d6bbd31ca","679ee31196d08f1e19688ad4","","630","","3","Intro Trial","",""
"","","","","","html-button-response","80","92775","0.0-4.76-0.76-0.76","19","1","2025-02-02 03:14:40","bc01a2b6f61d06f6604adb8657495020","69.250.72.32","Mozilla/5.0 (Macintosh; Intel Mac OS X 10_15_7) AppleWebKit/605.1.15 (KHTML, like Gecko) Version/17.5 Safari/605.1.15","Macintosh","Safari","17.5","OS X","10_15_7","https://app.prolific.com/","en-US,en;q=0.9","62e057323b4ee04dd8f508f6","679edb085803f58d6bbd31ca","679ee31196d08f1e19688ad4","","431","","1","Intro Trial","",""
"","","","","","html-button-response","81","93571","0.0-4.77-0.77-0.77","19","1","2025-02-02 03:14:40","bc01a2b6f61d06f6604adb8657495020","69.250.72.32","Mozilla/5.0 (Macintosh; Intel Mac OS X 10_15_7) AppleWebKit/605.1.15 (KHTML, like Gecko) Version/17.5 Safari/605.1.15","Macintosh","Safari","17.5","OS X","10_15_7","https://app.prolific.com/","en-US,en;q=0.9","62e057323b4ee04dd8f508f6","679edb085803f58d6bbd31ca","679ee31196d08f1e19688ad4","","792","","5","Intro Trial","",""
"","","","","","html-keyboard-response","82","102284","0.0-5.0","19","1","2025-02-02 03:14:40","bc01a2b6f61d06f6604adb8657495020","69.250.72.32","Mozilla/5.0 (Macintosh; Intel Mac OS X 10_15_7) AppleWebKit/605.1.15 (KHTML, like Gecko) Version/17.5 Safari/605.1.15","Macintosh","Safari","17.5","OS X","10_15_7","https://app.prolific.com/","en-US,en;q=0.9","62e057323b4ee04dd8f508f6","679edb085803f58d6bbd31ca","679ee31196d08f1e19688ad4","","8708","[""You sorted correctly by using the balance 37 times. <br><br> <img src='G_5.jpg' height='90'><img src='G_2.jpg' height='90'><img src='G_3.jpg' height='90'><img src='G_1.jpg' height='90'><img src='G_4.jpg' height='90'><br><br> Your final order is 1,2,3,4,5<br><br><br>Omgne Sort in this game will allow you to sort correctly by using the balance 8 times. Press Enter to learn it!""]","enter","","",""
"","","","","","html-keyboard-response","83","107518","0.0-6.0","19","1","2025-02-02 03:14:40","bc01a2b6f61d06f6604adb8657495020","69.250.72.32","Mozilla/5.0 (Macintosh; Intel Mac OS X 10_15_7) AppleWebKit/605.1.15 (KHTML, like Gecko) Version/17.5 Safari/605.1.15","Macintosh","Safari","17.5","OS X","10_15_7","https://app.prolific.com/","en-US,en;q=0.9","62e057323b4ee04dd8f508f6","679edb085803f58d6bbd31ca","679ee31196d08f1e19688ad4","","5230","<p>Welcome to the learning phase! <br><br> You will learn by six examples. The following learning trials will not be used to calculate your performance. <br><br> Press Enter to continue.<p/>","enter","","",""
"","","","","","html-keyboard-response","84","112262","0.0-7.0","19","1","2025-02-02 03:14:40","bc01a2b6f61d06f6604adb8657495020","69.250.72.32","Mozilla/5.0 (Macintosh; Intel Mac OS X 10_15_7) AppleWebKit/605.1.15 (KHTML, like Gecko) Version/17.5 Safari/605.1.15","Macintosh","Safari","17.5","OS X","10_15_7","https://app.prolific.com/","en-US,en;q=0.9","62e057323b4ee04dd8f508f6","679edb085803f58d6bbd31ca","679ee31196d08f1e19688ad4","","4741","[""Example 1<br><br>You will watch Omnge Sort in action. Try to identify any patterns in the comparisons made by this method. <br><br>Press Enter to continue.""]","enter","","",""
"","","","","","html-keyboard-response","85","112768","0.0-8.0","19","1","2025-02-02 03:14:40","bc01a2b6f61d06f6604adb8657495020","69.250.72.32","Mozilla/5.0 (Macintosh; Intel Mac OS X 10_15_7) AppleWebKit/605.1.15 (KHTML, like Gecko) Version/17.5 Safari/605.1.15","Macintosh","Safari","17.5","OS X","10_15_7","https://app.prolific.com/","en-US,en;q=0.9","62e057323b4ee04dd8f508f6","679edb085803f58d6bbd31ca","679ee31196d08f1e19688ad4","","null","<img id='selected' src='G_9.jpg' height='90'> <img src='G_5.jpg' height='90'> <img src='G_7.jpg' height='90'> <img src='G_3.jpg' height='90'> <img src='G_1.jpg' height='90'>","null","Animation0","",""
"","","","","","html-keyboard-response","86","113275","0.0-9.0","19","1","2025-02-02 03:14:40","bc01a2b6f61d06f6604adb8657495020","69.250.72.32","Mozilla/5.0 (Macintosh; Intel Mac OS X 10_15_7) AppleWebKit/605.1.15 (KHTML, like Gecko) Version/17.5 Safari/605.1.15","Macintosh","Safari","17.5","OS X","10_15_7","https://app.prolific.com/","en-US,en;q=0.9","62e057323b4ee04dd8f508f6","679edb085803f58d6bbd31ca","679ee31196d08f1e19688ad4","","null","<img id='selected' src='G_9.jpg' height='90'> <img id='selected' src='G_5.jpg' height='90'> <img src='G_7.jpg' height='90'> <img src='G_3.jpg' height='90'> <img src='G_1.jpg' height='90'>","null","Animation0","",""
"","","","","","html-keyboard-response","87","113781","0.0-10.0","19","1","2025-02-02 03:14:40","bc01a2b6f61d06f6604adb8657495020","69.250.72.32","Mozilla/5.0 (Macintosh; Intel Mac OS X 10_15_7) AppleWebKit/605.1.15 (KHTML, like Gecko) Version/17.5 Safari/605.1.15","Macintosh","Safari","17.5","OS X","10_15_7","https://app.prolific.com/","en-US,en;q=0.9","62e057323b4ee04dd8f508f6","679edb085803f58d6bbd31ca","679ee31196d08f1e19688ad4","","null","<img id='swapped' src='G_5.jpg' height='90'> <img id='swapped' src='G_9.jpg' height='90'> <img src='G_7.jpg' height='90'> <img src='G_3.jpg' height='90'> <img src='G_1.jpg' height='90'>","null","Animation0","",""
"","","","","","html-keyboard-response","88","114086","0.0-11.0","19","1","2025-02-02 03:14:40","bc01a2b6f61d06f6604adb8657495020","69.250.72.32","Mozilla/5.0 (Macintosh; Intel Mac OS X 10_15_7) AppleWebKit/605.1.15 (KHTML, like Gecko) Version/17.5 Safari/605.1.15","Macintosh","Safari","17.5","OS X","10_15_7","https://app.prolific.com/","en-US,en;q=0.9","62e057323b4ee04dd8f508f6","679edb085803f58d6bbd31ca","679ee31196d08f1e19688ad4","","null","<img  src='G_5.jpg' height='90'> <img  src='G_9.jpg' height='90'> <img src='G_7.jpg' height='90'> <img src='G_3.jpg' height='90'> <img src='G_1.jpg' height='90'>","null","Animation0","",""
"","","","","","html-keyboard-response","89","114592","0.0-12.0","19","1","2025-02-02 03:14:40","bc01a2b6f61d06f6604adb8657495020","69.250.72.32","Mozilla/5.0 (Macintosh; Intel Mac OS X 10_15_7) AppleWebKit/605.1.15 (KHTML, like Gecko) Version/17.5 Safari/605.1.15","Macintosh","Safari","17.5","OS X","10_15_7","https://app.prolific.com/","en-US,en;q=0.9","62e057323b4ee04dd8f508f6","679edb085803f58d6bbd31ca","679ee31196d08f1e19688ad4","","null","<img  src='G_5.jpg' height='90'> <img id='selected'  src='G_9.jpg' height='90'> <img src='G_7.jpg' height='90'> <img src='G_3.jpg' height='90'> <img src='G_1.jpg' height='90'>","null","Animation0","",""
"","","","","","html-keyboard-response","90","115098","0.0-13.0","19","1","2025-02-02 03:14:40","bc01a2b6f61d06f6604adb8657495020","69.250.72.32","Mozilla/5.0 (Macintosh; Intel Mac OS X 10_15_7) AppleWebKit/605.1.15 (KHTML, like Gecko) Version/17.5 Safari/605.1.15","Macintosh","Safari","17.5","OS X","10_15_7","https://app.prolific.com/","en-US,en;q=0.9","62e057323b4ee04dd8f508f6","679edb085803f58d6bbd31ca","679ee31196d08f1e19688ad4","","null","<img  src='G_5.jpg' height='90'> <img id='selected'  src='G_9.jpg' height='90'> <img id='selected' src='G_7.jpg' height='90'> <img src='G_3.jpg' height='90'> <img src='G_1.jpg' height='90'>","null","Animation0","",""
"","","","","","html-keyboard-response","91","115605","0.0-14.0","19","1","2025-02-02 03:14:40","bc01a2b6f61d06f6604adb8657495020","69.250.72.32","Mozilla/5.0 (Macintosh; Intel Mac OS X 10_15_7) AppleWebKit/605.1.15 (KHTML, like Gecko) Version/17.5 Safari/605.1.15","Macintosh","Safari","17.5","OS X","10_15_7","https://app.prolific.com/","en-US,en;q=0.9","62e057323b4ee04dd8f508f6","679edb085803f58d6bbd31ca","679ee31196d08f1e19688ad4","","null","<img  src='G_5.jpg' height='90'> <img id='selected'  src='G_9.jpg' height='90'> <img id='selected' src='G_7.jpg' height='90'> <img src='G_3.jpg' height='90'> <img src='G_1.jpg' height='90'>","null","Animation0","",""
"","","","","","html-keyboard-response","92","115911","0.0-15.0","19","1","2025-02-02 03:14:40","bc01a2b6f61d06f6604adb8657495020","69.250.72.32","Mozilla/5.0 (Macintosh; Intel Mac OS X 10_15_7) AppleWebKit/605.1.15 (KHTML, like Gecko) Version/17.5 Safari/605.1.15","Macintosh","Safari","17.5","OS X","10_15_7","https://app.prolific.com/","en-US,en;q=0.9","62e057323b4ee04dd8f508f6","679edb085803f58d6bbd31ca","679ee31196d08f1e19688ad4","","null","<img  src='G_5.jpg' height='90'> <img   src='G_9.jpg' height='90'> <img  src='G_7.jpg' height='90'> <img src='G_3.jpg' height='90'> <img src='G_1.jpg' height='90'>","null","Animation0","",""
"","","","","","html-keyboard-response","93","116416","0.0-16.0","19","1","2025-02-02 03:14:40","bc01a2b6f61d06f6604adb8657495020","69.250.72.32","Mozilla/5.0 (Macintosh; Intel Mac OS X 10_15_7) AppleWebKit/605.1.15 (KHTML, like Gecko) Version/17.5 Safari/605.1.15","Macintosh","Safari","17.5","OS X","10_15_7","https://app.prolific.com/","en-US,en;q=0.9","62e057323b4ee04dd8f508f6","679edb085803f58d6bbd31ca","679ee31196d08f1e19688ad4","","null","<img  src='G_5.jpg' height='90'> <img   src='G_9.jpg' height='90'> <img id='selected'  src='G_7.jpg' height='90'> <img src='G_3.jpg' height='90'> <img src='G_1.jpg' height='90'>","null","Animation0","",""
"","","","","","html-keyboard-response","94","116922","0.0-17.0","19","1","2025-02-02 03:14:40","bc01a2b6f61d06f6604adb8657495020","69.250.72.32","Mozilla/5.0 (Macintosh; Intel Mac OS X 10_15_7) AppleWebKit/605.1.15 (KHTML, like Gecko) Version/17.5 Safari/605.1.15","Macintosh","Safari","17.5","OS X","10_15_7","https://app.prolific.com/","en-US,en;q=0.9","62e057323b4ee04dd8f508f6","679edb085803f58d6bbd31ca","679ee31196d08f1e19688ad4","","null","<img  src='G_5.jpg' height='90'> <img   src='G_9.jpg' height='90'> <img id='selected'  src='G_7.jpg' height='90'> <img id='selected' src='G_3.jpg' height='90'> <img src='G_1.jpg' height='90'>","null","Animation0","",""
"","","","","","html-keyboard-response","95","117427","0.0-18.0","19","1","2025-02-02 03:14:40","bc01a2b6f61d06f6604adb8657495020","69.250.72.32","Mozilla/5.0 (Macintosh; Intel Mac OS X 10_15_7) AppleWebKit/605.1.15 (KHTML, like Gecko) Version/17.5 Safari/605.1.15","Macintosh","Safari","17.5","OS X","10_15_7","https://app.prolific.com/","en-US,en;q=0.9","62e057323b4ee04dd8f508f6","679edb085803f58d6bbd31ca","679ee31196d08f1e19688ad4","","null","<img  src='G_5.jpg' height='90'> <img   src='G_9.jpg' height='90'> <img id='selected'  src='G_7.jpg' height='90'> <img id='selected' src='G_3.jpg' height='90'> <img src='G_1.jpg' height='90'>","null","Animation0","",""
"","","","","","html-keyboard-response","96","117733","0.0-19.0","19","1","2025-02-02 03:14:40","bc01a2b6f61d06f6604adb8657495020","69.250.72.32","Mozilla/5.0 (Macintosh; Intel Mac OS X 10_15_7) AppleWebKit/605.1.15 (KHTML, like Gecko) Version/17.5 Safari/605.1.15","Macintosh","Safari","17.5","OS X","10_15_7","https://app.prolific.com/","en-US,en;q=0.9","62e057323b4ee04dd8f508f6","679edb085803f58d6bbd31ca","679ee31196d08f1e19688ad4","","null","<img  src='G_5.jpg' height='90'> <img   src='G_9.jpg' height='90'> <img   src='G_7.jpg' height='90'> <img  src='G_3.jpg' height='90'> <img src='G_1.jpg' height='90'>","null","Animation0","",""
"","","","","","html-keyboard-response","97","118239","0.0-20.0","19","1","2025-02-02 03:14:40","bc01a2b6f61d06f6604adb8657495020","69.250.72.32","Mozilla/5.0 (Macintosh; Intel Mac OS X 10_15_7) AppleWebKit/605.1.15 (KHTML, like Gecko) Version/17.5 Safari/605.1.15","Macintosh","Safari","17.5","OS X","10_15_7","https://app.prolific.com/","en-US,en;q=0.9","62e057323b4ee04dd8f508f6","679edb085803f58d6bbd31ca","679ee31196d08f1e19688ad4","","null","<img  src='G_5.jpg' height='90'> <img   src='G_9.jpg' height='90'> <img   src='G_7.jpg' height='90'> <img id='selected'  src='G_3.jpg' height='90'> <img src='G_1.jpg' height='90'>","null","Animation0","",""
"","","","","","html-keyboard-response","98","118744","0.0-21.0","19","1","2025-02-02 03:14:40","bc01a2b6f61d06f6604adb8657495020","69.250.72.32","Mozilla/5.0 (Macintosh; Intel Mac OS X 10_15_7) AppleWebKit/605.1.15 (KHTML, like Gecko) Version/17.5 Safari/605.1.15","Macintosh","Safari","17.5","OS X","10_15_7","https://app.prolific.com/","en-US,en;q=0.9","62e057323b4ee04dd8f508f6","679edb085803f58d6bbd31ca","679ee31196d08f1e19688ad4","","null","<img  src='G_5.jpg' height='90'> <img   src='G_9.jpg' height='90'> <img   src='G_7.jpg' height='90'> <img id='selected'  src='G_3.jpg' height='90'> <img id='selected' src='G_1.jpg' height='90'>","null","Animation0","",""
"","","","","","html-keyboard-response","99","119250","0.0-22.0","19","1","2025-02-02 03:14:40","bc01a2b6f61d06f6604adb8657495020","69.250.72.32","Mozilla/5.0 (Macintosh; Intel Mac OS X 10_15_7) AppleWebKit/605.1.15 (KHTML, like Gecko) Version/17.5 Safari/605.1.15","Macintosh","Safari","17.5","OS X","10_15_7","https://app.prolific.com/","en-US,en;q=0.9","62e057323b4ee04dd8f508f6","679edb085803f58d6bbd31ca","679ee31196d08f1e19688ad4","","null","<img  src='G_5.jpg' height='90'> <img   src='G_9.jpg' height='90'> <img   src='G_7.jpg' height='90'> <img id='selected'  src='G_3.jpg' height='90'> <img id='selected' src='G_1.jpg' height='90'>","null","Animation0","",""
"","","","","","html-keyboard-response","100","119556","0.0-23.0","19","1","2025-02-02 03:14:40","bc01a2b6f61d06f6604adb8657495020","69.250.72.32","Mozilla/5.0 (Macintosh; Intel Mac OS X 10_15_7) AppleWebKit/605.1.15 (KHTML, like Gecko) Version/17.5 Safari/605.1.15","Macintosh","Safari","17.5","OS X","10_15_7","https://app.prolific.com/","en-US,en;q=0.9","62e057323b4ee04dd8f508f6","679edb085803f58d6bbd31ca","679ee31196d08f1e19688ad4","","null","<img  src='G_5.jpg' height='90'> <img   src='G_9.jpg' height='90'> <img   src='G_7.jpg' height='90'> <img   src='G_3.jpg' height='90'> <img  src='G_1.jpg' height='90'>","null","Animation0","",""
"","","","","","html-keyboard-response","101","123617","0.0-24.0","19","1","2025-02-02 03:14:40","bc01a2b6f61d06f6604adb8657495020","69.250.72.32","Mozilla/5.0 (Macintosh; Intel Mac OS X 10_15_7) AppleWebKit/605.1.15 (KHTML, like Gecko) Version/17.5 Safari/605.1.15","Macintosh","Safari","17.5","OS X","10_15_7","https://app.prolific.com/","en-US,en;q=0.9","62e057323b4ee04dd8f508f6","679edb085803f58d6bbd31ca","679ee31196d08f1e19688ad4","","4056","[""Did you notice any patterns? <br><br>Press Enter to watch that example again and follow the steps of Omgne Sort.""]","enter","","",""
"","","","","","html-button-response","102","124024","0.0-25.0","19","1","2025-02-02 03:14:40","bc01a2b6f61d06f6604adb8657495020","69.250.72.32","Mozilla/5.0 (Macintosh; Intel Mac OS X 10_15_7) AppleWebKit/605.1.15 (KHTML, like Gecko) Version/17.5 Safari/605.1.15","Macintosh","Safari","17.5","OS X","10_15_7","https://app.prolific.com/","en-US,en;q=0.9","62e057323b4ee04dd8f508f6","679edb085803f58d6bbd31ca","679ee31196d08f1e19688ad4","","null","<img id='selected' src='G_9.jpg' height='90'> <img src='G_5.jpg' height='90'> <img src='G_7.jpg' height='90'> <img src='G_3.jpg' height='90'> <img src='G_1.jpg' height='90'>","null","Learning example 0","",""
"","","","","","html-button-response","103","124331","0.0-26.0","19","1","2025-02-02 03:14:40","bc01a2b6f61d06f6604adb8657495020","69.250.72.32","Mozilla/5.0 (Macintosh; Intel Mac OS X 10_15_7) AppleWebKit/605.1.15 (KHTML, like Gecko) Version/17.5 Safari/605.1.15","Macintosh","Safari","17.5","OS X","10_15_7","https://app.prolific.com/","en-US,en;q=0.9","62e057323b4ee04dd8f508f6","679edb085803f58d6bbd31ca","679ee31196d08f1e19688ad4","","null","<img id='selected' src='G_9.jpg' height='90'> <img id='selected' src='G_5.jpg' height='90'> <img src='G_7.jpg' height='90'> <img src='G_3.jpg' height='90'> <img src='G_1.jpg' height='90'>","null","Learning example 0","",""
"","","","","","html-button-response","104","124637","0.0-27.0","19","1","2025-02-02 03:14:40","bc01a2b6f61d06f6604adb8657495020","69.250.72.32","Mozilla/5.0 (Macintosh; Intel Mac OS X 10_15_7) AppleWebKit/605.1.15 (KHTML, like Gecko) Version/17.5 Safari/605.1.15","Macintosh","Safari","17.5","OS X","10_15_7","https://app.prolific.com/","en-US,en;q=0.9","62e057323b4ee04dd8f508f6","679edb085803f58d6bbd31ca","679ee31196d08f1e19688ad4","","null","<img id='swapped' src='G_5.jpg' height='90'> <img id='swapped' src='G_9.jpg' height='90'> <img src='G_7.jpg' height='90'> <img src='G_3.jpg' height='90'> <img src='G_1.jpg' height='90'>","null","Learning example 0","",""
"","","","","","html-button-response","105","130070","0.0-28.0-0.0-0.0","19","1","2025-02-02 03:14:40","bc01a2b6f61d06f6604adb8657495020","69.250.72.32","Mozilla/5.0 (Macintosh; Intel Mac OS X 10_15_7) AppleWebKit/605.1.15 (KHTML, like Gecko) Version/17.5 Safari/605.1.15","Macintosh","Safari","17.5","OS X","10_15_7","https://app.prolific.com/","en-US,en;q=0.9","62e057323b4ee04dd8f508f6","679edb085803f58d6bbd31ca","679ee31196d08f1e19688ad4","","5428","<img id='swapped' src='G_5.jpg' height='90'> <img id='swapped' src='G_9.jpg' height='90'> <img src='G_7.jpg' height='90'> <img src='G_3.jpg' height='90'> <img src='G_1.jpg' height='90'>","0","Learning example 0","",""
"","","","","","html-button-response","106","130464","0.0-28.1-0.1-0.1","19","1","2025-02-02 03:14:40","bc01a2b6f61d06f6604adb8657495020","69.250.72.32","Mozilla/5.0 (Macintosh; Intel Mac OS X 10_15_7) AppleWebKit/605.1.15 (KHTML, like Gecko) Version/17.5 Safari/605.1.15","Macintosh","Safari","17.5","OS X","10_15_7","https://app.prolific.com/","en-US,en;q=0.9","62e057323b4ee04dd8f508f6","679edb085803f58d6bbd31ca","679ee31196d08f1e19688ad4","","386","<img id='swapped' src='G_5.jpg' height='90'> <img id='swapped' src='G_9.jpg' height='90'> <img src='G_7.jpg' height='90'> <img src='G_3.jpg' height='90'> <img src='G_1.jpg' height='90'>","1","Learning example 0","",""
"","","","","","html-button-response","107","130669","0.0-29.0","19","1","2025-02-02 03:14:40","bc01a2b6f61d06f6604adb8657495020","69.250.72.32","Mozilla/5.0 (Macintosh; Intel Mac OS X 10_15_7) AppleWebKit/605.1.15 (KHTML, like Gecko) Version/17.5 Safari/605.1.15","Macintosh","Safari","17.5","OS X","10_15_7","https://app.prolific.com/","en-US,en;q=0.9","62e057323b4ee04dd8f508f6","679edb085803f58d6bbd31ca","679ee31196d08f1e19688ad4","","null","<img  src='G_5.jpg' height='90'> <img  src='G_9.jpg' height='90'> <img src='G_7.jpg' height='90'> <img src='G_3.jpg' height='90'> <img src='G_1.jpg' height='90'>","null","Learning example 0","",""
"","","","","","html-button-response","108","131077","0.0-30.0","19","1","2025-02-02 03:14:40","bc01a2b6f61d06f6604adb8657495020","69.250.72.32","Mozilla/5.0 (Macintosh; Intel Mac OS X 10_15_7) AppleWebKit/605.1.15 (KHTML, like Gecko) Version/17.5 Safari/605.1.15","Macintosh","Safari","17.5","OS X","10_15_7","https://app.prolific.com/","en-US,en;q=0.9","62e057323b4ee04dd8f508f6","679edb085803f58d6bbd31ca","679ee31196d08f1e19688ad4","","null","<img  src='G_5.jpg' height='90'> <img id='selected'  src='G_9.jpg' height='90'> <img src='G_7.jpg' height='90'> <img src='G_3.jpg' height='90'> <img src='G_1.jpg' height='90'>","null","Learning example 0","",""
"","","","","","html-button-response","109","131384","0.0-31.0","19","1","2025-02-02 03:14:40","bc01a2b6f61d06f6604adb8657495020","69.250.72.32","Mozilla/5.0 (Macintosh; Intel Mac OS X 10_15_7) AppleWebKit/605.1.15 (KHTML, like Gecko) Version/17.5 Safari/605.1.15","Macintosh","Safari","17.5","OS X","10_15_7","https://app.prolific.com/","en-US,en;q=0.9","62e057323b4ee04dd8f508f6","679edb085803f58d6bbd31ca","679ee31196d08f1e19688ad4","","null","<img  src='G_5.jpg' height='90'> <img id='selected'  src='G_9.jpg' height='90'> <img id='selected' src='G_7.jpg' height='90'> <img src='G_3.jpg' height='90'> <img src='G_1.jpg' height='90'>","null","Learning example 0","",""
"","","","","","html-button-response","110","131690","0.0-32.0","19","1","2025-02-02 03:14:40","bc01a2b6f61d06f6604adb8657495020","69.250.72.32","Mozilla/5.0 (Macintosh; Intel Mac OS X 10_15_7) AppleWebKit/605.1.15 (KHTML, like Gecko) Version/17.5 Safari/605.1.15","Macintosh","Safari","17.5","OS X","10_15_7","https://app.prolific.com/","en-US,en;q=0.9","62e057323b4ee04dd8f508f6","679edb085803f58d6bbd31ca","679ee31196d08f1e19688ad4","","null","<img  src='G_5.jpg' height='90'> <img id='selected'  src='G_9.jpg' height='90'> <img id='selected' src='G_7.jpg' height='90'> <img src='G_3.jpg' height='90'> <img src='G_1.jpg' height='90'>","null","Learning example 0","",""
"","","","","","html-button-response","111","134436","0.0-33.0-0.0-0.0","19","1","2025-02-02 03:14:40","bc01a2b6f61d06f6604adb8657495020","69.250.72.32","Mozilla/5.0 (Macintosh; Intel Mac OS X 10_15_7) AppleWebKit/605.1.15 (KHTML, like Gecko) Version/17.5 Safari/605.1.15","Macintosh","Safari","17.5","OS X","10_15_7","https://app.prolific.com/","en-US,en;q=0.9","62e057323b4ee04dd8f508f6","679edb085803f58d6bbd31ca","679ee31196d08f1e19688ad4","","2740","<img  src='G_5.jpg' height='90'> <img id='selected'  src='G_9.jpg' height='90'> <img id='selected' src='G_7.jpg' height='90'> <img src='G_3.jpg' height='90'> <img src='G_1.jpg' height='90'>","1","Learning example 0","",""
"","","","","","html-button-response","112","134830","0.0-33.1-0.1-0.1","19","1","2025-02-02 03:14:40","bc01a2b6f61d06f6604adb8657495020","69.250.72.32","Mozilla/5.0 (Macintosh; Intel Mac OS X 10_15_7) AppleWebKit/605.1.15 (KHTML, like Gecko) Version/17.5 Safari/605.1.15","Macintosh","Safari","17.5","OS X","10_15_7","https://app.prolific.com/","en-US,en;q=0.9","62e057323b4ee04dd8f508f6","679edb085803f58d6bbd31ca","679ee31196d08f1e19688ad4","","390","<img  src='G_5.jpg' height='90'> <img id='selected'  src='G_9.jpg' height='90'> <img id='selected' src='G_7.jpg' height='90'> <img src='G_3.jpg' height='90'> <img src='G_1.jpg' height='90'>","2","Learning example 0","",""
"","","","","","html-button-response","113","135035","0.0-34.0","19","1","2025-02-02 03:14:40","bc01a2b6f61d06f6604adb8657495020","69.250.72.32","Mozilla/5.0 (Macintosh; Intel Mac OS X 10_15_7) AppleWebKit/605.1.15 (KHTML, like Gecko) Version/17.5 Safari/605.1.15","Macintosh","Safari","17.5","OS X","10_15_7","https://app.prolific.com/","en-US,en;q=0.9","62e057323b4ee04dd8f508f6","679edb085803f58d6bbd31ca","679ee31196d08f1e19688ad4","","null","<img  src='G_5.jpg' height='90'> <img   src='G_9.jpg' height='90'> <img  src='G_7.jpg' height='90'> <img src='G_3.jpg' height='90'> <img src='G_1.jpg' height='90'>","null","Learning example 0","",""
"","","","","","html-button-response","114","135443","0.0-35.0","19","1","2025-02-02 03:14:40","bc01a2b6f61d06f6604adb8657495020","69.250.72.32","Mozilla/5.0 (Macintosh; Intel Mac OS X 10_15_7) AppleWebKit/605.1.15 (KHTML, like Gecko) Version/17.5 Safari/605.1.15","Macintosh","Safari","17.5","OS X","10_15_7","https://app.prolific.com/","en-US,en;q=0.9","62e057323b4ee04dd8f508f6","679edb085803f58d6bbd31ca","679ee31196d08f1e19688ad4","","null","<img  src='G_5.jpg' height='90'> <img   src='G_9.jpg' height='90'> <img id='selected'  src='G_7.jpg' height='90'> <img src='G_3.jpg' height='90'> <img src='G_1.jpg' height='90'>","null","Learning example 0","",""
"","","","","","html-button-response","115","135749","0.0-36.0","19","1","2025-02-02 03:14:40","bc01a2b6f61d06f6604adb8657495020","69.250.72.32","Mozilla/5.0 (Macintosh; Intel Mac OS X 10_15_7) AppleWebKit/605.1.15 (KHTML, like Gecko) Version/17.5 Safari/605.1.15","Macintosh","Safari","17.5","OS X","10_15_7","https://app.prolific.com/","en-US,en;q=0.9","62e057323b4ee04dd8f508f6","679edb085803f58d6bbd31ca","679ee31196d08f1e19688ad4","","null","<img  src='G_5.jpg' height='90'> <img   src='G_9.jpg' height='90'> <img id='selected'  src='G_7.jpg' height='90'> <img id='selected' src='G_3.jpg' height='90'> <img src='G_1.jpg' height='90'>","null","Learning example 0","",""
"","","","","","html-button-response","116","136057","0.0-37.0","19","1","2025-02-02 03:14:40","bc01a2b6f61d06f6604adb8657495020","69.250.72.32","Mozilla/5.0 (Macintosh; Intel Mac OS X 10_15_7) AppleWebKit/605.1.15 (KHTML, like Gecko) Version/17.5 Safari/605.1.15","Macintosh","Safari","17.5","OS X","10_15_7","https://app.prolific.com/","en-US,en;q=0.9","62e057323b4ee04dd8f508f6","679edb085803f58d6bbd31ca","679ee31196d08f1e19688ad4","","null","<img  src='G_5.jpg' height='90'> <img   src='G_9.jpg' height='90'> <img id='selected'  src='G_7.jpg' height='90'> <img id='selected' src='G_3.jpg' height='90'> <img src='G_1.jpg' height='90'>","null","Learning example 0","",""
"","","","","","html-button-response","117","137511","0.0-38.0-0.0-0.0","19","1","2025-02-02 03:14:40","bc01a2b6f61d06f6604adb8657495020","69.250.72.32","Mozilla/5.0 (Macintosh; Intel Mac OS X 10_15_7) AppleWebKit/605.1.15 (KHTML, like Gecko) Version/17.5 Safari/605.1.15","Macintosh","Safari","17.5","OS X","10_15_7","https://app.prolific.com/","en-US,en;q=0.9","62e057323b4ee04dd8f508f6","679edb085803f58d6bbd31ca","679ee31196d08f1e19688ad4","","1449","<img  src='G_5.jpg' height='90'> <img   src='G_9.jpg' height='90'> <img id='selected'  src='G_7.jpg' height='90'> <img id='selected' src='G_3.jpg' height='90'> <img src='G_1.jpg' height='90'>","2","Learning example 0","",""
"","","","","","html-button-response","118","138298","0.0-38.1-0.1-0.1","19","1","2025-02-02 03:14:40","bc01a2b6f61d06f6604adb8657495020","69.250.72.32","Mozilla/5.0 (Macintosh; Intel Mac OS X 10_15_7) AppleWebKit/605.1.15 (KHTML, like Gecko) Version/17.5 Safari/605.1.15","Macintosh","Safari","17.5","OS X","10_15_7","https://app.prolific.com/","en-US,en;q=0.9","62e057323b4ee04dd8f508f6","679edb085803f58d6bbd31ca","679ee31196d08f1e19688ad4","","783","<img  src='G_5.jpg' height='90'> <img   src='G_9.jpg' height='90'> <img id='selected'  src='G_7.jpg' height='90'> <img id='selected' src='G_3.jpg' height='90'> <img src='G_1.jpg' height='90'>","3","Learning example 0","",""
"","","","","","html-button-response","119","138503","0.0-39.0","19","1","2025-02-02 03:14:40","bc01a2b6f61d06f6604adb8657495020","69.250.72.32","Mozilla/5.0 (Macintosh; Intel Mac OS X 10_15_7) AppleWebKit/605.1.15 (KHTML, like Gecko) Version/17.5 Safari/605.1.15","Macintosh","Safari","17.5","OS X","10_15_7","https://app.prolific.com/","en-US,en;q=0.9","62e057323b4ee04dd8f508f6","679edb085803f58d6bbd31ca","679ee31196d08f1e19688ad4","","null","<img  src='G_5.jpg' height='90'> <img   src='G_9.jpg' height='90'> <img   src='G_7.jpg' height='90'> <img  src='G_3.jpg' height='90'> <img src='G_1.jpg' height='90'>","null","Learning example 0","",""
"","","","","","html-button-response","120","138910","0.0-40.0","19","1","2025-02-02 03:14:40","bc01a2b6f61d06f6604adb8657495020","69.250.72.32","Mozilla/5.0 (Macintosh; Intel Mac OS X 10_15_7) AppleWebKit/605.1.15 (KHTML, like Gecko) Version/17.5 Safari/605.1.15","Macintosh","Safari","17.5","OS X","10_15_7","https://app.prolific.com/","en-US,en;q=0.9","62e057323b4ee04dd8f508f6","679edb085803f58d6bbd31ca","679ee31196d08f1e19688ad4","","null","<img  src='G_5.jpg' height='90'> <img   src='G_9.jpg' height='90'> <img   src='G_7.jpg' height='90'> <img id='selected'  src='G_3.jpg' height='90'> <img src='G_1.jpg' height='90'>","null","Learning example 0","",""
"","","","","","html-button-response","121","139217","0.0-41.0","19","1","2025-02-02 03:14:40","bc01a2b6f61d06f6604adb8657495020","69.250.72.32","Mozilla/5.0 (Macintosh; Intel Mac OS X 10_15_7) AppleWebKit/605.1.15 (KHTML, like Gecko) Version/17.5 Safari/605.1.15","Macintosh","Safari","17.5","OS X","10_15_7","https://app.prolific.com/","en-US,en;q=0.9","62e057323b4ee04dd8f508f6","679edb085803f58d6bbd31ca","679ee31196d08f1e19688ad4","","null","<img  src='G_5.jpg' height='90'> <img   src='G_9.jpg' height='90'> <img   src='G_7.jpg' height='90'> <img id='selected'  src='G_3.jpg' height='90'> <img id='selected' src='G_1.jpg' height='90'>","null","Learning example 0","",""
"","","","","","html-button-response","122","139525","0.0-42.0","19","1","2025-02-02 03:14:40","bc01a2b6f61d06f6604adb8657495020","69.250.72.32","Mozilla/5.0 (Macintosh; Intel Mac OS X 10_15_7) AppleWebKit/605.1.15 (KHTML, like Gecko) Version/17.5 Safari/605.1.15","Macintosh","Safari","17.5","OS X","10_15_7","https://app.prolific.com/","en-US,en;q=0.9","62e057323b4ee04dd8f508f6","679edb085803f58d6bbd31ca","679ee31196d08f1e19688ad4","","null","<img  src='G_5.jpg' height='90'> <img   src='G_9.jpg' height='90'> <img   src='G_7.jpg' height='90'> <img id='selected'  src='G_3.jpg' height='90'> <img id='selected' src='G_1.jpg' height='90'>","null","Learning example 0","",""
"","","","","","html-button-response","123","140131","0.0-43.0-0.0-0.0","19","1","2025-02-02 03:14:40","bc01a2b6f61d06f6604adb8657495020","69.250.72.32","Mozilla/5.0 (Macintosh; Intel Mac OS X 10_15_7) AppleWebKit/605.1.15 (KHTML, like Gecko) Version/17.5 Safari/605.1.15","Macintosh","Safari","17.5","OS X","10_15_7","https://app.prolific.com/","en-US,en;q=0.9","62e057323b4ee04dd8f508f6","679edb085803f58d6bbd31ca","679ee31196d08f1e19688ad4","","601","<img  src='G_5.jpg' height='90'> <img   src='G_9.jpg' height='90'> <img   src='G_7.jpg' height='90'> <img id='selected'  src='G_3.jpg' height='90'> <img id='selected' src='G_1.jpg' height='90'>","3","Learning example 0","",""
"","","","","","html-button-response","124","140581","0.0-43.1-0.1-0.1","19","1","2025-02-02 03:14:40","bc01a2b6f61d06f6604adb8657495020","69.250.72.32","Mozilla/5.0 (Macintosh; Intel Mac OS X 10_15_7) AppleWebKit/605.1.15 (KHTML, like Gecko) Version/17.5 Safari/605.1.15","Macintosh","Safari","17.5","OS X","10_15_7","https://app.prolific.com/","en-US,en;q=0.9","62e057323b4ee04dd8f508f6","679edb085803f58d6bbd31ca","679ee31196d08f1e19688ad4","","445","<img  src='G_5.jpg' height='90'> <img   src='G_9.jpg' height='90'> <img   src='G_7.jpg' height='90'> <img id='selected'  src='G_3.jpg' height='90'> <img id='selected' src='G_1.jpg' height='90'>","4","Learning example 0","",""
"","","","","","html-button-response","125","140786","0.0-44.0","19","1","2025-02-02 03:14:40","bc01a2b6f61d06f6604adb8657495020","69.250.72.32","Mozilla/5.0 (Macintosh; Intel Mac OS X 10_15_7) AppleWebKit/605.1.15 (KHTML, like Gecko) Version/17.5 Safari/605.1.15","Macintosh","Safari","17.5","OS X","10_15_7","https://app.prolific.com/","en-US,en;q=0.9","62e057323b4ee04dd8f508f6","679edb085803f58d6bbd31ca","679ee31196d08f1e19688ad4","","null","<img  src='G_5.jpg' height='90'> <img   src='G_9.jpg' height='90'> <img   src='G_7.jpg' height='90'> <img   src='G_3.jpg' height='90'> <img  src='G_1.jpg' height='90'>","null","Learning example 0","",""
"","","","","","html-keyboard-response","126","147098","0.0-45.0","19","1","2025-02-02 03:14:40","bc01a2b6f61d06f6604adb8657495020","69.250.72.32","Mozilla/5.0 (Macintosh; Intel Mac OS X 10_15_7) AppleWebKit/605.1.15 (KHTML, like Gecko) Version/17.5 Safari/605.1.15","Macintosh","Safari","17.5","OS X","10_15_7","https://app.prolific.com/","en-US,en;q=0.9","62e057323b4ee04dd8f508f6","679edb085803f58d6bbd31ca","679ee31196d08f1e19688ad4","","6308","[""Final order was 1,2,3,4,5. The initial order was 2,1,3,4,5.<br>It took 1 swaps to sort it correctly with Omgne Sort. <br><br>Press Enter to continue.""]","enter","","",""
"","","","","","html-keyboard-response","127","149730","0.0-46.0","19","1","2025-02-02 03:14:40","bc01a2b6f61d06f6604adb8657495020","69.250.72.32","Mozilla/5.0 (Macintosh; Intel Mac OS X 10_15_7) AppleWebKit/605.1.15 (KHTML, like Gecko) Version/17.5 Safari/605.1.15","Macintosh","Safari","17.5","OS X","10_15_7","https://app.prolific.com/","en-US,en;q=0.9","62e057323b4ee04dd8f508f6","679edb085803f58d6bbd31ca","679ee31196d08f1e19688ad4","","2626","[""Example 2<br><br>You will watch Omnge Sort in action. Try to identify any patterns in the comparisons made by this method. <br><br>Press Enter to continue.""]","enter","","",""
"","","","","","html-keyboard-response","128","150236","0.0-47.0","19","1","2025-02-02 03:14:40","bc01a2b6f61d06f6604adb8657495020","69.250.72.32","Mozilla/5.0 (Macintosh; Intel Mac OS X 10_15_7) AppleWebKit/605.1.15 (KHTML, like Gecko) Version/17.5 Safari/605.1.15","Macintosh","Safari","17.5","OS X","10_15_7","https://app.prolific.com/","en-US,en;q=0.9","62e057323b4ee04dd8f508f6","679edb085803f58d6bbd31ca","679ee31196d08f1e19688ad4","","null","<img id='selected' src='G_1.jpg' height='90'> <img src='G_3.jpg' height='90'> <img src='G_4.jpg' height='90'> <img src='G_8.jpg' height='90'> <img src='G_2.jpg' height='90'> <img src='G_6.jpg' height='90'> <img src='G_7.jpg' height='90'> <img src='G_5.jpg' height='90'>","null","Animation1","",""
"","","","","","html-keyboard-response","129","150742","0.0-48.0","19","1","2025-02-02 03:14:40","bc01a2b6f61d06f6604adb8657495020","69.250.72.32","Mozilla/5.0 (Macintosh; Intel Mac OS X 10_15_7) AppleWebKit/605.1.15 (KHTML, like Gecko) Version/17.5 Safari/605.1.15","Macintosh","Safari","17.5","OS X","10_15_7","https://app.prolific.com/","en-US,en;q=0.9","62e057323b4ee04dd8f508f6","679edb085803f58d6bbd31ca","679ee31196d08f1e19688ad4","","null","<img id='selected' src='G_1.jpg' height='90'> <img id='selected' src='G_3.jpg' height='90'> <img src='G_4.jpg' height='90'> <img src='G_8.jpg' height='90'> <img src='G_2.jpg' height='90'> <img src='G_6.jpg' height='90'> <img src='G_7.jpg' height='90'> <img src='G_5.jpg' height='90'>","null","Animation1","",""
"","","","","","html-keyboard-response","130","151249","0.0-49.0","19","1","2025-02-02 03:14:40","bc01a2b6f61d06f6604adb8657495020","69.250.72.32","Mozilla/5.0 (Macintosh; Intel Mac OS X 10_15_7) AppleWebKit/605.1.15 (KHTML, like Gecko) Version/17.5 Safari/605.1.15","Macintosh","Safari","17.5","OS X","10_15_7","https://app.prolific.com/","en-US,en;q=0.9","62e057323b4ee04dd8f508f6","679edb085803f58d6bbd31ca","679ee31196d08f1e19688ad4","","null","<img id='selected' src='G_1.jpg' height='90'> <img id='selected' src='G_3.jpg' height='90'> <img src='G_4.jpg' height='90'> <img src='G_8.jpg' height='90'> <img src='G_2.jpg' height='90'> <img src='G_6.jpg' height='90'> <img src='G_7.jpg' height='90'> <img src='G_5.jpg' height='90'>","null","Animation1","",""
"","","","","","html-keyboard-response","131","151556","0.0-50.0","19","1","2025-02-02 03:14:40","bc01a2b6f61d06f6604adb8657495020","69.250.72.32","Mozilla/5.0 (Macintosh; Intel Mac OS X 10_15_7) AppleWebKit/605.1.15 (KHTML, like Gecko) Version/17.5 Safari/605.1.15","Macintosh","Safari","17.5","OS X","10_15_7","https://app.prolific.com/","en-US,en;q=0.9","62e057323b4ee04dd8f508f6","679edb085803f58d6bbd31ca","679ee31196d08f1e19688ad4","","null","<img  src='G_1.jpg' height='90'> <img  src='G_3.jpg' height='90'> <img src='G_4.jpg' height='90'> <img src='G_8.jpg' height='90'> <img src='G_2.jpg' height='90'> <img src='G_6.jpg' height='90'> <img src='G_7.jpg' height='90'> <img src='G_5.jpg' height='90'>","null","Animation1","",""
"","","","","","html-keyboard-response","132","152063","0.0-51.0","19","1","2025-02-02 03:14:40","bc01a2b6f61d06f6604adb8657495020","69.250.72.32","Mozilla/5.0 (Macintosh; Intel Mac OS X 10_15_7) AppleWebKit/605.1.15 (KHTML, like Gecko) Version/17.5 Safari/605.1.15","Macintosh","Safari","17.5","OS X","10_15_7","https://app.prolific.com/","en-US,en;q=0.9","62e057323b4ee04dd8f508f6","679edb085803f58d6bbd31ca","679ee31196d08f1e19688ad4","","null","<img  src='G_1.jpg' height='90'> <img id='selected'  src='G_3.jpg' height='90'> <img src='G_4.jpg' height='90'> <img src='G_8.jpg' height='90'> <img src='G_2.jpg' height='90'> <img src='G_6.jpg' height='90'> <img src='G_7.jpg' height='90'> <img src='G_5.jpg' height='90'>","null","Animation1","",""
"","","","","","html-keyboard-response","133","152570","0.0-52.0","19","1","2025-02-02 03:14:40","bc01a2b6f61d06f6604adb8657495020","69.250.72.32","Mozilla/5.0 (Macintosh; Intel Mac OS X 10_15_7) AppleWebKit/605.1.15 (KHTML, like Gecko) Version/17.5 Safari/605.1.15","Macintosh","Safari","17.5","OS X","10_15_7","https://app.prolific.com/","en-US,en;q=0.9","62e057323b4ee04dd8f508f6","679edb085803f58d6bbd31ca","679ee31196d08f1e19688ad4","","null","<img  src='G_1.jpg' height='90'> <img id='selected'  src='G_3.jpg' height='90'> <img id='selected' src='G_4.jpg' height='90'> <img src='G_8.jpg' height='90'> <img src='G_2.jpg' height='90'> <img src='G_6.jpg' height='90'> <img src='G_7.jpg' height='90'> <img src='G_5.jpg' height='90'>","null","Animation1","",""
"","","","","","html-keyboard-response","134","153077","0.0-53.0","19","1","2025-02-02 03:14:40","bc01a2b6f61d06f6604adb8657495020","69.250.72.32","Mozilla/5.0 (Macintosh; Intel Mac OS X 10_15_7) AppleWebKit/605.1.15 (KHTML, like Gecko) Version/17.5 Safari/605.1.15","Macintosh","Safari","17.5","OS X","10_15_7","https://app.prolific.com/","en-US,en;q=0.9","62e057323b4ee04dd8f508f6","679edb085803f58d6bbd31ca","679ee31196d08f1e19688ad4","","null","<img  src='G_1.jpg' height='90'> <img id='swapped' src='G_4.jpg' height='90'> <img id='swapped'  src='G_3.jpg' height='90'> <img src='G_8.jpg' height='90'> <img src='G_2.jpg' height='90'> <img src='G_6.jpg' height='90'> <img src='G_7.jpg' height='90'> <img src='G_5.jpg' height='90'>","null","Animation1","",""
"","","","","","html-keyboard-response","135","153384","0.0-54.0","19","1","2025-02-02 03:14:40","bc01a2b6f61d06f6604adb8657495020","69.250.72.32","Mozilla/5.0 (Macintosh; Intel Mac OS X 10_15_7) AppleWebKit/605.1.15 (KHTML, like Gecko) Version/17.5 Safari/605.1.15","Macintosh","Safari","17.5","OS X","10_15_7","https://app.prolific.com/","en-US,en;q=0.9","62e057323b4ee04dd8f508f6","679edb085803f58d6bbd31ca","679ee31196d08f1e19688ad4","","null","<img  src='G_1.jpg' height='90'> <img  src='G_4.jpg' height='90'> <img   src='G_3.jpg' height='90'> <img src='G_8.jpg' height='90'> <img src='G_2.jpg' height='90'> <img src='G_6.jpg' height='90'> <img src='G_7.jpg' height='90'> <img src='G_5.jpg' height='90'>","null","Animation1","",""
"","","","","","html-keyboard-response","136","153891","0.0-55.0","19","1","2025-02-02 03:14:40","bc01a2b6f61d06f6604adb8657495020","69.250.72.32","Mozilla/5.0 (Macintosh; Intel Mac OS X 10_15_7) AppleWebKit/605.1.15 (KHTML, like Gecko) Version/17.5 Safari/605.1.15","Macintosh","Safari","17.5","OS X","10_15_7","https://app.prolific.com/","en-US,en;q=0.9","62e057323b4ee04dd8f508f6","679edb085803f58d6bbd31ca","679ee31196d08f1e19688ad4","","null","<img id='selected'  src='G_1.jpg' height='90'> <img  src='G_4.jpg' height='90'> <img   src='G_3.jpg' height='90'> <img src='G_8.jpg' height='90'> <img src='G_2.jpg' height='90'> <img src='G_6.jpg' height='90'> <img src='G_7.jpg' height='90'> <img src='G_5.jpg' height='90'>","null","Animation1","",""
"","","","","","html-keyboard-response","137","154398","0.0-56.0","19","1","2025-02-02 03:14:40","bc01a2b6f61d06f6604adb8657495020","69.250.72.32","Mozilla/5.0 (Macintosh; Intel Mac OS X 10_15_7) AppleWebKit/605.1.15 (KHTML, like Gecko) Version/17.5 Safari/605.1.15","Macintosh","Safari","17.5","OS X","10_15_7","https://app.prolific.com/","en-US,en;q=0.9","62e057323b4ee04dd8f508f6","679edb085803f58d6bbd31ca","679ee31196d08f1e19688ad4","","null","<img id='selected'  src='G_1.jpg' height='90'> <img id='selected'  src='G_4.jpg' height='90'> <img   src='G_3.jpg' height='90'> <img src='G_8.jpg' height='90'> <img src='G_2.jpg' height='90'> <img src='G_6.jpg' height='90'> <img src='G_7.jpg' height='90'> <img src='G_5.jpg' height='90'>","null","Animation1","",""
"","","","","","html-keyboard-response","138","154905","0.0-57.0","19","1","2025-02-02 03:14:40","bc01a2b6f61d06f6604adb8657495020","69.250.72.32","Mozilla/5.0 (Macintosh; Intel Mac OS X 10_15_7) AppleWebKit/605.1.15 (KHTML, like Gecko) Version/17.5 Safari/605.1.15","Macintosh","Safari","17.5","OS X","10_15_7","https://app.prolific.com/","en-US,en;q=0.9","62e057323b4ee04dd8f508f6","679edb085803f58d6bbd31ca","679ee31196d08f1e19688ad4","","null","<img id='swapped'  src='G_4.jpg' height='90'> <img id='swapped'  src='G_1.jpg' height='90'> <img   src='G_3.jpg' height='90'> <img src='G_8.jpg' height='90'> <img src='G_2.jpg' height='90'> <img src='G_6.jpg' height='90'> <img src='G_7.jpg' height='90'> <img src='G_5.jpg' height='90'>","null","Animation1","",""
"","","","","","html-keyboard-response","139","155212","0.0-58.0","19","1","2025-02-02 03:14:40","bc01a2b6f61d06f6604adb8657495020","69.250.72.32","Mozilla/5.0 (Macintosh; Intel Mac OS X 10_15_7) AppleWebKit/605.1.15 (KHTML, like Gecko) Version/17.5 Safari/605.1.15","Macintosh","Safari","17.5","OS X","10_15_7","https://app.prolific.com/","en-US,en;q=0.9","62e057323b4ee04dd8f508f6","679edb085803f58d6bbd31ca","679ee31196d08f1e19688ad4","","null","<img   src='G_4.jpg' height='90'> <img   src='G_1.jpg' height='90'> <img   src='G_3.jpg' height='90'> <img src='G_8.jpg' height='90'> <img src='G_2.jpg' height='90'> <img src='G_6.jpg' height='90'> <img src='G_7.jpg' height='90'> <img src='G_5.jpg' height='90'>","null","Animation1","",""
"","","","","","html-keyboard-response","140","155720","0.0-59.0","19","1","2025-02-02 03:14:40","bc01a2b6f61d06f6604adb8657495020","69.250.72.32","Mozilla/5.0 (Macintosh; Intel Mac OS X 10_15_7) AppleWebKit/605.1.15 (KHTML, like Gecko) Version/17.5 Safari/605.1.15","Macintosh","Safari","17.5","OS X","10_15_7","https://app.prolific.com/","en-US,en;q=0.9","62e057323b4ee04dd8f508f6","679edb085803f58d6bbd31ca","679ee31196d08f1e19688ad4","","null","<img   src='G_4.jpg' height='90'> <img   src='G_1.jpg' height='90'> <img id='selected'   src='G_3.jpg' height='90'> <img src='G_8.jpg' height='90'> <img src='G_2.jpg' height='90'> <img src='G_6.jpg' height='90'> <img src='G_7.jpg' height='90'> <img src='G_5.jpg' height='90'>","null","Animation1","",""
"","","","","","html-keyboard-response","141","156226","0.0-60.0","19","1","2025-02-02 03:14:40","bc01a2b6f61d06f6604adb8657495020","69.250.72.32","Mozilla/5.0 (Macintosh; Intel Mac OS X 10_15_7) AppleWebKit/605.1.15 (KHTML, like Gecko) Version/17.5 Safari/605.1.15","Macintosh","Safari","17.5","OS X","10_15_7","https://app.prolific.com/","en-US,en;q=0.9","62e057323b4ee04dd8f508f6","679edb085803f58d6bbd31ca","679ee31196d08f1e19688ad4","","null","<img   src='G_4.jpg' height='90'> <img   src='G_1.jpg' height='90'> <img id='selected'   src='G_3.jpg' height='90'> <img id='selected' src='G_8.jpg' height='90'> <img src='G_2.jpg' height='90'> <img src='G_6.jpg' height='90'> <img src='G_7.jpg' height='90'> <img src='G_5.jpg' height='90'>","null","Animation1","",""
"","","","","","html-keyboard-response","142","156733","0.0-61.0","19","1","2025-02-02 03:14:40","bc01a2b6f61d06f6604adb8657495020","69.250.72.32","Mozilla/5.0 (Macintosh; Intel Mac OS X 10_15_7) AppleWebKit/605.1.15 (KHTML, like Gecko) Version/17.5 Safari/605.1.15","Macintosh","Safari","17.5","OS X","10_15_7","https://app.prolific.com/","en-US,en;q=0.9","62e057323b4ee04dd8f508f6","679edb085803f58d6bbd31ca","679ee31196d08f1e19688ad4","","null","<img   src='G_4.jpg' height='90'> <img   src='G_1.jpg' height='90'> <img id='swapped' src='G_8.jpg' height='90'> <img id='swapped'   src='G_3.jpg' height='90'> <img src='G_2.jpg' height='90'> <img src='G_6.jpg' height='90'> <img src='G_7.jpg' height='90'> <img src='G_5.jpg' height='90'>","null","Animation1","",""
"","","","","","html-keyboard-response","143","157040","0.0-62.0","19","1","2025-02-02 03:14:40","bc01a2b6f61d06f6604adb8657495020","69.250.72.32","Mozilla/5.0 (Macintosh; Intel Mac OS X 10_15_7) AppleWebKit/605.1.15 (KHTML, like Gecko) Version/17.5 Safari/605.1.15","Macintosh","Safari","17.5","OS X","10_15_7","https://app.prolific.com/","en-US,en;q=0.9","62e057323b4ee04dd8f508f6","679edb085803f58d6bbd31ca","679ee31196d08f1e19688ad4","","null","<img   src='G_4.jpg' height='90'> <img   src='G_1.jpg' height='90'> <img  src='G_8.jpg' height='90'> <img    src='G_3.jpg' height='90'> <img src='G_2.jpg' height='90'> <img src='G_6.jpg' height='90'> <img src='G_7.jpg' height='90'> <img src='G_5.jpg' height='90'>","null","Animation1","",""
"","","","","","html-keyboard-response","144","157549","0.0-63.0","19","1","2025-02-02 03:14:40","bc01a2b6f61d06f6604adb8657495020","69.250.72.32","Mozilla/5.0 (Macintosh; Intel Mac OS X 10_15_7) AppleWebKit/605.1.15 (KHTML, like Gecko) Version/17.5 Safari/605.1.15","Macintosh","Safari","17.5","OS X","10_15_7","https://app.prolific.com/","en-US,en;q=0.9","62e057323b4ee04dd8f508f6","679edb085803f58d6bbd31ca","679ee31196d08f1e19688ad4","","null","<img   src='G_4.jpg' height='90'> <img id='selected'   src='G_1.jpg' height='90'> <img  src='G_8.jpg' height='90'> <img    src='G_3.jpg' height='90'> <img src='G_2.jpg' height='90'> <img src='G_6.jpg' height='90'> <img src='G_7.jpg' height='90'> <img src='G_5.jpg' height='90'>","null","Animation1","",""
"","","","","","html-keyboard-response","145","158056","0.0-64.0","19","1","2025-02-02 03:14:40","bc01a2b6f61d06f6604adb8657495020","69.250.72.32","Mozilla/5.0 (Macintosh; Intel Mac OS X 10_15_7) AppleWebKit/605.1.15 (KHTML, like Gecko) Version/17.5 Safari/605.1.15","Macintosh","Safari","17.5","OS X","10_15_7","https://app.prolific.com/","en-US,en;q=0.9","62e057323b4ee04dd8f508f6","679edb085803f58d6bbd31ca","679ee31196d08f1e19688ad4","","null","<img   src='G_4.jpg' height='90'> <img id='selected'   src='G_1.jpg' height='90'> <img id='selected'  src='G_8.jpg' height='90'> <img    src='G_3.jpg' height='90'> <img src='G_2.jpg' height='90'> <img src='G_6.jpg' height='90'> <img src='G_7.jpg' height='90'> <img src='G_5.jpg' height='90'>","null","Animation1","",""
"","","","","","html-keyboard-response","146","158564","0.0-65.0","19","1","2025-02-02 03:14:40","bc01a2b6f61d06f6604adb8657495020","69.250.72.32","Mozilla/5.0 (Macintosh; Intel Mac OS X 10_15_7) AppleWebKit/605.1.15 (KHTML, like Gecko) Version/17.5 Safari/605.1.15","Macintosh","Safari","17.5","OS X","10_15_7","https://app.prolific.com/","en-US,en;q=0.9","62e057323b4ee04dd8f508f6","679edb085803f58d6bbd31ca","679ee31196d08f1e19688ad4","","null","<img   src='G_4.jpg' height='90'> <img id='swapped'  src='G_8.jpg' height='90'> <img id='swapped'   src='G_1.jpg' height='90'> <img    src='G_3.jpg' height='90'> <img src='G_2.jpg' height='90'> <img src='G_6.jpg' height='90'> <img src='G_7.jpg' height='90'> <img src='G_5.jpg' height='90'>","null","Animation1","",""
"","","","","","html-keyboard-response","147","158871","0.0-66.0","19","1","2025-02-02 03:14:40","bc01a2b6f61d06f6604adb8657495020","69.250.72.32","Mozilla/5.0 (Macintosh; Intel Mac OS X 10_15_7) AppleWebKit/605.1.15 (KHTML, like Gecko) Version/17.5 Safari/605.1.15","Macintosh","Safari","17.5","OS X","10_15_7","https://app.prolific.com/","en-US,en;q=0.9","62e057323b4ee04dd8f508f6","679edb085803f58d6bbd31ca","679ee31196d08f1e19688ad4","","null","<img   src='G_4.jpg' height='90'> <img   src='G_8.jpg' height='90'> <img    src='G_1.jpg' height='90'> <img    src='G_3.jpg' height='90'> <img src='G_2.jpg' height='90'> <img src='G_6.jpg' height='90'> <img src='G_7.jpg' height='90'> <img src='G_5.jpg' height='90'>","null","Animation1","",""
"","","","","","html-keyboard-response","148","159379","0.0-67.0","19","1","2025-02-02 03:14:40","bc01a2b6f61d06f6604adb8657495020","69.250.72.32","Mozilla/5.0 (Macintosh; Intel Mac OS X 10_15_7) AppleWebKit/605.1.15 (KHTML, like Gecko) Version/17.5 Safari/605.1.15","Macintosh","Safari","17.5","OS X","10_15_7","https://app.prolific.com/","en-US,en;q=0.9","62e057323b4ee04dd8f508f6","679edb085803f58d6bbd31ca","679ee31196d08f1e19688ad4","","null","<img id='selected'   src='G_4.jpg' height='90'> <img   src='G_8.jpg' height='90'> <img    src='G_1.jpg' height='90'> <img    src='G_3.jpg' height='90'> <img src='G_2.jpg' height='90'> <img src='G_6.jpg' height='90'> <img src='G_7.jpg' height='90'> <img src='G_5.jpg' height='90'>","null","Animation1","",""
"","","","","","html-keyboard-response","149","159887","0.0-68.0","19","1","2025-02-02 03:14:40","bc01a2b6f61d06f6604adb8657495020","69.250.72.32","Mozilla/5.0 (Macintosh; Intel Mac OS X 10_15_7) AppleWebKit/605.1.15 (KHTML, like Gecko) Version/17.5 Safari/605.1.15","Macintosh","Safari","17.5","OS X","10_15_7","https://app.prolific.com/","en-US,en;q=0.9","62e057323b4ee04dd8f508f6","679edb085803f58d6bbd31ca","679ee31196d08f1e19688ad4","","null","<img id='selected'   src='G_4.jpg' height='90'> <img id='selected'   src='G_8.jpg' height='90'> <img    src='G_1.jpg' height='90'> <img    src='G_3.jpg' height='90'> <img src='G_2.jpg' height='90'> <img src='G_6.jpg' height='90'> <img src='G_7.jpg' height='90'> <img src='G_5.jpg' height='90'>","null","Animation1","",""
"","","","","","html-keyboard-response","150","160395","0.0-69.0","19","1","2025-02-02 03:14:40","bc01a2b6f61d06f6604adb8657495020","69.250.72.32","Mozilla/5.0 (Macintosh; Intel Mac OS X 10_15_7) AppleWebKit/605.1.15 (KHTML, like Gecko) Version/17.5 Safari/605.1.15","Macintosh","Safari","17.5","OS X","10_15_7","https://app.prolific.com/","en-US,en;q=0.9","62e057323b4ee04dd8f508f6","679edb085803f58d6bbd31ca","679ee31196d08f1e19688ad4","","null","<img id='swapped'   src='G_8.jpg' height='90'> <img id='swapped'   src='G_4.jpg' height='90'> <img    src='G_1.jpg' height='90'> <img    src='G_3.jpg' height='90'> <img src='G_2.jpg' height='90'> <img src='G_6.jpg' height='90'> <img src='G_7.jpg' height='90'> <img src='G_5.jpg' height='90'>","null","Animation1","",""
"","","","","","html-keyboard-response","151","160703","0.0-70.0","19","1","2025-02-02 03:14:40","bc01a2b6f61d06f6604adb8657495020","69.250.72.32","Mozilla/5.0 (Macintosh; Intel Mac OS X 10_15_7) AppleWebKit/605.1.15 (KHTML, like Gecko) Version/17.5 Safari/605.1.15","Macintosh","Safari","17.5","OS X","10_15_7","https://app.prolific.com/","en-US,en;q=0.9","62e057323b4ee04dd8f508f6","679edb085803f58d6bbd31ca","679ee31196d08f1e19688ad4","","null","<img    src='G_8.jpg' height='90'> <img    src='G_4.jpg' height='90'> <img    src='G_1.jpg' height='90'> <img    src='G_3.jpg' height='90'> <img src='G_2.jpg' height='90'> <img src='G_6.jpg' height='90'> <img src='G_7.jpg' height='90'> <img src='G_5.jpg' height='90'>","null","Animation1","",""
"","","","","","html-keyboard-response","152","161212","0.0-71.0","19","1","2025-02-02 03:14:40","bc01a2b6f61d06f6604adb8657495020","69.250.72.32","Mozilla/5.0 (Macintosh; Intel Mac OS X 10_15_7) AppleWebKit/605.1.15 (KHTML, like Gecko) Version/17.5 Safari/605.1.15","Macintosh","Safari","17.5","OS X","10_15_7","https://app.prolific.com/","en-US,en;q=0.9","62e057323b4ee04dd8f508f6","679edb085803f58d6bbd31ca","679ee31196d08f1e19688ad4","","null","<img    src='G_8.jpg' height='90'> <img    src='G_4.jpg' height='90'> <img    src='G_1.jpg' height='90'> <img id='selected'    src='G_3.jpg' height='90'> <img src='G_2.jpg' height='90'> <img src='G_6.jpg' height='90'> <img src='G_7.jpg' height='90'> <img src='G_5.jpg' height='90'>","null","Animation1","",""
"","","","","","html-keyboard-response","153","161719","0.0-72.0","19","1","2025-02-02 03:14:40","bc01a2b6f61d06f6604adb8657495020","69.250.72.32","Mozilla/5.0 (Macintosh; Intel Mac OS X 10_15_7) AppleWebKit/605.1.15 (KHTML, like Gecko) Version/17.5 Safari/605.1.15","Macintosh","Safari","17.5","OS X","10_15_7","https://app.prolific.com/","en-US,en;q=0.9","62e057323b4ee04dd8f508f6","679edb085803f58d6bbd31ca","679ee31196d08f1e19688ad4","","null","<img    src='G_8.jpg' height='90'> <img    src='G_4.jpg' height='90'> <img    src='G_1.jpg' height='90'> <img id='selected'    src='G_3.jpg' height='90'> <img id='selected' src='G_2.jpg' height='90'> <img src='G_6.jpg' height='90'> <img src='G_7.jpg' height='90'> <img src='G_5.jpg' height='90'>","null","Animation1","",""
"","","","","","html-keyboard-response","154","162227","0.0-73.0","19","1","2025-02-02 03:14:40","bc01a2b6f61d06f6604adb8657495020","69.250.72.32","Mozilla/5.0 (Macintosh; Intel Mac OS X 10_15_7) AppleWebKit/605.1.15 (KHTML, like Gecko) Version/17.5 Safari/605.1.15","Macintosh","Safari","17.5","OS X","10_15_7","https://app.prolific.com/","en-US,en;q=0.9","62e057323b4ee04dd8f508f6","679edb085803f58d6bbd31ca","679ee31196d08f1e19688ad4","","null","<img    src='G_8.jpg' height='90'> <img    src='G_4.jpg' height='90'> <img    src='G_1.jpg' height='90'> <img id='swapped' src='G_2.jpg' height='90'> <img id='swapped'    src='G_3.jpg' height='90'> <img src='G_6.jpg' height='90'> <img src='G_7.jpg' height='90'> <img src='G_5.jpg' height='90'>","null","Animation1","",""
"","","","","","html-keyboard-response","155","162534","0.0-74.0","19","1","2025-02-02 03:14:40","bc01a2b6f61d06f6604adb8657495020","69.250.72.32","Mozilla/5.0 (Macintosh; Intel Mac OS X 10_15_7) AppleWebKit/605.1.15 (KHTML, like Gecko) Version/17.5 Safari/605.1.15","Macintosh","Safari","17.5","OS X","10_15_7","https://app.prolific.com/","en-US,en;q=0.9","62e057323b4ee04dd8f508f6","679edb085803f58d6bbd31ca","679ee31196d08f1e19688ad4","","null","<img    src='G_8.jpg' height='90'> <img    src='G_4.jpg' height='90'> <img    src='G_1.jpg' height='90'> <img  src='G_2.jpg' height='90'> <img     src='G_3.jpg' height='90'> <img src='G_6.jpg' height='90'> <img src='G_7.jpg' height='90'> <img src='G_5.jpg' height='90'>","null","Animation1","",""
"","","","","","html-keyboard-response","156","163042","0.0-75.0","19","1","2025-02-02 03:14:40","bc01a2b6f61d06f6604adb8657495020","69.250.72.32","Mozilla/5.0 (Macintosh; Intel Mac OS X 10_15_7) AppleWebKit/605.1.15 (KHTML, like Gecko) Version/17.5 Safari/605.1.15","Macintosh","Safari","17.5","OS X","10_15_7","https://app.prolific.com/","en-US,en;q=0.9","62e057323b4ee04dd8f508f6","679edb085803f58d6bbd31ca","679ee31196d08f1e19688ad4","","null","<img    src='G_8.jpg' height='90'> <img    src='G_4.jpg' height='90'> <img id='selected'    src='G_1.jpg' height='90'> <img  src='G_2.jpg' height='90'> <img     src='G_3.jpg' height='90'> <img src='G_6.jpg' height='90'> <img src='G_7.jpg' height='90'> <img src='G_5.jpg' height='90'>","null","Animation1","",""
"","","","","","html-keyboard-response","157","163549","0.0-76.0","19","1","2025-02-02 03:14:40","bc01a2b6f61d06f6604adb8657495020","69.250.72.32","Mozilla/5.0 (Macintosh; Intel Mac OS X 10_15_7) AppleWebKit/605.1.15 (KHTML, like Gecko) Version/17.5 Safari/605.1.15","Macintosh","Safari","17.5","OS X","10_15_7","https://app.prolific.com/","en-US,en;q=0.9","62e057323b4ee04dd8f508f6","679edb085803f58d6bbd31ca","679ee31196d08f1e19688ad4","","null","<img    src='G_8.jpg' height='90'> <img    src='G_4.jpg' height='90'> <img id='selected'    src='G_1.jpg' height='90'> <img id='selected'  src='G_2.jpg' height='90'> <img     src='G_3.jpg' height='90'> <img src='G_6.jpg' height='90'> <img src='G_7.jpg' height='90'> <img src='G_5.jpg' height='90'>","null","Animation1","",""
"","","","","","html-keyboard-response","158","164057","0.0-77.0","19","1","2025-02-02 03:14:40","bc01a2b6f61d06f6604adb8657495020","69.250.72.32","Mozilla/5.0 (Macintosh; Intel Mac OS X 10_15_7) AppleWebKit/605.1.15 (KHTML, like Gecko) Version/17.5 Safari/605.1.15","Macintosh","Safari","17.5","OS X","10_15_7","https://app.prolific.com/","en-US,en;q=0.9","62e057323b4ee04dd8f508f6","679edb085803f58d6bbd31ca","679ee31196d08f1e19688ad4","","null","<img    src='G_8.jpg' height='90'> <img    src='G_4.jpg' height='90'> <img id='swapped'  src='G_2.jpg' height='90'> <img id='swapped'    src='G_1.jpg' height='90'> <img     src='G_3.jpg' height='90'> <img src='G_6.jpg' height='90'> <img src='G_7.jpg' height='90'> <img src='G_5.jpg' height='90'>","null","Animation1","",""
"","","","","","html-keyboard-response","159","164364","0.0-78.0","19","1","2025-02-02 03:14:40","bc01a2b6f61d06f6604adb8657495020","69.250.72.32","Mozilla/5.0 (Macintosh; Intel Mac OS X 10_15_7) AppleWebKit/605.1.15 (KHTML, like Gecko) Version/17.5 Safari/605.1.15","Macintosh","Safari","17.5","OS X","10_15_7","https://app.prolific.com/","en-US,en;q=0.9","62e057323b4ee04dd8f508f6","679edb085803f58d6bbd31ca","679ee31196d08f1e19688ad4","","null","<img    src='G_8.jpg' height='90'> <img    src='G_4.jpg' height='90'> <img   src='G_2.jpg' height='90'> <img     src='G_1.jpg' height='90'> <img     src='G_3.jpg' height='90'> <img src='G_6.jpg' height='90'> <img src='G_7.jpg' height='90'> <img src='G_5.jpg' height='90'>","null","Animation1","",""
"","","","","","html-keyboard-response","160","164872","0.0-79.0","19","1","2025-02-02 03:14:40","bc01a2b6f61d06f6604adb8657495020","69.250.72.32","Mozilla/5.0 (Macintosh; Intel Mac OS X 10_15_7) AppleWebKit/605.1.15 (KHTML, like Gecko) Version/17.5 Safari/605.1.15","Macintosh","Safari","17.5","OS X","10_15_7","https://app.prolific.com/","en-US,en;q=0.9","62e057323b4ee04dd8f508f6","679edb085803f58d6bbd31ca","679ee31196d08f1e19688ad4","","null","<img    src='G_8.jpg' height='90'> <img id='selected'    src='G_4.jpg' height='90'> <img   src='G_2.jpg' height='90'> <img     src='G_1.jpg' height='90'> <img     src='G_3.jpg' height='90'> <img src='G_6.jpg' height='90'> <img src='G_7.jpg' height='90'> <img src='G_5.jpg' height='90'>","null","Animation1","",""
"","","","","","html-keyboard-response","161","165379","0.0-80.0","19","1","2025-02-02 03:14:40","bc01a2b6f61d06f6604adb8657495020","69.250.72.32","Mozilla/5.0 (Macintosh; Intel Mac OS X 10_15_7) AppleWebKit/605.1.15 (KHTML, like Gecko) Version/17.5 Safari/605.1.15","Macintosh","Safari","17.5","OS X","10_15_7","https://app.prolific.com/","en-US,en;q=0.9","62e057323b4ee04dd8f508f6","679edb085803f58d6bbd31ca","679ee31196d08f1e19688ad4","","null","<img    src='G_8.jpg' height='90'> <img id='selected'    src='G_4.jpg' height='90'> <img id='selected'   src='G_2.jpg' height='90'> <img     src='G_1.jpg' height='90'> <img     src='G_3.jpg' height='90'> <img src='G_6.jpg' height='90'> <img src='G_7.jpg' height='90'> <img src='G_5.jpg' height='90'>","null","Animation1","",""
"","","","","","html-keyboard-response","162","165883","0.0-81.0","19","1","2025-02-02 03:14:40","bc01a2b6f61d06f6604adb8657495020","69.250.72.32","Mozilla/5.0 (Macintosh; Intel Mac OS X 10_15_7) AppleWebKit/605.1.15 (KHTML, like Gecko) Version/17.5 Safari/605.1.15","Macintosh","Safari","17.5","OS X","10_15_7","https://app.prolific.com/","en-US,en;q=0.9","62e057323b4ee04dd8f508f6","679edb085803f58d6bbd31ca","679ee31196d08f1e19688ad4","","null","<img    src='G_8.jpg' height='90'> <img id='swapped'   src='G_2.jpg' height='90'> <img id='swapped'    src='G_4.jpg' height='90'> <img     src='G_1.jpg' height='90'> <img     src='G_3.jpg' height='90'> <img src='G_6.jpg' height='90'> <img src='G_7.jpg' height='90'> <img src='G_5.jpg' height='90'>","null","Animation1","",""
"","","","","","html-keyboard-response","163","166189","0.0-82.0","19","1","2025-02-02 03:14:40","bc01a2b6f61d06f6604adb8657495020","69.250.72.32","Mozilla/5.0 (Macintosh; Intel Mac OS X 10_15_7) AppleWebKit/605.1.15 (KHTML, like Gecko) Version/17.5 Safari/605.1.15","Macintosh","Safari","17.5","OS X","10_15_7","https://app.prolific.com/","en-US,en;q=0.9","62e057323b4ee04dd8f508f6","679edb085803f58d6bbd31ca","679ee31196d08f1e19688ad4","","null","<img    src='G_8.jpg' height='90'> <img    src='G_2.jpg' height='90'> <img     src='G_4.jpg' height='90'> <img     src='G_1.jpg' height='90'> <img     src='G_3.jpg' height='90'> <img src='G_6.jpg' height='90'> <img src='G_7.jpg' height='90'> <img src='G_5.jpg' height='90'>","null","Animation1","",""
"","","","","","html-keyboard-response","164","166697","0.0-83.0","19","1","2025-02-02 03:14:40","bc01a2b6f61d06f6604adb8657495020","69.250.72.32","Mozilla/5.0 (Macintosh; Intel Mac OS X 10_15_7) AppleWebKit/605.1.15 (KHTML, like Gecko) Version/17.5 Safari/605.1.15","Macintosh","Safari","17.5","OS X","10_15_7","https://app.prolific.com/","en-US,en;q=0.9","62e057323b4ee04dd8f508f6","679edb085803f58d6bbd31ca","679ee31196d08f1e19688ad4","","null","<img id='selected'    src='G_8.jpg' height='90'> <img    src='G_2.jpg' height='90'> <img     src='G_4.jpg' height='90'> <img     src='G_1.jpg' height='90'> <img     src='G_3.jpg' height='90'> <img src='G_6.jpg' height='90'> <img src='G_7.jpg' height='90'> <img src='G_5.jpg' height='90'>","null","Animation1","",""
"","","","","","html-keyboard-response","165","167204","0.0-84.0","19","1","2025-02-02 03:14:40","bc01a2b6f61d06f6604adb8657495020","69.250.72.32","Mozilla/5.0 (Macintosh; Intel Mac OS X 10_15_7) AppleWebKit/605.1.15 (KHTML, like Gecko) Version/17.5 Safari/605.1.15","Macintosh","Safari","17.5","OS X","10_15_7","https://app.prolific.com/","en-US,en;q=0.9","62e057323b4ee04dd8f508f6","679edb085803f58d6bbd31ca","679ee31196d08f1e19688ad4","","null","<img id='selected'    src='G_8.jpg' height='90'> <img id='selected'    src='G_2.jpg' height='90'> <img     src='G_4.jpg' height='90'> <img     src='G_1.jpg' height='90'> <img     src='G_3.jpg' height='90'> <img src='G_6.jpg' height='90'> <img src='G_7.jpg' height='90'> <img src='G_5.jpg' height='90'>","null","Animation1","",""
"","","","","","html-keyboard-response","166","167712","0.0-85.0","19","1","2025-02-02 03:14:40","bc01a2b6f61d06f6604adb8657495020","69.250.72.32","Mozilla/5.0 (Macintosh; Intel Mac OS X 10_15_7) AppleWebKit/605.1.15 (KHTML, like Gecko) Version/17.5 Safari/605.1.15","Macintosh","Safari","17.5","OS X","10_15_7","https://app.prolific.com/","en-US,en;q=0.9","62e057323b4ee04dd8f508f6","679edb085803f58d6bbd31ca","679ee31196d08f1e19688ad4","","null","<img id='selected'    src='G_8.jpg' height='90'> <img id='selected'    src='G_2.jpg' height='90'> <img     src='G_4.jpg' height='90'> <img     src='G_1.jpg' height='90'> <img     src='G_3.jpg' height='90'> <img src='G_6.jpg' height='90'> <img src='G_7.jpg' height='90'> <img src='G_5.jpg' height='90'>","null","Animation1","",""
