"success","timeout","failed_images","failed_audio","failed_video","trial_type","trial_index","time_elapsed","internal_node_id","run_id","condition","recorded_at","source_code_version","ip","user_agent","device","browser","browser_version","platform","platform_version","referer","accept_language","PROLIFIC_PID","STUDY_ID","SESSION_ID","view_history","rt","stimulus","response","phase","question_order","presented_choices"
"true","false","[]","[]","[]","preload","0","801","0.0-0.0","20","1","2025-02-02 03:17:52","bc01a2b6f61d06f6604adb8657495020","73.57.151.40","Mozilla/5.0 (Windows NT 10.0; Win64; x64; rv:134.0) Gecko/20100101 Firefox/134.0","","Firefox","134.0","Windows","10.0","https://app.prolific.com/","en-US,en;q=0.5","5d9264f527fdac00158fd876","679edb085803f58d6bbd31ca","679ee3cd66bc98b63378ed06","","","","","","",""
"","","","","","instructions","1","6175","0.0-1.0","20","1","2025-02-02 03:17:52","bc01a2b6f61d06f6604adb8657495020","73.57.151.40","Mozilla/5.0 (Windows NT 10.0; Win64; x64; rv:134.0) Gecko/20100101 Firefox/134.0","","Firefox","134.0","Windows","10.0","https://app.prolific.com/","en-US,en;q=0.5","5d9264f527fdac00158fd876","679edb085803f58d6bbd31ca","679ee3cd66bc98b63378ed06","[{""page_index"":0,""viewing_time"":5372}]","5372","","","","",""
"","","","","","html-keyboard-response","2","6701","0.0-2.0","20","1","2025-02-02 03:17:52","bc01a2b6f61d06f6604adb8657495020","73.57.151.40","Mozilla/5.0 (Windows NT 10.0; Win64; x64; rv:134.0) Gecko/20100101 Firefox/134.0","","Firefox","134.0","Windows","10.0","https://app.prolific.com/","en-US,en;q=0.5","5d9264f527fdac00158fd876","679edb085803f58d6bbd31ca","679ee3cd66bc98b63378ed06","","null","<p> + <p/>","null","","",""
"","","","","","instructions","3","28945","0.0-3.0","20","1","2025-02-02 03:17:52","bc01a2b6f61d06f6604adb8657495020","73.57.151.40","Mozilla/5.0 (Windows NT 10.0; Win64; x64; rv:134.0) Gecko/20100101 Firefox/134.0","","Firefox","134.0","Windows","10.0","https://app.prolific.com/","en-US,en;q=0.5","5d9264f527fdac00158fd876","679edb085803f58d6bbd31ca","679ee3cd66bc98b63378ed06","[{""page_index"":0,""viewing_time"":2474},{""page_index"":1,""viewing_time"":5321},{""page_index"":2,""viewing_time"":4952},{""page_index"":3,""viewing_time"":2926},{""page_index"":4,""viewing_time"":6569}]","22242","","","","",""
"","","","","","html-button-response","4","39900","0.0-4.0-0.0-0.0","20","1","2025-02-02 03:17:52","bc01a2b6f61d06f6604adb8657495020","73.57.151.40","Mozilla/5.0 (Windows NT 10.0; Win64; x64; rv:134.0) Gecko/20100101 Firefox/134.0","","Firefox","134.0","Windows","10.0","https://app.prolific.com/","en-US,en;q=0.5","5d9264f527fdac00158fd876","679edb085803f58d6bbd31ca","679ee3cd66bc98b63378ed06","","10953","","0","Intro Trial","",""
"","","","","","html-button-response","5","40985","0.0-4.1-0.1-0.1","20","1","2025-02-02 03:17:52","bc01a2b6f61d06f6604adb8657495020","73.57.151.40","Mozilla/5.0 (Windows NT 10.0; Win64; x64; rv:134.0) Gecko/20100101 Firefox/134.0","","Firefox","134.0","Windows","10.0","https://app.prolific.com/","en-US,en;q=0.5","5d9264f527fdac00158fd876","679edb085803f58d6bbd31ca","679ee3cd66bc98b63378ed06","","1082","","1","Intro Trial","",""
"","","","","","html-button-response","6","45961","0.0-4.2-0.2-0.2","20","1","2025-02-02 03:17:52","bc01a2b6f61d06f6604adb8657495020","73.57.151.40","Mozilla/5.0 (Windows NT 10.0; Win64; x64; rv:134.0) Gecko/20100101 Firefox/134.0","","Firefox","134.0","Windows","10.0","https://app.prolific.com/","en-US,en;q=0.5","5d9264f527fdac00158fd876","679edb085803f58d6bbd31ca","679ee3cd66bc98b63378ed06","","4974","","3","Intro Trial","",""
"","","","","","html-button-response","7","46063","0.0-4.3-0.3-0.3","20","1","2025-02-02 03:17:52","bc01a2b6f61d06f6604adb8657495020","73.57.151.40","Mozilla/5.0 (Windows NT 10.0; Win64; x64; rv:134.0) Gecko/20100101 Firefox/134.0","","Firefox","134.0","Windows","10.0","https://app.prolific.com/","en-US,en;q=0.5","5d9264f527fdac00158fd876","679edb085803f58d6bbd31ca","679ee3cd66bc98b63378ed06","","99","","3","Intro Trial","",""
"","","","","","html-button-response","8","47211","0.0-4.4-0.4-0.4","20","1","2025-02-02 03:17:52","bc01a2b6f61d06f6604adb8657495020","73.57.151.40","Mozilla/5.0 (Windows NT 10.0; Win64; x64; rv:134.0) Gecko/20100101 Firefox/134.0","","Firefox","134.0","Windows","10.0","https://app.prolific.com/","en-US,en;q=0.5","5d9264f527fdac00158fd876","679edb085803f58d6bbd31ca","679ee3cd66bc98b63378ed06","","1147","","0","Intro Trial","",""
"","","","","","html-button-response","9","48906","0.0-4.5-0.5-0.5","20","1","2025-02-02 03:17:52","bc01a2b6f61d06f6604adb8657495020","73.57.151.40","Mozilla/5.0 (Windows NT 10.0; Win64; x64; rv:134.0) Gecko/20100101 Firefox/134.0","","Firefox","134.0","Windows","10.0","https://app.prolific.com/","en-US,en;q=0.5","5d9264f527fdac00158fd876","679edb085803f58d6bbd31ca","679ee3cd66bc98b63378ed06","","1692","","0","Intro Trial","",""
"","","","","","html-button-response","10","51850","0.0-4.6-0.6-0.6","20","1","2025-02-02 03:17:52","bc01a2b6f61d06f6604adb8657495020","73.57.151.40","Mozilla/5.0 (Windows NT 10.0; Win64; x64; rv:134.0) Gecko/20100101 Firefox/134.0","","Firefox","134.0","Windows","10.0","https://app.prolific.com/","en-US,en;q=0.5","5d9264f527fdac00158fd876","679edb085803f58d6bbd31ca","679ee3cd66bc98b63378ed06","","2941","","3","Intro Trial","",""
"","","","","","html-button-response","11","53008","0.0-4.7-0.7-0.7","20","1","2025-02-02 03:17:52","bc01a2b6f61d06f6604adb8657495020","73.57.151.40","Mozilla/5.0 (Windows NT 10.0; Win64; x64; rv:134.0) Gecko/20100101 Firefox/134.0","","Firefox","134.0","Windows","10.0","https://app.prolific.com/","en-US,en;q=0.5","5d9264f527fdac00158fd876","679edb085803f58d6bbd31ca","679ee3cd66bc98b63378ed06","","1157","","1","Intro Trial","",""
"","","","","","html-button-response","12","54590","0.0-4.8-0.8-0.8","20","1","2025-02-02 03:17:52","bc01a2b6f61d06f6604adb8657495020","73.57.151.40","Mozilla/5.0 (Windows NT 10.0; Win64; x64; rv:134.0) Gecko/20100101 Firefox/134.0","","Firefox","134.0","Windows","10.0","https://app.prolific.com/","en-US,en;q=0.5","5d9264f527fdac00158fd876","679edb085803f58d6bbd31ca","679ee3cd66bc98b63378ed06","","1580","","3","Intro Trial","",""
"","","","","","html-button-response","13","55115","0.0-4.9-0.9-0.9","20","1","2025-02-02 03:17:52","bc01a2b6f61d06f6604adb8657495020","73.57.151.40","Mozilla/5.0 (Windows NT 10.0; Win64; x64; rv:134.0) Gecko/20100101 Firefox/134.0","","Firefox","134.0","Windows","10.0","https://app.prolific.com/","en-US,en;q=0.5","5d9264f527fdac00158fd876","679edb085803f58d6bbd31ca","679ee3cd66bc98b63378ed06","","523","","1","Intro Trial","",""
"","","","","","html-button-response","14","55211","0.0-4.10-0.10-0.10","20","1","2025-02-02 03:17:52","bc01a2b6f61d06f6604adb8657495020","73.57.151.40","Mozilla/5.0 (Windows NT 10.0; Win64; x64; rv:134.0) Gecko/20100101 Firefox/134.0","","Firefox","134.0","Windows","10.0","https://app.prolific.com/","en-US,en;q=0.5","5d9264f527fdac00158fd876","679edb085803f58d6bbd31ca","679ee3cd66bc98b63378ed06","","93","","1","Intro Trial","",""
"","","","","","html-button-response","15","56847","0.0-4.11-0.11-0.11","20","1","2025-02-02 03:17:52","bc01a2b6f61d06f6604adb8657495020","73.57.151.40","Mozilla/5.0 (Windows NT 10.0; Win64; x64; rv:134.0) Gecko/20100101 Firefox/134.0","","Firefox","134.0","Windows","10.0","https://app.prolific.com/","en-US,en;q=0.5","5d9264f527fdac00158fd876","679edb085803f58d6bbd31ca","679ee3cd66bc98b63378ed06","","1635","","3","Intro Trial","",""
"","","","","","html-button-response","16","57856","0.0-4.12-0.12-0.12","20","1","2025-02-02 03:17:52","bc01a2b6f61d06f6604adb8657495020","73.57.151.40","Mozilla/5.0 (Windows NT 10.0; Win64; x64; rv:134.0) Gecko/20100101 Firefox/134.0","","Firefox","134.0","Windows","10.0","https://app.prolific.com/","en-US,en;q=0.5","5d9264f527fdac00158fd876","679edb085803f58d6bbd31ca","679ee3cd66bc98b63378ed06","","1005","","3","Intro Trial","",""
"","","","","","html-button-response","17","58038","0.0-4.13-0.13-0.13","20","1","2025-02-02 03:17:52","bc01a2b6f61d06f6604adb8657495020","73.57.151.40","Mozilla/5.0 (Windows NT 10.0; Win64; x64; rv:134.0) Gecko/20100101 Firefox/134.0","","Firefox","134.0","Windows","10.0","https://app.prolific.com/","en-US,en;q=0.5","5d9264f527fdac00158fd876","679edb085803f58d6bbd31ca","679ee3cd66bc98b63378ed06","","179","","3","Intro Trial","",""
"","","","","","html-button-response","18","58525","0.0-4.14-0.14-0.14","20","1","2025-02-02 03:17:52","bc01a2b6f61d06f6604adb8657495020","73.57.151.40","Mozilla/5.0 (Windows NT 10.0; Win64; x64; rv:134.0) Gecko/20100101 Firefox/134.0","","Firefox","134.0","Windows","10.0","https://app.prolific.com/","en-US,en;q=0.5","5d9264f527fdac00158fd876","679edb085803f58d6bbd31ca","679ee3cd66bc98b63378ed06","","485","","3","Intro Trial","",""
"","","","","","html-button-response","19","64169","0.0-4.15-0.15-0.15","20","1","2025-02-02 03:17:52","bc01a2b6f61d06f6604adb8657495020","73.57.151.40","Mozilla/5.0 (Windows NT 10.0; Win64; x64; rv:134.0) Gecko/20100101 Firefox/134.0","","Firefox","134.0","Windows","10.0","https://app.prolific.com/","en-US,en;q=0.5","5d9264f527fdac00158fd876","679edb085803f58d6bbd31ca","679ee3cd66bc98b63378ed06","","5642","","1","Intro Trial","",""
"","","","","","html-button-response","20","65328","0.0-4.16-0.16-0.16","20","1","2025-02-02 03:17:52","bc01a2b6f61d06f6604adb8657495020","73.57.151.40","Mozilla/5.0 (Windows NT 10.0; Win64; x64; rv:134.0) Gecko/20100101 Firefox/134.0","","Firefox","134.0","Windows","10.0","https://app.prolific.com/","en-US,en;q=0.5","5d9264f527fdac00158fd876","679edb085803f58d6bbd31ca","679ee3cd66bc98b63378ed06","","1156","","3","Intro Trial","",""
"","","","","","html-button-response","21","68530","0.0-4.17-0.17-0.17","20","1","2025-02-02 03:17:52","bc01a2b6f61d06f6604adb8657495020","73.57.151.40","Mozilla/5.0 (Windows NT 10.0; Win64; x64; rv:134.0) Gecko/20100101 Firefox/134.0","","Firefox","134.0","Windows","10.0","https://app.prolific.com/","en-US,en;q=0.5","5d9264f527fdac00158fd876","679edb085803f58d6bbd31ca","679ee3cd66bc98b63378ed06","","3197","","2","Intro Trial","",""
"","","","","","html-button-response","22","69374","0.0-4.18-0.18-0.18","20","1","2025-02-02 03:17:52","bc01a2b6f61d06f6604adb8657495020","73.57.151.40","Mozilla/5.0 (Windows NT 10.0; Win64; x64; rv:134.0) Gecko/20100101 Firefox/134.0","","Firefox","134.0","Windows","10.0","https://app.prolific.com/","en-US,en;q=0.5","5d9264f527fdac00158fd876","679edb085803f58d6bbd31ca","679ee3cd66bc98b63378ed06","","839","","2","Intro Trial","",""
"","","","","","html-button-response","23","69915","0.0-4.19-0.19-0.19","20","1","2025-02-02 03:17:52","bc01a2b6f61d06f6604adb8657495020","73.57.151.40","Mozilla/5.0 (Windows NT 10.0; Win64; x64; rv:134.0) Gecko/20100101 Firefox/134.0","","Firefox","134.0","Windows","10.0","https://app.prolific.com/","en-US,en;q=0.5","5d9264f527fdac00158fd876","679edb085803f58d6bbd31ca","679ee3cd66bc98b63378ed06","","538","","3","Intro Trial","",""
"","","","","","html-button-response","24","70870","0.0-4.20-0.20-0.20","20","1","2025-02-02 03:17:52","bc01a2b6f61d06f6604adb8657495020","73.57.151.40","Mozilla/5.0 (Windows NT 10.0; Win64; x64; rv:134.0) Gecko/20100101 Firefox/134.0","","Firefox","134.0","Windows","10.0","https://app.prolific.com/","en-US,en;q=0.5","5d9264f527fdac00158fd876","679edb085803f58d6bbd31ca","679ee3cd66bc98b63378ed06","","952","","2","Intro Trial","",""
"","","","","","html-button-response","25","71301","0.0-4.21-0.21-0.21","20","1","2025-02-02 03:17:52","bc01a2b6f61d06f6604adb8657495020","73.57.151.40","Mozilla/5.0 (Windows NT 10.0; Win64; x64; rv:134.0) Gecko/20100101 Firefox/134.0","","Firefox","134.0","Windows","10.0","https://app.prolific.com/","en-US,en;q=0.5","5d9264f527fdac00158fd876","679edb085803f58d6bbd31ca","679ee3cd66bc98b63378ed06","","430","","3","Intro Trial","",""
"","","","","","html-button-response","26","72253","0.0-4.22-0.22-0.22","20","1","2025-02-02 03:17:52","bc01a2b6f61d06f6604adb8657495020","73.57.151.40","Mozilla/5.0 (Windows NT 10.0; Win64; x64; rv:134.0) Gecko/20100101 Firefox/134.0","","Firefox","134.0","Windows","10.0","https://app.prolific.com/","en-US,en;q=0.5","5d9264f527fdac00158fd876","679edb085803f58d6bbd31ca","679ee3cd66bc98b63378ed06","","949","","3","Intro Trial","",""
"","","","","","html-button-response","27","72696","0.0-4.23-0.23-0.23","20","1","2025-02-02 03:17:52","bc01a2b6f61d06f6604adb8657495020","73.57.151.40","Mozilla/5.0 (Windows NT 10.0; Win64; x64; rv:134.0) Gecko/20100101 Firefox/134.0","","Firefox","134.0","Windows","10.0","https://app.prolific.com/","en-US,en;q=0.5","5d9264f527fdac00158fd876","679edb085803f58d6bbd31ca","679ee3cd66bc98b63378ed06","","440","","2","Intro Trial","",""
"","","","","","html-button-response","28","73489","0.0-4.24-0.24-0.24","20","1","2025-02-02 03:17:52","bc01a2b6f61d06f6604adb8657495020","73.57.151.40","Mozilla/5.0 (Windows NT 10.0; Win64; x64; rv:134.0) Gecko/20100101 Firefox/134.0","","Firefox","134.0","Windows","10.0","https://app.prolific.com/","en-US,en;q=0.5","5d9264f527fdac00158fd876","679edb085803f58d6bbd31ca","679ee3cd66bc98b63378ed06","","791","","3","Intro Trial","",""
"","","","","","html-button-response","29","74002","0.0-4.25-0.25-0.25","20","1","2025-02-02 03:17:52","bc01a2b6f61d06f6604adb8657495020","73.57.151.40","Mozilla/5.0 (Windows NT 10.0; Win64; x64; rv:134.0) Gecko/20100101 Firefox/134.0","","Firefox","134.0","Windows","10.0","https://app.prolific.com/","en-US,en;q=0.5","5d9264f527fdac00158fd876","679edb085803f58d6bbd31ca","679ee3cd66bc98b63378ed06","","510","","2","Intro Trial","",""
"","","","","","html-button-response","30","75055","0.0-4.26-0.26-0.26","20","1","2025-02-02 03:17:52","bc01a2b6f61d06f6604adb8657495020","73.57.151.40","Mozilla/5.0 (Windows NT 10.0; Win64; x64; rv:134.0) Gecko/20100101 Firefox/134.0","","Firefox","134.0","Windows","10.0","https://app.prolific.com/","en-US,en;q=0.5","5d9264f527fdac00158fd876","679edb085803f58d6bbd31ca","679ee3cd66bc98b63378ed06","","1050","","4","Intro Trial","",""
"","","","","","html-button-response","31","75955","0.0-4.27-0.27-0.27","20","1","2025-02-02 03:17:52","bc01a2b6f61d06f6604adb8657495020","73.57.151.40","Mozilla/5.0 (Windows NT 10.0; Win64; x64; rv:134.0) Gecko/20100101 Firefox/134.0","","Firefox","134.0","Windows","10.0","https://app.prolific.com/","en-US,en;q=0.5","5d9264f527fdac00158fd876","679edb085803f58d6bbd31ca","679ee3cd66bc98b63378ed06","","897","","1","Intro Trial","",""
"","","","","","html-button-response","32","77732","0.0-4.28-0.28-0.28","20","1","2025-02-02 03:17:52","bc01a2b6f61d06f6604adb8657495020","73.57.151.40","Mozilla/5.0 (Windows NT 10.0; Win64; x64; rv:134.0) Gecko/20100101 Firefox/134.0","","Firefox","134.0","Windows","10.0","https://app.prolific.com/","en-US,en;q=0.5","5d9264f527fdac00158fd876","679edb085803f58d6bbd31ca","679ee3cd66bc98b63378ed06","","1774","","4","Intro Trial","",""
"","","","","","html-button-response","33","78552","0.0-4.29-0.29-0.29","20","1","2025-02-02 03:17:52","bc01a2b6f61d06f6604adb8657495020","73.57.151.40","Mozilla/5.0 (Windows NT 10.0; Win64; x64; rv:134.0) Gecko/20100101 Firefox/134.0","","Firefox","134.0","Windows","10.0","https://app.prolific.com/","en-US,en;q=0.5","5d9264f527fdac00158fd876","679edb085803f58d6bbd31ca","679ee3cd66bc98b63378ed06","","817","","1","Intro Trial","",""
"","","","","","html-button-response","34","80069","0.0-4.30-0.30-0.30","20","1","2025-02-02 03:17:52","bc01a2b6f61d06f6604adb8657495020","73.57.151.40","Mozilla/5.0 (Windows NT 10.0; Win64; x64; rv:134.0) Gecko/20100101 Firefox/134.0","","Firefox","134.0","Windows","10.0","https://app.prolific.com/","en-US,en;q=0.5","5d9264f527fdac00158fd876","679edb085803f58d6bbd31ca","679ee3cd66bc98b63378ed06","","1516","","1","Intro Trial","",""
"","","","","","html-button-response","35","81378","0.0-4.31-0.31-0.31","20","1","2025-02-02 03:17:52","bc01a2b6f61d06f6604adb8657495020","73.57.151.40","Mozilla/5.0 (Windows NT 10.0; Win64; x64; rv:134.0) Gecko/20100101 Firefox/134.0","","Firefox","134.0","Windows","10.0","https://app.prolific.com/","en-US,en;q=0.5","5d9264f527fdac00158fd876","679edb085803f58d6bbd31ca","679ee3cd66bc98b63378ed06","","1306","","4","Intro Trial","",""
"","","","","","html-button-response","36","88743","0.0-4.32-0.32-0.32","20","1","2025-02-02 03:17:52","bc01a2b6f61d06f6604adb8657495020","73.57.151.40","Mozilla/5.0 (Windows NT 10.0; Win64; x64; rv:134.0) Gecko/20100101 Firefox/134.0","","Firefox","134.0","Windows","10.0","https://app.prolific.com/","en-US,en;q=0.5","5d9264f527fdac00158fd876","679edb085803f58d6bbd31ca","679ee3cd66bc98b63378ed06","","7364","","5","Intro Trial","",""
"","","","","","html-keyboard-response","37","109521","0.0-5.0","20","1","2025-02-02 03:17:52","bc01a2b6f61d06f6604adb8657495020","73.57.151.40","Mozilla/5.0 (Windows NT 10.0; Win64; x64; rv:134.0) Gecko/20100101 Firefox/134.0","","Firefox","134.0","Windows","10.0","https://app.prolific.com/","en-US,en;q=0.5","5d9264f527fdac00158fd876","679edb085803f58d6bbd31ca","679ee3cd66bc98b63378ed06","","20774","[""You sorted incorrectly by using the balance 13 times. <br><br> <img src='G_2.jpg' height='90'><img src='G_5.jpg' height='90'><img src='G_3.jpg' height='90'><img src='G_4.jpg' height='90'><img src='G_1.jpg' height='90'><br><br> Your final order is 2,1,3,5,4<br><br><br>Omgne Sort in this game will allow you to sort correctly by using the balance 8 times. Press Enter to learn it!""]","enter","","",""
"","","","","","html-keyboard-response","38","111850","0.0-6.0","20","1","2025-02-02 03:17:52","bc01a2b6f61d06f6604adb8657495020","73.57.151.40","Mozilla/5.0 (Windows NT 10.0; Win64; x64; rv:134.0) Gecko/20100101 Firefox/134.0","","Firefox","134.0","Windows","10.0","https://app.prolific.com/","en-US,en;q=0.5","5d9264f527fdac00158fd876","679edb085803f58d6bbd31ca","679ee3cd66bc98b63378ed06","","2327","<p>Welcome to the learning phase! <br><br> You will learn by six examples. The following learning trials will not be used to calculate your performance. <br><br> Press Enter to continue.<p/>","enter","","",""
"","","","","","html-keyboard-response","39","113448","0.0-7.0","20","1","2025-02-02 03:17:52","bc01a2b6f61d06f6604adb8657495020","73.57.151.40","Mozilla/5.0 (Windows NT 10.0; Win64; x64; rv:134.0) Gecko/20100101 Firefox/134.0","","Firefox","134.0","Windows","10.0","https://app.prolific.com/","en-US,en;q=0.5","5d9264f527fdac00158fd876","679edb085803f58d6bbd31ca","679ee3cd66bc98b63378ed06","","1596","[""Example 1<br><br>You will watch Omnge Sort in action. Try to identify any patterns in the comparisons made by this method. <br><br>Press Enter to continue.""]","enter","","",""
"","","","","","html-keyboard-response","40","113951","0.0-8.0","20","1","2025-02-02 03:17:52","bc01a2b6f61d06f6604adb8657495020","73.57.151.40","Mozilla/5.0 (Windows NT 10.0; Win64; x64; rv:134.0) Gecko/20100101 Firefox/134.0","","Firefox","134.0","Windows","10.0","https://app.prolific.com/","en-US,en;q=0.5","5d9264f527fdac00158fd876","679edb085803f58d6bbd31ca","679ee3cd66bc98b63378ed06","","null","<img id='selected' src='G_1.jpg' height='90'> <img src='G_5.jpg' height='90'> <img src='G_9.jpg' height='90'> <img src='G_3.jpg' height='90'> <img src='G_7.jpg' height='90'>","null","Animation0","",""
"","","","","","html-keyboard-response","41","114464","0.0-9.0","20","1","2025-02-02 03:17:52","bc01a2b6f61d06f6604adb8657495020","73.57.151.40","Mozilla/5.0 (Windows NT 10.0; Win64; x64; rv:134.0) Gecko/20100101 Firefox/134.0","","Firefox","134.0","Windows","10.0","https://app.prolific.com/","en-US,en;q=0.5","5d9264f527fdac00158fd876","679edb085803f58d6bbd31ca","679ee3cd66bc98b63378ed06","","null","<img id='selected' src='G_1.jpg' height='90'> <img id='selected' src='G_5.jpg' height='90'> <img src='G_9.jpg' height='90'> <img src='G_3.jpg' height='90'> <img src='G_7.jpg' height='90'>","null","Animation0","",""
"","","","","","html-keyboard-response","42","114973","0.0-10.0","20","1","2025-02-02 03:17:52","bc01a2b6f61d06f6604adb8657495020","73.57.151.40","Mozilla/5.0 (Windows NT 10.0; Win64; x64; rv:134.0) Gecko/20100101 Firefox/134.0","","Firefox","134.0","Windows","10.0","https://app.prolific.com/","en-US,en;q=0.5","5d9264f527fdac00158fd876","679edb085803f58d6bbd31ca","679ee3cd66bc98b63378ed06","","null","<img id='swapped' src='G_5.jpg' height='90'> <img id='swapped' src='G_1.jpg' height='90'> <img src='G_9.jpg' height='90'> <img src='G_3.jpg' height='90'> <img src='G_7.jpg' height='90'>","null","Animation0","",""
"","","","","","html-keyboard-response","43","115287","0.0-11.0","20","1","2025-02-02 03:17:52","bc01a2b6f61d06f6604adb8657495020","73.57.151.40","Mozilla/5.0 (Windows NT 10.0; Win64; x64; rv:134.0) Gecko/20100101 Firefox/134.0","","Firefox","134.0","Windows","10.0","https://app.prolific.com/","en-US,en;q=0.5","5d9264f527fdac00158fd876","679edb085803f58d6bbd31ca","679ee3cd66bc98b63378ed06","","null","<img  src='G_5.jpg' height='90'> <img  src='G_1.jpg' height='90'> <img src='G_9.jpg' height='90'> <img src='G_3.jpg' height='90'> <img src='G_7.jpg' height='90'>","null","Animation0","",""
"","","","","","html-keyboard-response","44","115804","0.0-12.0","20","1","2025-02-02 03:17:52","bc01a2b6f61d06f6604adb8657495020","73.57.151.40","Mozilla/5.0 (Windows NT 10.0; Win64; x64; rv:134.0) Gecko/20100101 Firefox/134.0","","Firefox","134.0","Windows","10.0","https://app.prolific.com/","en-US,en;q=0.5","5d9264f527fdac00158fd876","679edb085803f58d6bbd31ca","679ee3cd66bc98b63378ed06","","null","<img  src='G_5.jpg' height='90'> <img id='selected'  src='G_1.jpg' height='90'> <img src='G_9.jpg' height='90'> <img src='G_3.jpg' height='90'> <img src='G_7.jpg' height='90'>","null","Animation0","",""
"","","","","","html-keyboard-response","45","116317","0.0-13.0","20","1","2025-02-02 03:17:52","bc01a2b6f61d06f6604adb8657495020","73.57.151.40","Mozilla/5.0 (Windows NT 10.0; Win64; x64; rv:134.0) Gecko/20100101 Firefox/134.0","","Firefox","134.0","Windows","10.0","https://app.prolific.com/","en-US,en;q=0.5","5d9264f527fdac00158fd876","679edb085803f58d6bbd31ca","679ee3cd66bc98b63378ed06","","null","<img  src='G_5.jpg' height='90'> <img id='selected'  src='G_1.jpg' height='90'> <img id='selected' src='G_9.jpg' height='90'> <img src='G_3.jpg' height='90'> <img src='G_7.jpg' height='90'>","null","Animation0","",""
"","","","","","html-keyboard-response","46","116831","0.0-14.0","20","1","2025-02-02 03:17:52","bc01a2b6f61d06f6604adb8657495020","73.57.151.40","Mozilla/5.0 (Windows NT 10.0; Win64; x64; rv:134.0) Gecko/20100101 Firefox/134.0","","Firefox","134.0","Windows","10.0","https://app.prolific.com/","en-US,en;q=0.5","5d9264f527fdac00158fd876","679edb085803f58d6bbd31ca","679ee3cd66bc98b63378ed06","","null","<img  src='G_5.jpg' height='90'> <img id='selected'  src='G_1.jpg' height='90'> <img id='selected' src='G_9.jpg' height='90'> <img src='G_3.jpg' height='90'> <img src='G_7.jpg' height='90'>","null","Animation0","",""
"","","","","","html-keyboard-response","47","117142","0.0-15.0","20","1","2025-02-02 03:17:52","bc01a2b6f61d06f6604adb8657495020","73.57.151.40","Mozilla/5.0 (Windows NT 10.0; Win64; x64; rv:134.0) Gecko/20100101 Firefox/134.0","","Firefox","134.0","Windows","10.0","https://app.prolific.com/","en-US,en;q=0.5","5d9264f527fdac00158fd876","679edb085803f58d6bbd31ca","679ee3cd66bc98b63378ed06","","null","<img  src='G_5.jpg' height='90'> <img   src='G_1.jpg' height='90'> <img  src='G_9.jpg' height='90'> <img src='G_3.jpg' height='90'> <img src='G_7.jpg' height='90'>","null","Animation0","",""
"","","","","","html-keyboard-response","48","117653","0.0-16.0","20","1","2025-02-02 03:17:52","bc01a2b6f61d06f6604adb8657495020","73.57.151.40","Mozilla/5.0 (Windows NT 10.0; Win64; x64; rv:134.0) Gecko/20100101 Firefox/134.0","","Firefox","134.0","Windows","10.0","https://app.prolific.com/","en-US,en;q=0.5","5d9264f527fdac00158fd876","679edb085803f58d6bbd31ca","679ee3cd66bc98b63378ed06","","null","<img  src='G_5.jpg' height='90'> <img   src='G_1.jpg' height='90'> <img id='selected'  src='G_9.jpg' height='90'> <img src='G_3.jpg' height='90'> <img src='G_7.jpg' height='90'>","null","Animation0","",""
"","","","","","html-keyboard-response","49","118159","0.0-17.0","20","1","2025-02-02 03:17:52","bc01a2b6f61d06f6604adb8657495020","73.57.151.40","Mozilla/5.0 (Windows NT 10.0; Win64; x64; rv:134.0) Gecko/20100101 Firefox/134.0","","Firefox","134.0","Windows","10.0","https://app.prolific.com/","en-US,en;q=0.5","5d9264f527fdac00158fd876","679edb085803f58d6bbd31ca","679ee3cd66bc98b63378ed06","","null","<img  src='G_5.jpg' height='90'> <img   src='G_1.jpg' height='90'> <img id='selected'  src='G_9.jpg' height='90'> <img id='selected' src='G_3.jpg' height='90'> <img src='G_7.jpg' height='90'>","null","Animation0","",""
"","","","","","html-keyboard-response","50","118724","0.0-18.0","20","1","2025-02-02 03:17:52","bc01a2b6f61d06f6604adb8657495020","73.57.151.40","Mozilla/5.0 (Windows NT 10.0; Win64; x64; rv:134.0) Gecko/20100101 Firefox/134.0","","Firefox","134.0","Windows","10.0","https://app.prolific.com/","en-US,en;q=0.5","5d9264f527fdac00158fd876","679edb085803f58d6bbd31ca","679ee3cd66bc98b63378ed06","","null","<img  src='G_5.jpg' height='90'> <img   src='G_1.jpg' height='90'> <img id='selected'  src='G_9.jpg' height='90'> <img id='selected' src='G_3.jpg' height='90'> <img src='G_7.jpg' height='90'>","null","Animation0","",""
"","","","","","html-keyboard-response","51","119038","0.0-19.0","20","1","2025-02-02 03:17:52","bc01a2b6f61d06f6604adb8657495020","73.57.151.40","Mozilla/5.0 (Windows NT 10.0; Win64; x64; rv:134.0) Gecko/20100101 Firefox/134.0","","Firefox","134.0","Windows","10.0","https://app.prolific.com/","en-US,en;q=0.5","5d9264f527fdac00158fd876","679edb085803f58d6bbd31ca","679ee3cd66bc98b63378ed06","","null","<img  src='G_5.jpg' height='90'> <img   src='G_1.jpg' height='90'> <img   src='G_9.jpg' height='90'> <img  src='G_3.jpg' height='90'> <img src='G_7.jpg' height='90'>","null","Animation0","",""
"","","","","","html-keyboard-response","52","119548","0.0-20.0","20","1","2025-02-02 03:17:52","bc01a2b6f61d06f6604adb8657495020","73.57.151.40","Mozilla/5.0 (Windows NT 10.0; Win64; x64; rv:134.0) Gecko/20100101 Firefox/134.0","","Firefox","134.0","Windows","10.0","https://app.prolific.com/","en-US,en;q=0.5","5d9264f527fdac00158fd876","679edb085803f58d6bbd31ca","679ee3cd66bc98b63378ed06","","null","<img  src='G_5.jpg' height='90'> <img   src='G_1.jpg' height='90'> <img   src='G_9.jpg' height='90'> <img id='selected'  src='G_3.jpg' height='90'> <img src='G_7.jpg' height='90'>","null","Animation0","",""
"","","","","","html-keyboard-response","53","120053","0.0-21.0","20","1","2025-02-02 03:17:52","bc01a2b6f61d06f6604adb8657495020","73.57.151.40","Mozilla/5.0 (Windows NT 10.0; Win64; x64; rv:134.0) Gecko/20100101 Firefox/134.0","","Firefox","134.0","Windows","10.0","https://app.prolific.com/","en-US,en;q=0.5","5d9264f527fdac00158fd876","679edb085803f58d6bbd31ca","679ee3cd66bc98b63378ed06","","null","<img  src='G_5.jpg' height='90'> <img   src='G_1.jpg' height='90'> <img   src='G_9.jpg' height='90'> <img id='selected'  src='G_3.jpg' height='90'> <img id='selected' src='G_7.jpg' height='90'>","null","Animation0","",""
"","","","","","html-keyboard-response","54","120563","0.0-22.0","20","1","2025-02-02 03:17:52","bc01a2b6f61d06f6604adb8657495020","73.57.151.40","Mozilla/5.0 (Windows NT 10.0; Win64; x64; rv:134.0) Gecko/20100101 Firefox/134.0","","Firefox","134.0","Windows","10.0","https://app.prolific.com/","en-US,en;q=0.5","5d9264f527fdac00158fd876","679edb085803f58d6bbd31ca","679ee3cd66bc98b63378ed06","","null","<img  src='G_5.jpg' height='90'> <img   src='G_1.jpg' height='90'> <img   src='G_9.jpg' height='90'> <img id='selected'  src='G_3.jpg' height='90'> <img id='selected' src='G_7.jpg' height='90'>","null","Animation0","",""
"","","","","","html-keyboard-response","55","120877","0.0-23.0","20","1","2025-02-02 03:17:52","bc01a2b6f61d06f6604adb8657495020","73.57.151.40","Mozilla/5.0 (Windows NT 10.0; Win64; x64; rv:134.0) Gecko/20100101 Firefox/134.0","","Firefox","134.0","Windows","10.0","https://app.prolific.com/","en-US,en;q=0.5","5d9264f527fdac00158fd876","679edb085803f58d6bbd31ca","679ee3cd66bc98b63378ed06","","null","<img  src='G_5.jpg' height='90'> <img   src='G_1.jpg' height='90'> <img   src='G_9.jpg' height='90'> <img   src='G_3.jpg' height='90'> <img  src='G_7.jpg' height='90'>","null","Animation0","",""
"","","","","","html-keyboard-response","56","124540","0.0-24.0","20","1","2025-02-02 03:17:52","bc01a2b6f61d06f6604adb8657495020","73.57.151.40","Mozilla/5.0 (Windows NT 10.0; Win64; x64; rv:134.0) Gecko/20100101 Firefox/134.0","","Firefox","134.0","Windows","10.0","https://app.prolific.com/","en-US,en;q=0.5","5d9264f527fdac00158fd876","679edb085803f58d6bbd31ca","679ee3cd66bc98b63378ed06","","3661","[""Did you notice any patterns? <br><br>Press Enter to watch that example again and follow the steps of Omgne Sort.""]","enter","","",""
"","","","","","html-button-response","57","124953","0.0-25.0","20","1","2025-02-02 03:17:52","bc01a2b6f61d06f6604adb8657495020","73.57.151.40","Mozilla/5.0 (Windows NT 10.0; Win64; x64; rv:134.0) Gecko/20100101 Firefox/134.0","","Firefox","134.0","Windows","10.0","https://app.prolific.com/","en-US,en;q=0.5","5d9264f527fdac00158fd876","679edb085803f58d6bbd31ca","679ee3cd66bc98b63378ed06","","null","<img id='selected' src='G_1.jpg' height='90'> <img src='G_5.jpg' height='90'> <img src='G_9.jpg' height='90'> <img src='G_3.jpg' height='90'> <img src='G_7.jpg' height='90'>","null","Learning example 0","",""
"","","","","","html-button-response","58","125263","0.0-26.0","20","1","2025-02-02 03:17:52","bc01a2b6f61d06f6604adb8657495020","73.57.151.40","Mozilla/5.0 (Windows NT 10.0; Win64; x64; rv:134.0) Gecko/20100101 Firefox/134.0","","Firefox","134.0","Windows","10.0","https://app.prolific.com/","en-US,en;q=0.5","5d9264f527fdac00158fd876","679edb085803f58d6bbd31ca","679ee3cd66bc98b63378ed06","","null","<img id='selected' src='G_1.jpg' height='90'> <img id='selected' src='G_5.jpg' height='90'> <img src='G_9.jpg' height='90'> <img src='G_3.jpg' height='90'> <img src='G_7.jpg' height='90'>","null","Learning example 0","",""
"","","","","","html-button-response","59","125578","0.0-27.0","20","1","2025-02-02 03:17:52","bc01a2b6f61d06f6604adb8657495020","73.57.151.40","Mozilla/5.0 (Windows NT 10.0; Win64; x64; rv:134.0) Gecko/20100101 Firefox/134.0","","Firefox","134.0","Windows","10.0","https://app.prolific.com/","en-US,en;q=0.5","5d9264f527fdac00158fd876","679edb085803f58d6bbd31ca","679ee3cd66bc98b63378ed06","","null","<img id='swapped' src='G_5.jpg' height='90'> <img id='swapped' src='G_1.jpg' height='90'> <img src='G_9.jpg' height='90'> <img src='G_3.jpg' height='90'> <img src='G_7.jpg' height='90'>","null","Learning example 0","",""
"","","","","","html-button-response","60","163388","0.0-28.0-0.0-0.0","20","1","2025-02-02 03:17:52","bc01a2b6f61d06f6604adb8657495020","73.57.151.40","Mozilla/5.0 (Windows NT 10.0; Win64; x64; rv:134.0) Gecko/20100101 Firefox/134.0","","Firefox","134.0","Windows","10.0","https://app.prolific.com/","en-US,en;q=0.5","5d9264f527fdac00158fd876","679edb085803f58d6bbd31ca","679ee3cd66bc98b63378ed06","","37803","<img id='swapped' src='G_5.jpg' height='90'> <img id='swapped' src='G_1.jpg' height='90'> <img src='G_9.jpg' height='90'> <img src='G_3.jpg' height='90'> <img src='G_7.jpg' height='90'>","0","Learning example 0","",""
"","","","","","html-button-response","61","165688","0.0-28.1-0.1-0.1","20","1","2025-02-02 03:17:52","bc01a2b6f61d06f6604adb8657495020","73.57.151.40","Mozilla/5.0 (Windows NT 10.0; Win64; x64; rv:134.0) Gecko/20100101 Firefox/134.0","","Firefox","134.0","Windows","10.0","https://app.prolific.com/","en-US,en;q=0.5","5d9264f527fdac00158fd876","679edb085803f58d6bbd31ca","679ee3cd66bc98b63378ed06","","2293","<img id='swapped' src='G_5.jpg' height='90'> <img id='swapped' src='G_1.jpg' height='90'> <img src='G_9.jpg' height='90'> <img src='G_3.jpg' height='90'> <img src='G_7.jpg' height='90'>","2","Learning example 0","",""
"","","","","","html-button-response","62","166750","0.0-28.2-0.2-0.2","20","1","2025-02-02 03:17:52","bc01a2b6f61d06f6604adb8657495020","73.57.151.40","Mozilla/5.0 (Windows NT 10.0; Win64; x64; rv:134.0) Gecko/20100101 Firefox/134.0","","Firefox","134.0","Windows","10.0","https://app.prolific.com/","en-US,en;q=0.5","5d9264f527fdac00158fd876","679edb085803f58d6bbd31ca","679ee3cd66bc98b63378ed06","","1058","<img id='swapped' src='G_5.jpg' height='90'> <img id='swapped' src='G_1.jpg' height='90'> <img src='G_9.jpg' height='90'> <img src='G_3.jpg' height='90'> <img src='G_7.jpg' height='90'>","2","Learning example 0","",""
"","","","","","html-button-response","63","167506","0.0-28.3-0.3-0.3","20","1","2025-02-02 03:17:52","bc01a2b6f61d06f6604adb8657495020","73.57.151.40","Mozilla/5.0 (Windows NT 10.0; Win64; x64; rv:134.0) Gecko/20100101 Firefox/134.0","","Firefox","134.0","Windows","10.0","https://app.prolific.com/","en-US,en;q=0.5","5d9264f527fdac00158fd876","679edb085803f58d6bbd31ca","679ee3cd66bc98b63378ed06","","752","<img id='swapped' src='G_5.jpg' height='90'> <img id='swapped' src='G_1.jpg' height='90'> <img src='G_9.jpg' height='90'> <img src='G_3.jpg' height='90'> <img src='G_7.jpg' height='90'>","1","Learning example 0","",""
"","","","","","html-button-response","64","169883","0.0-28.4-0.4-0.4","20","1","2025-02-02 03:17:52","bc01a2b6f61d06f6604adb8657495020","73.57.151.40","Mozilla/5.0 (Windows NT 10.0; Win64; x64; rv:134.0) Gecko/20100101 Firefox/134.0","","Firefox","134.0","Windows","10.0","https://app.prolific.com/","en-US,en;q=0.5","5d9264f527fdac00158fd876","679edb085803f58d6bbd31ca","679ee3cd66bc98b63378ed06","","2375","<img id='swapped' src='G_5.jpg' height='90'> <img id='swapped' src='G_1.jpg' height='90'> <img src='G_9.jpg' height='90'> <img src='G_3.jpg' height='90'> <img src='G_7.jpg' height='90'>","0","Learning example 0","",""
"","","","","","html-button-response","65","170087","0.0-29.0","20","1","2025-02-02 03:17:52","bc01a2b6f61d06f6604adb8657495020","73.57.151.40","Mozilla/5.0 (Windows NT 10.0; Win64; x64; rv:134.0) Gecko/20100101 Firefox/134.0","","Firefox","134.0","Windows","10.0","https://app.prolific.com/","en-US,en;q=0.5","5d9264f527fdac00158fd876","679edb085803f58d6bbd31ca","679ee3cd66bc98b63378ed06","","null","<img  src='G_5.jpg' height='90'> <img  src='G_1.jpg' height='90'> <img src='G_9.jpg' height='90'> <img src='G_3.jpg' height='90'> <img src='G_7.jpg' height='90'>","null","Learning example 0","",""
"","","","","","html-button-response","66","170494","0.0-30.0","20","1","2025-02-02 03:17:52","bc01a2b6f61d06f6604adb8657495020","73.57.151.40","Mozilla/5.0 (Windows NT 10.0; Win64; x64; rv:134.0) Gecko/20100101 Firefox/134.0","","Firefox","134.0","Windows","10.0","https://app.prolific.com/","en-US,en;q=0.5","5d9264f527fdac00158fd876","679edb085803f58d6bbd31ca","679ee3cd66bc98b63378ed06","","null","<img  src='G_5.jpg' height='90'> <img id='selected'  src='G_1.jpg' height='90'> <img src='G_9.jpg' height='90'> <img src='G_3.jpg' height='90'> <img src='G_7.jpg' height='90'>","null","Learning example 0","",""
"","","","","","html-button-response","67","170800","0.0-31.0","20","1","2025-02-02 03:17:52","bc01a2b6f61d06f6604adb8657495020","73.57.151.40","Mozilla/5.0 (Windows NT 10.0; Win64; x64; rv:134.0) Gecko/20100101 Firefox/134.0","","Firefox","134.0","Windows","10.0","https://app.prolific.com/","en-US,en;q=0.5","5d9264f527fdac00158fd876","679edb085803f58d6bbd31ca","679ee3cd66bc98b63378ed06","","null","<img  src='G_5.jpg' height='90'> <img id='selected'  src='G_1.jpg' height='90'> <img id='selected' src='G_9.jpg' height='90'> <img src='G_3.jpg' height='90'> <img src='G_7.jpg' height='90'>","null","Learning example 0","",""
"","","","","","html-button-response","68","171110","0.0-32.0","20","1","2025-02-02 03:17:52","bc01a2b6f61d06f6604adb8657495020","73.57.151.40","Mozilla/5.0 (Windows NT 10.0; Win64; x64; rv:134.0) Gecko/20100101 Firefox/134.0","","Firefox","134.0","Windows","10.0","https://app.prolific.com/","en-US,en;q=0.5","5d9264f527fdac00158fd876","679edb085803f58d6bbd31ca","679ee3cd66bc98b63378ed06","","null","<img  src='G_5.jpg' height='90'> <img id='selected'  src='G_1.jpg' height='90'> <img id='selected' src='G_9.jpg' height='90'> <img src='G_3.jpg' height='90'> <img src='G_7.jpg' height='90'>","null","Learning example 0","",""
"","","","","","html-button-response","69","175836","0.0-33.0-0.0-0.0","20","1","2025-02-02 03:17:52","bc01a2b6f61d06f6604adb8657495020","73.57.151.40","Mozilla/5.0 (Windows NT 10.0; Win64; x64; rv:134.0) Gecko/20100101 Firefox/134.0","","Firefox","134.0","Windows","10.0","https://app.prolific.com/","en-US,en;q=0.5","5d9264f527fdac00158fd876","679edb085803f58d6bbd31ca","679ee3cd66bc98b63378ed06","","4723","<img  src='G_5.jpg' height='90'> <img id='selected'  src='G_1.jpg' height='90'> <img id='selected' src='G_9.jpg' height='90'> <img src='G_3.jpg' height='90'> <img src='G_7.jpg' height='90'>","2","Learning example 0","",""
"","","","","","html-button-response","70","175928","0.0-33.1-0.1-0.1","20","1","2025-02-02 03:17:52","bc01a2b6f61d06f6604adb8657495020","73.57.151.40","Mozilla/5.0 (Windows NT 10.0; Win64; x64; rv:134.0) Gecko/20100101 Firefox/134.0","","Firefox","134.0","Windows","10.0","https://app.prolific.com/","en-US,en;q=0.5","5d9264f527fdac00158fd876","679edb085803f58d6bbd31ca","679ee3cd66bc98b63378ed06","","89","<img  src='G_5.jpg' height='90'> <img id='selected'  src='G_1.jpg' height='90'> <img id='selected' src='G_9.jpg' height='90'> <img src='G_3.jpg' height='90'> <img src='G_7.jpg' height='90'>","2","Learning example 0","",""
"","","","","","html-button-response","71","177472","0.0-33.2-0.2-0.2","20","1","2025-02-02 03:17:52","bc01a2b6f61d06f6604adb8657495020","73.57.151.40","Mozilla/5.0 (Windows NT 10.0; Win64; x64; rv:134.0) Gecko/20100101 Firefox/134.0","","Firefox","134.0","Windows","10.0","https://app.prolific.com/","en-US,en;q=0.5","5d9264f527fdac00158fd876","679edb085803f58d6bbd31ca","679ee3cd66bc98b63378ed06","","1539","<img  src='G_5.jpg' height='90'> <img id='selected'  src='G_1.jpg' height='90'> <img id='selected' src='G_9.jpg' height='90'> <img src='G_3.jpg' height='90'> <img src='G_7.jpg' height='90'>","4","Learning example 0","",""
"","","","","","html-button-response","72","178425","0.0-33.3-0.3-0.3","20","1","2025-02-02 03:17:52","bc01a2b6f61d06f6604adb8657495020","73.57.151.40","Mozilla/5.0 (Windows NT 10.0; Win64; x64; rv:134.0) Gecko/20100101 Firefox/134.0","","Firefox","134.0","Windows","10.0","https://app.prolific.com/","en-US,en;q=0.5","5d9264f527fdac00158fd876","679edb085803f58d6bbd31ca","679ee3cd66bc98b63378ed06","","949","<img  src='G_5.jpg' height='90'> <img id='selected'  src='G_1.jpg' height='90'> <img id='selected' src='G_9.jpg' height='90'> <img src='G_3.jpg' height='90'> <img src='G_7.jpg' height='90'>","4","Learning example 0","",""
"","","","","","html-button-response","73","178914","0.0-33.4-0.4-0.4","20","1","2025-02-02 03:17:52","bc01a2b6f61d06f6604adb8657495020","73.57.151.40","Mozilla/5.0 (Windows NT 10.0; Win64; x64; rv:134.0) Gecko/20100101 Firefox/134.0","","Firefox","134.0","Windows","10.0","https://app.prolific.com/","en-US,en;q=0.5","5d9264f527fdac00158fd876","679edb085803f58d6bbd31ca","679ee3cd66bc98b63378ed06","","485","<img  src='G_5.jpg' height='90'> <img id='selected'  src='G_1.jpg' height='90'> <img id='selected' src='G_9.jpg' height='90'> <img src='G_3.jpg' height='90'> <img src='G_7.jpg' height='90'>","3","Learning example 0","",""
"","","","","","html-button-response","74","179684","0.0-33.5-0.5-0.5","20","1","2025-02-02 03:17:52","bc01a2b6f61d06f6604adb8657495020","73.57.151.40","Mozilla/5.0 (Windows NT 10.0; Win64; x64; rv:134.0) Gecko/20100101 Firefox/134.0","","Firefox","134.0","Windows","10.0","https://app.prolific.com/","en-US,en;q=0.5","5d9264f527fdac00158fd876","679edb085803f58d6bbd31ca","679ee3cd66bc98b63378ed06","","765","<img  src='G_5.jpg' height='90'> <img id='selected'  src='G_1.jpg' height='90'> <img id='selected' src='G_9.jpg' height='90'> <img src='G_3.jpg' height='90'> <img src='G_7.jpg' height='90'>","3","Learning example 0","",""
"","","","","","html-button-response","75","180195","0.0-33.6-0.6-0.6","20","1","2025-02-02 03:17:52","bc01a2b6f61d06f6604adb8657495020","73.57.151.40","Mozilla/5.0 (Windows NT 10.0; Win64; x64; rv:134.0) Gecko/20100101 Firefox/134.0","","Firefox","134.0","Windows","10.0","https://app.prolific.com/","en-US,en;q=0.5","5d9264f527fdac00158fd876","679edb085803f58d6bbd31ca","679ee3cd66bc98b63378ed06","","509","<img  src='G_5.jpg' height='90'> <img id='selected'  src='G_1.jpg' height='90'> <img id='selected' src='G_9.jpg' height='90'> <img src='G_3.jpg' height='90'> <img src='G_7.jpg' height='90'>","4","Learning example 0","",""
"","","","","","html-button-response","76","181298","0.0-33.7-0.7-0.7","20","1","2025-02-02 03:17:52","bc01a2b6f61d06f6604adb8657495020","73.57.151.40","Mozilla/5.0 (Windows NT 10.0; Win64; x64; rv:134.0) Gecko/20100101 Firefox/134.0","","Firefox","134.0","Windows","10.0","https://app.prolific.com/","en-US,en;q=0.5","5d9264f527fdac00158fd876","679edb085803f58d6bbd31ca","679ee3cd66bc98b63378ed06","","1099","<img  src='G_5.jpg' height='90'> <img id='selected'  src='G_1.jpg' height='90'> <img id='selected' src='G_9.jpg' height='90'> <img src='G_3.jpg' height='90'> <img src='G_7.jpg' height='90'>","2","Learning example 0","",""
"","","","","","html-button-response","77","181793","0.0-33.8-0.8-0.8","20","1","2025-02-02 03:17:52","bc01a2b6f61d06f6604adb8657495020","73.57.151.40","Mozilla/5.0 (Windows NT 10.0; Win64; x64; rv:134.0) Gecko/20100101 Firefox/134.0","","Firefox","134.0","Windows","10.0","https://app.prolific.com/","en-US,en;q=0.5","5d9264f527fdac00158fd876","679edb085803f58d6bbd31ca","679ee3cd66bc98b63378ed06","","491","<img  src='G_5.jpg' height='90'> <img id='selected'  src='G_1.jpg' height='90'> <img id='selected' src='G_9.jpg' height='90'> <img src='G_3.jpg' height='90'> <img src='G_7.jpg' height='90'>","3","Learning example 0","",""
"","","","","","html-button-response","78","182252","0.0-33.9-0.9-0.9","20","1","2025-02-02 03:17:52","bc01a2b6f61d06f6604adb8657495020","73.57.151.40","Mozilla/5.0 (Windows NT 10.0; Win64; x64; rv:134.0) Gecko/20100101 Firefox/134.0","","Firefox","134.0","Windows","10.0","https://app.prolific.com/","en-US,en;q=0.5","5d9264f527fdac00158fd876","679edb085803f58d6bbd31ca","679ee3cd66bc98b63378ed06","","454","<img  src='G_5.jpg' height='90'> <img id='selected'  src='G_1.jpg' height='90'> <img id='selected' src='G_9.jpg' height='90'> <img src='G_3.jpg' height='90'> <img src='G_7.jpg' height='90'>","4","Learning example 0","",""
"","","","","","html-button-response","79","182637","0.0-33.10-0.10-0.10","20","1","2025-02-02 03:17:52","bc01a2b6f61d06f6604adb8657495020","73.57.151.40","Mozilla/5.0 (Windows NT 10.0; Win64; x64; rv:134.0) Gecko/20100101 Firefox/134.0","","Firefox","134.0","Windows","10.0","https://app.prolific.com/","en-US,en;q=0.5","5d9264f527fdac00158fd876","679edb085803f58d6bbd31ca","679ee3cd66bc98b63378ed06","","383","<img  src='G_5.jpg' height='90'> <img id='selected'  src='G_1.jpg' height='90'> <img id='selected' src='G_9.jpg' height='90'> <img src='G_3.jpg' height='90'> <img src='G_7.jpg' height='90'>","3","Learning example 0","",""
"","","","","","html-button-response","80","183408","0.0-33.11-0.11-0.11","20","1","2025-02-02 03:17:52","bc01a2b6f61d06f6604adb8657495020","73.57.151.40","Mozilla/5.0 (Windows NT 10.0; Win64; x64; rv:134.0) Gecko/20100101 Firefox/134.0","","Firefox","134.0","Windows","10.0","https://app.prolific.com/","en-US,en;q=0.5","5d9264f527fdac00158fd876","679edb085803f58d6bbd31ca","679ee3cd66bc98b63378ed06","","766","<img  src='G_5.jpg' height='90'> <img id='selected'  src='G_1.jpg' height='90'> <img id='selected' src='G_9.jpg' height='90'> <img src='G_3.jpg' height='90'> <img src='G_7.jpg' height='90'>","1","Learning example 0","",""
"","","","","","html-button-response","81","184959","0.0-33.12-0.12-0.12","20","1","2025-02-02 03:17:52","bc01a2b6f61d06f6604adb8657495020","73.57.151.40","Mozilla/5.0 (Windows NT 10.0; Win64; x64; rv:134.0) Gecko/20100101 Firefox/134.0","","Firefox","134.0","Windows","10.0","https://app.prolific.com/","en-US,en;q=0.5","5d9264f527fdac00158fd876","679edb085803f58d6bbd31ca","679ee3cd66bc98b63378ed06","","1549","<img  src='G_5.jpg' height='90'> <img id='selected'  src='G_1.jpg' height='90'> <img id='selected' src='G_9.jpg' height='90'> <img src='G_3.jpg' height='90'> <img src='G_7.jpg' height='90'>","2","Learning example 0","",""
"","","","","","html-button-response","82","185174","0.0-34.0","20","1","2025-02-02 03:17:52","bc01a2b6f61d06f6604adb8657495020","73.57.151.40","Mozilla/5.0 (Windows NT 10.0; Win64; x64; rv:134.0) Gecko/20100101 Firefox/134.0","","Firefox","134.0","Windows","10.0","https://app.prolific.com/","en-US,en;q=0.5","5d9264f527fdac00158fd876","679edb085803f58d6bbd31ca","679ee3cd66bc98b63378ed06","","null","<img  src='G_5.jpg' height='90'> <img   src='G_1.jpg' height='90'> <img  src='G_9.jpg' height='90'> <img src='G_3.jpg' height='90'> <img src='G_7.jpg' height='90'>","null","Learning example 0","",""
"","","","","","html-button-response","83","185585","0.0-35.0","20","1","2025-02-02 03:17:52","bc01a2b6f61d06f6604adb8657495020","73.57.151.40","Mozilla/5.0 (Windows NT 10.0; Win64; x64; rv:134.0) Gecko/20100101 Firefox/134.0","","Firefox","134.0","Windows","10.0","https://app.prolific.com/","en-US,en;q=0.5","5d9264f527fdac00158fd876","679edb085803f58d6bbd31ca","679ee3cd66bc98b63378ed06","","null","<img  src='G_5.jpg' height='90'> <img   src='G_1.jpg' height='90'> <img id='selected'  src='G_9.jpg' height='90'> <img src='G_3.jpg' height='90'> <img src='G_7.jpg' height='90'>","null","Learning example 0","",""
"","","","","","html-button-response","84","185901","0.0-36.0","20","1","2025-02-02 03:17:52","bc01a2b6f61d06f6604adb8657495020","73.57.151.40","Mozilla/5.0 (Windows NT 10.0; Win64; x64; rv:134.0) Gecko/20100101 Firefox/134.0","","Firefox","134.0","Windows","10.0","https://app.prolific.com/","en-US,en;q=0.5","5d9264f527fdac00158fd876","679edb085803f58d6bbd31ca","679ee3cd66bc98b63378ed06","","null","<img  src='G_5.jpg' height='90'> <img   src='G_1.jpg' height='90'> <img id='selected'  src='G_9.jpg' height='90'> <img id='selected' src='G_3.jpg' height='90'> <img src='G_7.jpg' height='90'>","null","Learning example 0","",""
"","","","","","html-button-response","85","186246","0.0-37.0","20","1","2025-02-02 03:17:52","bc01a2b6f61d06f6604adb8657495020","73.57.151.40","Mozilla/5.0 (Windows NT 10.0; Win64; x64; rv:134.0) Gecko/20100101 Firefox/134.0","","Firefox","134.0","Windows","10.0","https://app.prolific.com/","en-US,en;q=0.5","5d9264f527fdac00158fd876","679edb085803f58d6bbd31ca","679ee3cd66bc98b63378ed06","","null","<img  src='G_5.jpg' height='90'> <img   src='G_1.jpg' height='90'> <img id='selected'  src='G_9.jpg' height='90'> <img id='selected' src='G_3.jpg' height='90'> <img src='G_7.jpg' height='90'>","null","Learning example 0","",""
"","","","","","html-button-response","86","187864","0.0-38.0-0.0-0.0","20","1","2025-02-02 03:17:52","bc01a2b6f61d06f6604adb8657495020","73.57.151.40","Mozilla/5.0 (Windows NT 10.0; Win64; x64; rv:134.0) Gecko/20100101 Firefox/134.0","","Firefox","134.0","Windows","10.0","https://app.prolific.com/","en-US,en;q=0.5","5d9264f527fdac00158fd876","679edb085803f58d6bbd31ca","679ee3cd66bc98b63378ed06","","1612","<img  src='G_5.jpg' height='90'> <img   src='G_1.jpg' height='90'> <img id='selected'  src='G_9.jpg' height='90'> <img id='selected' src='G_3.jpg' height='90'> <img src='G_7.jpg' height='90'>","3","Learning example 0","",""
"","","","","","html-button-response","87","187990","0.0-38.1-0.1-0.1","20","1","2025-02-02 03:17:52","bc01a2b6f61d06f6604adb8657495020","73.57.151.40","Mozilla/5.0 (Windows NT 10.0; Win64; x64; rv:134.0) Gecko/20100101 Firefox/134.0","","Firefox","134.0","Windows","10.0","https://app.prolific.com/","en-US,en;q=0.5","5d9264f527fdac00158fd876","679edb085803f58d6bbd31ca","679ee3cd66bc98b63378ed06","","122","<img  src='G_5.jpg' height='90'> <img   src='G_1.jpg' height='90'> <img id='selected'  src='G_9.jpg' height='90'> <img id='selected' src='G_3.jpg' height='90'> <img src='G_7.jpg' height='90'>","3","Learning example 0","",""
"","","","","","html-button-response","88","189541","0.0-38.2-0.2-0.2","20","1","2025-02-02 03:17:52","bc01a2b6f61d06f6604adb8657495020","73.57.151.40","Mozilla/5.0 (Windows NT 10.0; Win64; x64; rv:134.0) Gecko/20100101 Firefox/134.0","","Firefox","134.0","Windows","10.0","https://app.prolific.com/","en-US,en;q=0.5","5d9264f527fdac00158fd876","679edb085803f58d6bbd31ca","679ee3cd66bc98b63378ed06","","1548","<img  src='G_5.jpg' height='90'> <img   src='G_1.jpg' height='90'> <img id='selected'  src='G_9.jpg' height='90'> <img id='selected' src='G_3.jpg' height='90'> <img src='G_7.jpg' height='90'>","2","Learning example 0","",""
"","","","","","html-button-response","89","189750","0.0-39.0","20","1","2025-02-02 03:17:52","bc01a2b6f61d06f6604adb8657495020","73.57.151.40","Mozilla/5.0 (Windows NT 10.0; Win64; x64; rv:134.0) Gecko/20100101 Firefox/134.0","","Firefox","134.0","Windows","10.0","https://app.prolific.com/","en-US,en;q=0.5","5d9264f527fdac00158fd876","679edb085803f58d6bbd31ca","679ee3cd66bc98b63378ed06","","null","<img  src='G_5.jpg' height='90'> <img   src='G_1.jpg' height='90'> <img   src='G_9.jpg' height='90'> <img  src='G_3.jpg' height='90'> <img src='G_7.jpg' height='90'>","null","Learning example 0","",""
"","","","","","html-button-response","90","190159","0.0-40.0","20","1","2025-02-02 03:17:52","bc01a2b6f61d06f6604adb8657495020","73.57.151.40","Mozilla/5.0 (Windows NT 10.0; Win64; x64; rv:134.0) Gecko/20100101 Firefox/134.0","","Firefox","134.0","Windows","10.0","https://app.prolific.com/","en-US,en;q=0.5","5d9264f527fdac00158fd876","679edb085803f58d6bbd31ca","679ee3cd66bc98b63378ed06","","null","<img  src='G_5.jpg' height='90'> <img   src='G_1.jpg' height='90'> <img   src='G_9.jpg' height='90'> <img id='selected'  src='G_3.jpg' height='90'> <img src='G_7.jpg' height='90'>","null","Learning example 0","",""
"","","","","","html-button-response","91","190303","0.0-41.0","20","1","2025-02-02 03:17:52","bc01a2b6f61d06f6604adb8657495020","73.57.151.40","Mozilla/5.0 (Windows NT 10.0; Win64; x64; rv:134.0) Gecko/20100101 Firefox/134.0","","Firefox","134.0","Windows","10.0","https://app.prolific.com/","en-US,en;q=0.5","5d9264f527fdac00158fd876","679edb085803f58d6bbd31ca","679ee3cd66bc98b63378ed06","","139","<img  src='G_5.jpg' height='90'> <img   src='G_1.jpg' height='90'> <img   src='G_9.jpg' height='90'> <img id='selected'  src='G_3.jpg' height='90'> <img id='selected' src='G_7.jpg' height='90'>","3","Learning example 0","",""
"","","","","","html-button-response","92","190615","0.0-42.0","20","1","2025-02-02 03:17:52","bc01a2b6f61d06f6604adb8657495020","73.57.151.40","Mozilla/5.0 (Windows NT 10.0; Win64; x64; rv:134.0) Gecko/20100101 Firefox/134.0","","Firefox","134.0","Windows","10.0","https://app.prolific.com/","en-US,en;q=0.5","5d9264f527fdac00158fd876","679edb085803f58d6bbd31ca","679ee3cd66bc98b63378ed06","","null","<img  src='G_5.jpg' height='90'> <img   src='G_1.jpg' height='90'> <img   src='G_9.jpg' height='90'> <img id='selected'  src='G_3.jpg' height='90'> <img id='selected' src='G_7.jpg' height='90'>","null","Learning example 0","",""
"","","","","","html-button-response","93","193009","0.0-43.0-0.0-0.0","20","1","2025-02-02 03:17:52","bc01a2b6f61d06f6604adb8657495020","73.57.151.40","Mozilla/5.0 (Windows NT 10.0; Win64; x64; rv:134.0) Gecko/20100101 Firefox/134.0","","Firefox","134.0","Windows","10.0","https://app.prolific.com/","en-US,en;q=0.5","5d9264f527fdac00158fd876","679edb085803f58d6bbd31ca","679ee3cd66bc98b63378ed06","","2389","<img  src='G_5.jpg' height='90'> <img   src='G_1.jpg' height='90'> <img   src='G_9.jpg' height='90'> <img id='selected'  src='G_3.jpg' height='90'> <img id='selected' src='G_7.jpg' height='90'>","3","Learning example 0","",""
"","","","","","html-button-response","94","195886","0.0-43.1-0.1-0.1","20","1","2025-02-02 03:17:52","bc01a2b6f61d06f6604adb8657495020","73.57.151.40","Mozilla/5.0 (Windows NT 10.0; Win64; x64; rv:134.0) Gecko/20100101 Firefox/134.0","","Firefox","134.0","Windows","10.0","https://app.prolific.com/","en-US,en;q=0.5","5d9264f527fdac00158fd876","679edb085803f58d6bbd31ca","679ee3cd66bc98b63378ed06","","2874","<img  src='G_5.jpg' height='90'> <img   src='G_1.jpg' height='90'> <img   src='G_9.jpg' height='90'> <img id='selected'  src='G_3.jpg' height='90'> <img id='selected' src='G_7.jpg' height='90'>","4","Learning example 0","",""
"","","","","","html-button-response","95","196100","0.0-44.0","20","1","2025-02-02 03:17:52","bc01a2b6f61d06f6604adb8657495020","73.57.151.40","Mozilla/5.0 (Windows NT 10.0; Win64; x64; rv:134.0) Gecko/20100101 Firefox/134.0","","Firefox","134.0","Windows","10.0","https://app.prolific.com/","en-US,en;q=0.5","5d9264f527fdac00158fd876","679edb085803f58d6bbd31ca","679ee3cd66bc98b63378ed06","","null","<img  src='G_5.jpg' height='90'> <img   src='G_1.jpg' height='90'> <img   src='G_9.jpg' height='90'> <img   src='G_3.jpg' height='90'> <img  src='G_7.jpg' height='90'>","null","Learning example 0","",""
"","","","","","html-keyboard-response","96","198927","0.0-45.0","20","1","2025-02-02 03:17:52","bc01a2b6f61d06f6604adb8657495020","73.57.151.40","Mozilla/5.0 (Windows NT 10.0; Win64; x64; rv:134.0) Gecko/20100101 Firefox/134.0","","Firefox","134.0","Windows","10.0","https://app.prolific.com/","en-US,en;q=0.5","5d9264f527fdac00158fd876","679edb085803f58d6bbd31ca","679ee3cd66bc98b63378ed06","","2820","[""Final order was 1,2,3,4,5. The initial order was 2,1,3,4,5.<br>It took 1 swaps to sort it correctly with Omgne Sort. <br><br>Press Enter to continue.""]","enter","","",""
"","","","","","html-keyboard-response","97","200559","0.0-46.0","20","1","2025-02-02 03:17:52","bc01a2b6f61d06f6604adb8657495020","73.57.151.40","Mozilla/5.0 (Windows NT 10.0; Win64; x64; rv:134.0) Gecko/20100101 Firefox/134.0","","Firefox","134.0","Windows","10.0","https://app.prolific.com/","en-US,en;q=0.5","5d9264f527fdac00158fd876","679edb085803f58d6bbd31ca","679ee3cd66bc98b63378ed06","","1627","[""Example 2<br><br>You will watch Omnge Sort in action. Try to identify any patterns in the comparisons made by this method. <br><br>Press Enter to continue.""]","enter","","",""
"","","","","","html-keyboard-response","98","201070","0.0-47.0","20","1","2025-02-02 03:17:52","bc01a2b6f61d06f6604adb8657495020","73.57.151.40","Mozilla/5.0 (Windows NT 10.0; Win64; x64; rv:134.0) Gecko/20100101 Firefox/134.0","","Firefox","134.0","Windows","10.0","https://app.prolific.com/","en-US,en;q=0.5","5d9264f527fdac00158fd876","679edb085803f58d6bbd31ca","679ee3cd66bc98b63378ed06","","null","<img id='selected' src='G_1.jpg' height='90'> <img src='G_8.jpg' height='90'> <img src='G_6.jpg' height='90'> <img src='G_2.jpg' height='90'> <img src='G_4.jpg' height='90'> <img src='G_7.jpg' height='90'> <img src='G_5.jpg' height='90'> <img src='G_3.jpg' height='90'>","null","Animation1","",""
"","","","","","html-keyboard-response","99","201587","0.0-48.0","20","1","2025-02-02 03:17:52","bc01a2b6f61d06f6604adb8657495020","73.57.151.40","Mozilla/5.0 (Windows NT 10.0; Win64; x64; rv:134.0) Gecko/20100101 Firefox/134.0","","Firefox","134.0","Windows","10.0","https://app.prolific.com/","en-US,en;q=0.5","5d9264f527fdac00158fd876","679edb085803f58d6bbd31ca","679ee3cd66bc98b63378ed06","","null","<img id='selected' src='G_1.jpg' height='90'> <img id='selected' src='G_8.jpg' height='90'> <img src='G_6.jpg' height='90'> <img src='G_2.jpg' height='90'> <img src='G_4.jpg' height='90'> <img src='G_7.jpg' height='90'> <img src='G_5.jpg' height='90'> <img src='G_3.jpg' height='90'>","null","Animation1","",""
"","","","","","html-keyboard-response","100","202106","0.0-49.0","20","1","2025-02-02 03:17:52","bc01a2b6f61d06f6604adb8657495020","73.57.151.40","Mozilla/5.0 (Windows NT 10.0; Win64; x64; rv:134.0) Gecko/20100101 Firefox/134.0","","Firefox","134.0","Windows","10.0","https://app.prolific.com/","en-US,en;q=0.5","5d9264f527fdac00158fd876","679edb085803f58d6bbd31ca","679ee3cd66bc98b63378ed06","","null","<img id='selected' src='G_1.jpg' height='90'> <img id='selected' src='G_8.jpg' height='90'> <img src='G_6.jpg' height='90'> <img src='G_2.jpg' height='90'> <img src='G_4.jpg' height='90'> <img src='G_7.jpg' height='90'> <img src='G_5.jpg' height='90'> <img src='G_3.jpg' height='90'>","null","Animation1","",""
"","","","","","html-keyboard-response","101","202420","0.0-50.0","20","1","2025-02-02 03:17:52","bc01a2b6f61d06f6604adb8657495020","73.57.151.40","Mozilla/5.0 (Windows NT 10.0; Win64; x64; rv:134.0) Gecko/20100101 Firefox/134.0","","Firefox","134.0","Windows","10.0","https://app.prolific.com/","en-US,en;q=0.5","5d9264f527fdac00158fd876","679edb085803f58d6bbd31ca","679ee3cd66bc98b63378ed06","","null","<img  src='G_1.jpg' height='90'> <img  src='G_8.jpg' height='90'> <img src='G_6.jpg' height='90'> <img src='G_2.jpg' height='90'> <img src='G_4.jpg' height='90'> <img src='G_7.jpg' height='90'> <img src='G_5.jpg' height='90'> <img src='G_3.jpg' height='90'>","null","Animation1","",""
"","","","","","html-keyboard-response","102","202924","0.0-51.0","20","1","2025-02-02 03:17:52","bc01a2b6f61d06f6604adb8657495020","73.57.151.40","Mozilla/5.0 (Windows NT 10.0; Win64; x64; rv:134.0) Gecko/20100101 Firefox/134.0","","Firefox","134.0","Windows","10.0","https://app.prolific.com/","en-US,en;q=0.5","5d9264f527fdac00158fd876","679edb085803f58d6bbd31ca","679ee3cd66bc98b63378ed06","","null","<img  src='G_1.jpg' height='90'> <img id='selected'  src='G_8.jpg' height='90'> <img src='G_6.jpg' height='90'> <img src='G_2.jpg' height='90'> <img src='G_4.jpg' height='90'> <img src='G_7.jpg' height='90'> <img src='G_5.jpg' height='90'> <img src='G_3.jpg' height='90'>","null","Animation1","",""
"","","","","","html-keyboard-response","103","203444","0.0-52.0","20","1","2025-02-02 03:17:52","bc01a2b6f61d06f6604adb8657495020","73.57.151.40","Mozilla/5.0 (Windows NT 10.0; Win64; x64; rv:134.0) Gecko/20100101 Firefox/134.0","","Firefox","134.0","Windows","10.0","https://app.prolific.com/","en-US,en;q=0.5","5d9264f527fdac00158fd876","679edb085803f58d6bbd31ca","679ee3cd66bc98b63378ed06","","null","<img  src='G_1.jpg' height='90'> <img id='selected'  src='G_8.jpg' height='90'> <img id='selected' src='G_6.jpg' height='90'> <img src='G_2.jpg' height='90'> <img src='G_4.jpg' height='90'> <img src='G_7.jpg' height='90'> <img src='G_5.jpg' height='90'> <img src='G_3.jpg' height='90'>","null","Animation1","",""
"","","","","","html-keyboard-response","104","203962","0.0-53.0","20","1","2025-02-02 03:17:52","bc01a2b6f61d06f6604adb8657495020","73.57.151.40","Mozilla/5.0 (Windows NT 10.0; Win64; x64; rv:134.0) Gecko/20100101 Firefox/134.0","","Firefox","134.0","Windows","10.0","https://app.prolific.com/","en-US,en;q=0.5","5d9264f527fdac00158fd876","679edb085803f58d6bbd31ca","679ee3cd66bc98b63378ed06","","null","<img  src='G_1.jpg' height='90'> <img id='swapped' src='G_6.jpg' height='90'> <img id='swapped'  src='G_8.jpg' height='90'> <img src='G_2.jpg' height='90'> <img src='G_4.jpg' height='90'> <img src='G_7.jpg' height='90'> <img src='G_5.jpg' height='90'> <img src='G_3.jpg' height='90'>","null","Animation1","",""
"","","","","","html-keyboard-response","105","204276","0.0-54.0","20","1","2025-02-02 03:17:52","bc01a2b6f61d06f6604adb8657495020","73.57.151.40","Mozilla/5.0 (Windows NT 10.0; Win64; x64; rv:134.0) Gecko/20100101 Firefox/134.0","","Firefox","134.0","Windows","10.0","https://app.prolific.com/","en-US,en;q=0.5","5d9264f527fdac00158fd876","679edb085803f58d6bbd31ca","679ee3cd66bc98b63378ed06","","null","<img  src='G_1.jpg' height='90'> <img  src='G_6.jpg' height='90'> <img   src='G_8.jpg' height='90'> <img src='G_2.jpg' height='90'> <img src='G_4.jpg' height='90'> <img src='G_7.jpg' height='90'> <img src='G_5.jpg' height='90'> <img src='G_3.jpg' height='90'>","null","Animation1","",""
"","","","","","html-keyboard-response","106","204781","0.0-55.0","20","1","2025-02-02 03:17:52","bc01a2b6f61d06f6604adb8657495020","73.57.151.40","Mozilla/5.0 (Windows NT 10.0; Win64; x64; rv:134.0) Gecko/20100101 Firefox/134.0","","Firefox","134.0","Windows","10.0","https://app.prolific.com/","en-US,en;q=0.5","5d9264f527fdac00158fd876","679edb085803f58d6bbd31ca","679ee3cd66bc98b63378ed06","","null","<img id='selected'  src='G_1.jpg' height='90'> <img  src='G_6.jpg' height='90'> <img   src='G_8.jpg' height='90'> <img src='G_2.jpg' height='90'> <img src='G_4.jpg' height='90'> <img src='G_7.jpg' height='90'> <img src='G_5.jpg' height='90'> <img src='G_3.jpg' height='90'>","null","Animation1","",""
"","","","","","html-keyboard-response","107","205300","0.0-56.0","20","1","2025-02-02 03:17:52","bc01a2b6f61d06f6604adb8657495020","73.57.151.40","Mozilla/5.0 (Windows NT 10.0; Win64; x64; rv:134.0) Gecko/20100101 Firefox/134.0","","Firefox","134.0","Windows","10.0","https://app.prolific.com/","en-US,en;q=0.5","5d9264f527fdac00158fd876","679edb085803f58d6bbd31ca","679ee3cd66bc98b63378ed06","","null","<img id='selected'  src='G_1.jpg' height='90'> <img id='selected'  src='G_6.jpg' height='90'> <img   src='G_8.jpg' height='90'> <img src='G_2.jpg' height='90'> <img src='G_4.jpg' height='90'> <img src='G_7.jpg' height='90'> <img src='G_5.jpg' height='90'> <img src='G_3.jpg' height='90'>","null","Animation1","",""
"","","","","","html-keyboard-response","108","205819","0.0-57.0","20","1","2025-02-02 03:17:52","bc01a2b6f61d06f6604adb8657495020","73.57.151.40","Mozilla/5.0 (Windows NT 10.0; Win64; x64; rv:134.0) Gecko/20100101 Firefox/134.0","","Firefox","134.0","Windows","10.0","https://app.prolific.com/","en-US,en;q=0.5","5d9264f527fdac00158fd876","679edb085803f58d6bbd31ca","679ee3cd66bc98b63378ed06","","null","<img id='swapped'  src='G_6.jpg' height='90'> <img id='swapped'  src='G_1.jpg' height='90'> <img   src='G_8.jpg' height='90'> <img src='G_2.jpg' height='90'> <img src='G_4.jpg' height='90'> <img src='G_7.jpg' height='90'> <img src='G_5.jpg' height='90'> <img src='G_3.jpg' height='90'>","null","Animation1","",""
"","","","","","html-keyboard-response","109","206134","0.0-58.0","20","1","2025-02-02 03:17:52","bc01a2b6f61d06f6604adb8657495020","73.57.151.40","Mozilla/5.0 (Windows NT 10.0; Win64; x64; rv:134.0) Gecko/20100101 Firefox/134.0","","Firefox","134.0","Windows","10.0","https://app.prolific.com/","en-US,en;q=0.5","5d9264f527fdac00158fd876","679edb085803f58d6bbd31ca","679ee3cd66bc98b63378ed06","","null","<img   src='G_6.jpg' height='90'> <img   src='G_1.jpg' height='90'> <img   src='G_8.jpg' height='90'> <img src='G_2.jpg' height='90'> <img src='G_4.jpg' height='90'> <img src='G_7.jpg' height='90'> <img src='G_5.jpg' height='90'> <img src='G_3.jpg' height='90'>","null","Animation1","",""
"","","","","","html-keyboard-response","110","206652","0.0-59.0","20","1","2025-02-02 03:17:52","bc01a2b6f61d06f6604adb8657495020","73.57.151.40","Mozilla/5.0 (Windows NT 10.0; Win64; x64; rv:134.0) Gecko/20100101 Firefox/134.0","","Firefox","134.0","Windows","10.0","https://app.prolific.com/","en-US,en;q=0.5","5d9264f527fdac00158fd876","679edb085803f58d6bbd31ca","679ee3cd66bc98b63378ed06","","null","<img   src='G_6.jpg' height='90'> <img   src='G_1.jpg' height='90'> <img id='selected'   src='G_8.jpg' height='90'> <img src='G_2.jpg' height='90'> <img src='G_4.jpg' height='90'> <img src='G_7.jpg' height='90'> <img src='G_5.jpg' height='90'> <img src='G_3.jpg' height='90'>","null","Animation1","",""
"","","","","","html-keyboard-response","111","207171","0.0-60.0","20","1","2025-02-02 03:17:52","bc01a2b6f61d06f6604adb8657495020","73.57.151.40","Mozilla/5.0 (Windows NT 10.0; Win64; x64; rv:134.0) Gecko/20100101 Firefox/134.0","","Firefox","134.0","Windows","10.0","https://app.prolific.com/","en-US,en;q=0.5","5d9264f527fdac00158fd876","679edb085803f58d6bbd31ca","679ee3cd66bc98b63378ed06","","null","<img   src='G_6.jpg' height='90'> <img   src='G_1.jpg' height='90'> <img id='selected'   src='G_8.jpg' height='90'> <img id='selected' src='G_2.jpg' height='90'> <img src='G_4.jpg' height='90'> <img src='G_7.jpg' height='90'> <img src='G_5.jpg' height='90'> <img src='G_3.jpg' height='90'>","null","Animation1","",""
"","","","","","html-keyboard-response","112","207694","0.0-61.0","20","1","2025-02-02 03:17:52","bc01a2b6f61d06f6604adb8657495020","73.57.151.40","Mozilla/5.0 (Windows NT 10.0; Win64; x64; rv:134.0) Gecko/20100101 Firefox/134.0","","Firefox","134.0","Windows","10.0","https://app.prolific.com/","en-US,en;q=0.5","5d9264f527fdac00158fd876","679edb085803f58d6bbd31ca","679ee3cd66bc98b63378ed06","","null","<img   src='G_6.jpg' height='90'> <img   src='G_1.jpg' height='90'> <img id='swapped' src='G_2.jpg' height='90'> <img id='swapped'   src='G_8.jpg' height='90'> <img src='G_4.jpg' height='90'> <img src='G_7.jpg' height='90'> <img src='G_5.jpg' height='90'> <img src='G_3.jpg' height='90'>","null","Animation1","",""
"","","","","","html-keyboard-response","113","208008","0.0-62.0","20","1","2025-02-02 03:17:52","bc01a2b6f61d06f6604adb8657495020","73.57.151.40","Mozilla/5.0 (Windows NT 10.0; Win64; x64; rv:134.0) Gecko/20100101 Firefox/134.0","","Firefox","134.0","Windows","10.0","https://app.prolific.com/","en-US,en;q=0.5","5d9264f527fdac00158fd876","679edb085803f58d6bbd31ca","679ee3cd66bc98b63378ed06","","null","<img   src='G_6.jpg' height='90'> <img   src='G_1.jpg' height='90'> <img  src='G_2.jpg' height='90'> <img    src='G_8.jpg' height='90'> <img src='G_4.jpg' height='90'> <img src='G_7.jpg' height='90'> <img src='G_5.jpg' height='90'> <img src='G_3.jpg' height='90'>","null","Animation1","",""
"","","","","","html-keyboard-response","114","208530","0.0-63.0","20","1","2025-02-02 03:17:52","bc01a2b6f61d06f6604adb8657495020","73.57.151.40","Mozilla/5.0 (Windows NT 10.0; Win64; x64; rv:134.0) Gecko/20100101 Firefox/134.0","","Firefox","134.0","Windows","10.0","https://app.prolific.com/","en-US,en;q=0.5","5d9264f527fdac00158fd876","679edb085803f58d6bbd31ca","679ee3cd66bc98b63378ed06","","null","<img   src='G_6.jpg' height='90'> <img id='selected'   src='G_1.jpg' height='90'> <img  src='G_2.jpg' height='90'> <img    src='G_8.jpg' height='90'> <img src='G_4.jpg' height='90'> <img src='G_7.jpg' height='90'> <img src='G_5.jpg' height='90'> <img src='G_3.jpg' height='90'>","null","Animation1","",""
"","","","","","html-keyboard-response","115","209097","0.0-64.0","20","1","2025-02-02 03:17:52","bc01a2b6f61d06f6604adb8657495020","73.57.151.40","Mozilla/5.0 (Windows NT 10.0; Win64; x64; rv:134.0) Gecko/20100101 Firefox/134.0","","Firefox","134.0","Windows","10.0","https://app.prolific.com/","en-US,en;q=0.5","5d9264f527fdac00158fd876","679edb085803f58d6bbd31ca","679ee3cd66bc98b63378ed06","","null","<img   src='G_6.jpg' height='90'> <img id='selected'   src='G_1.jpg' height='90'> <img id='selected'  src='G_2.jpg' height='90'> <img    src='G_8.jpg' height='90'> <img src='G_4.jpg' height='90'> <img src='G_7.jpg' height='90'> <img src='G_5.jpg' height='90'> <img src='G_3.jpg' height='90'>","null","Animation1","",""
"","","","","","html-keyboard-response","116","209617","0.0-65.0","20","1","2025-02-02 03:17:52","bc01a2b6f61d06f6604adb8657495020","73.57.151.40","Mozilla/5.0 (Windows NT 10.0; Win64; x64; rv:134.0) Gecko/20100101 Firefox/134.0","","Firefox","134.0","Windows","10.0","https://app.prolific.com/","en-US,en;q=0.5","5d9264f527fdac00158fd876","679edb085803f58d6bbd31ca","679ee3cd66bc98b63378ed06","","null","<img   src='G_6.jpg' height='90'> <img id='swapped'  src='G_2.jpg' height='90'> <img id='swapped'   src='G_1.jpg' height='90'> <img    src='G_8.jpg' height='90'> <img src='G_4.jpg' height='90'> <img src='G_7.jpg' height='90'> <img src='G_5.jpg' height='90'> <img src='G_3.jpg' height='90'>","null","Animation1","",""
"","","","","","html-keyboard-response","117","209931","0.0-66.0","20","1","2025-02-02 03:17:52","bc01a2b6f61d06f6604adb8657495020","73.57.151.40","Mozilla/5.0 (Windows NT 10.0; Win64; x64; rv:134.0) Gecko/20100101 Firefox/134.0","","Firefox","134.0","Windows","10.0","https://app.prolific.com/","en-US,en;q=0.5","5d9264f527fdac00158fd876","679edb085803f58d6bbd31ca","679ee3cd66bc98b63378ed06","","null","<img   src='G_6.jpg' height='90'> <img   src='G_2.jpg' height='90'> <img    src='G_1.jpg' height='90'> <img    src='G_8.jpg' height='90'> <img src='G_4.jpg' height='90'> <img src='G_7.jpg' height='90'> <img src='G_5.jpg' height='90'> <img src='G_3.jpg' height='90'>","null","Animation1","",""
"","","","","","html-keyboard-response","118","210452","0.0-67.0","20","1","2025-02-02 03:17:52","bc01a2b6f61d06f6604adb8657495020","73.57.151.40","Mozilla/5.0 (Windows NT 10.0; Win64; x64; rv:134.0) Gecko/20100101 Firefox/134.0","","Firefox","134.0","Windows","10.0","https://app.prolific.com/","en-US,en;q=0.5","5d9264f527fdac00158fd876","679edb085803f58d6bbd31ca","679ee3cd66bc98b63378ed06","","null","<img id='selected'   src='G_6.jpg' height='90'> <img   src='G_2.jpg' height='90'> <img    src='G_1.jpg' height='90'> <img    src='G_8.jpg' height='90'> <img src='G_4.jpg' height='90'> <img src='G_7.jpg' height='90'> <img src='G_5.jpg' height='90'> <img src='G_3.jpg' height='90'>","null","Animation1","",""
"","","","","","html-keyboard-response","119","210972","0.0-68.0","20","1","2025-02-02 03:17:52","bc01a2b6f61d06f6604adb8657495020","73.57.151.40","Mozilla/5.0 (Windows NT 10.0; Win64; x64; rv:134.0) Gecko/20100101 Firefox/134.0","","Firefox","134.0","Windows","10.0","https://app.prolific.com/","en-US,en;q=0.5","5d9264f527fdac00158fd876","679edb085803f58d6bbd31ca","679ee3cd66bc98b63378ed06","","null","<img id='selected'   src='G_6.jpg' height='90'> <img id='selected'   src='G_2.jpg' height='90'> <img    src='G_1.jpg' height='90'> <img    src='G_8.jpg' height='90'> <img src='G_4.jpg' height='90'> <img src='G_7.jpg' height='90'> <img src='G_5.jpg' height='90'> <img src='G_3.jpg' height='90'>","null","Animation1","",""
"","","","","","html-keyboard-response","120","211491","0.0-69.0","20","1","2025-02-02 03:17:52","bc01a2b6f61d06f6604adb8657495020","73.57.151.40","Mozilla/5.0 (Windows NT 10.0; Win64; x64; rv:134.0) Gecko/20100101 Firefox/134.0","","Firefox","134.0","Windows","10.0","https://app.prolific.com/","en-US,en;q=0.5","5d9264f527fdac00158fd876","679edb085803f58d6bbd31ca","679ee3cd66bc98b63378ed06","","null","<img id='swapped'   src='G_2.jpg' height='90'> <img id='swapped'   src='G_6.jpg' height='90'> <img    src='G_1.jpg' height='90'> <img    src='G_8.jpg' height='90'> <img src='G_4.jpg' height='90'> <img src='G_7.jpg' height='90'> <img src='G_5.jpg' height='90'> <img src='G_3.jpg' height='90'>","null","Animation1","",""
"","","","","","html-keyboard-response","121","211805","0.0-70.0","20","1","2025-02-02 03:17:52","bc01a2b6f61d06f6604adb8657495020","73.57.151.40","Mozilla/5.0 (Windows NT 10.0; Win64; x64; rv:134.0) Gecko/20100101 Firefox/134.0","","Firefox","134.0","Windows","10.0","https://app.prolific.com/","en-US,en;q=0.5","5d9264f527fdac00158fd876","679edb085803f58d6bbd31ca","679ee3cd66bc98b63378ed06","","null","<img    src='G_2.jpg' height='90'> <img    src='G_6.jpg' height='90'> <img    src='G_1.jpg' height='90'> <img    src='G_8.jpg' height='90'> <img src='G_4.jpg' height='90'> <img src='G_7.jpg' height='90'> <img src='G_5.jpg' height='90'> <img src='G_3.jpg' height='90'>","null","Animation1","",""
"","","","","","html-keyboard-response","122","212326","0.0-71.0","20","1","2025-02-02 03:17:52","bc01a2b6f61d06f6604adb8657495020","73.57.151.40","Mozilla/5.0 (Windows NT 10.0; Win64; x64; rv:134.0) Gecko/20100101 Firefox/134.0","","Firefox","134.0","Windows","10.0","https://app.prolific.com/","en-US,en;q=0.5","5d9264f527fdac00158fd876","679edb085803f58d6bbd31ca","679ee3cd66bc98b63378ed06","","null","<img    src='G_2.jpg' height='90'> <img    src='G_6.jpg' height='90'> <img    src='G_1.jpg' height='90'> <img id='selected'    src='G_8.jpg' height='90'> <img src='G_4.jpg' height='90'> <img src='G_7.jpg' height='90'> <img src='G_5.jpg' height='90'> <img src='G_3.jpg' height='90'>","null","Animation1","",""
"","","","","","html-keyboard-response","123","212836","0.0-72.0","20","1","2025-02-02 03:17:52","bc01a2b6f61d06f6604adb8657495020","73.57.151.40","Mozilla/5.0 (Windows NT 10.0; Win64; x64; rv:134.0) Gecko/20100101 Firefox/134.0","","Firefox","134.0","Windows","10.0","https://app.prolific.com/","en-US,en;q=0.5","5d9264f527fdac00158fd876","679edb085803f58d6bbd31ca","679ee3cd66bc98b63378ed06","","null","<img    src='G_2.jpg' height='90'> <img    src='G_6.jpg' height='90'> <img    src='G_1.jpg' height='90'> <img id='selected'    src='G_8.jpg' height='90'> <img id='selected' src='G_4.jpg' height='90'> <img src='G_7.jpg' height='90'> <img src='G_5.jpg' height='90'> <img src='G_3.jpg' height='90'>","null","Animation1","",""
"","","","","","html-keyboard-response","124","213357","0.0-73.0","20","1","2025-02-02 03:17:52","bc01a2b6f61d06f6604adb8657495020","73.57.151.40","Mozilla/5.0 (Windows NT 10.0; Win64; x64; rv:134.0) Gecko/20100101 Firefox/134.0","","Firefox","134.0","Windows","10.0","https://app.prolific.com/","en-US,en;q=0.5","5d9264f527fdac00158fd876","679edb085803f58d6bbd31ca","679ee3cd66bc98b63378ed06","","null","<img    src='G_2.jpg' height='90'> <img    src='G_6.jpg' height='90'> <img    src='G_1.jpg' height='90'> <img id='swapped' src='G_4.jpg' height='90'> <img id='swapped'    src='G_8.jpg' height='90'> <img src='G_7.jpg' height='90'> <img src='G_5.jpg' height='90'> <img src='G_3.jpg' height='90'>","null","Animation1","",""
"","","","","","html-keyboard-response","125","213671","0.0-74.0","20","1","2025-02-02 03:17:52","bc01a2b6f61d06f6604adb8657495020","73.57.151.40","Mozilla/5.0 (Windows NT 10.0; Win64; x64; rv:134.0) Gecko/20100101 Firefox/134.0","","Firefox","134.0","Windows","10.0","https://app.prolific.com/","en-US,en;q=0.5","5d9264f527fdac00158fd876","679edb085803f58d6bbd31ca","679ee3cd66bc98b63378ed06","","null","<img    src='G_2.jpg' height='90'> <img    src='G_6.jpg' height='90'> <img    src='G_1.jpg' height='90'> <img  src='G_4.jpg' height='90'> <img     src='G_8.jpg' height='90'> <img src='G_7.jpg' height='90'> <img src='G_5.jpg' height='90'> <img src='G_3.jpg' height='90'>","null","Animation1","",""
"","","","","","html-keyboard-response","126","214175","0.0-75.0","20","1","2025-02-02 03:17:52","bc01a2b6f61d06f6604adb8657495020","73.57.151.40","Mozilla/5.0 (Windows NT 10.0; Win64; x64; rv:134.0) Gecko/20100101 Firefox/134.0","","Firefox","134.0","Windows","10.0","https://app.prolific.com/","en-US,en;q=0.5","5d9264f527fdac00158fd876","679edb085803f58d6bbd31ca","679ee3cd66bc98b63378ed06","","null","<img    src='G_2.jpg' height='90'> <img    src='G_6.jpg' height='90'> <img id='selected'    src='G_1.jpg' height='90'> <img  src='G_4.jpg' height='90'> <img     src='G_8.jpg' height='90'> <img src='G_7.jpg' height='90'> <img src='G_5.jpg' height='90'> <img src='G_3.jpg' height='90'>","null","Animation1","",""
"","","","","","html-keyboard-response","127","214692","0.0-76.0","20","1","2025-02-02 03:17:52","bc01a2b6f61d06f6604adb8657495020","73.57.151.40","Mozilla/5.0 (Windows NT 10.0; Win64; x64; rv:134.0) Gecko/20100101 Firefox/134.0","","Firefox","134.0","Windows","10.0","https://app.prolific.com/","en-US,en;q=0.5","5d9264f527fdac00158fd876","679edb085803f58d6bbd31ca","679ee3cd66bc98b63378ed06","","null","<img    src='G_2.jpg' height='90'> <img    src='G_6.jpg' height='90'> <img id='selected'    src='G_1.jpg' height='90'> <img id='selected'  src='G_4.jpg' height='90'> <img     src='G_8.jpg' height='90'> <img src='G_7.jpg' height='90'> <img src='G_5.jpg' height='90'> <img src='G_3.jpg' height='90'>","null","Animation1","",""
"","","","","","html-keyboard-response","128","215210","0.0-77.0","20","1","2025-02-02 03:17:52","bc01a2b6f61d06f6604adb8657495020","73.57.151.40","Mozilla/5.0 (Windows NT 10.0; Win64; x64; rv:134.0) Gecko/20100101 Firefox/134.0","","Firefox","134.0","Windows","10.0","https://app.prolific.com/","en-US,en;q=0.5","5d9264f527fdac00158fd876","679edb085803f58d6bbd31ca","679ee3cd66bc98b63378ed06","","null","<img    src='G_2.jpg' height='90'> <img    src='G_6.jpg' height='90'> <img id='swapped'  src='G_4.jpg' height='90'> <img id='swapped'    src='G_1.jpg' height='90'> <img     src='G_8.jpg' height='90'> <img src='G_7.jpg' height='90'> <img src='G_5.jpg' height='90'> <img src='G_3.jpg' height='90'>","null","Animation1","",""
"","","","","","html-keyboard-response","129","215524","0.0-78.0","20","1","2025-02-02 03:17:52","bc01a2b6f61d06f6604adb8657495020","73.57.151.40","Mozilla/5.0 (Windows NT 10.0; Win64; x64; rv:134.0) Gecko/20100101 Firefox/134.0","","Firefox","134.0","Windows","10.0","https://app.prolific.com/","en-US,en;q=0.5","5d9264f527fdac00158fd876","679edb085803f58d6bbd31ca","679ee3cd66bc98b63378ed06","","null","<img    src='G_2.jpg' height='90'> <img    src='G_6.jpg' height='90'> <img   src='G_4.jpg' height='90'> <img     src='G_1.jpg' height='90'> <img     src='G_8.jpg' height='90'> <img src='G_7.jpg' height='90'> <img src='G_5.jpg' height='90'> <img src='G_3.jpg' height='90'>","null","Animation1","",""
"","","","","","html-keyboard-response","130","216042","0.0-79.0","20","1","2025-02-02 03:17:52","bc01a2b6f61d06f6604adb8657495020","73.57.151.40","Mozilla/5.0 (Windows NT 10.0; Win64; x64; rv:134.0) Gecko/20100101 Firefox/134.0","","Firefox","134.0","Windows","10.0","https://app.prolific.com/","en-US,en;q=0.5","5d9264f527fdac00158fd876","679edb085803f58d6bbd31ca","679ee3cd66bc98b63378ed06","","null","<img    src='G_2.jpg' height='90'> <img id='selected'    src='G_6.jpg' height='90'> <img   src='G_4.jpg' height='90'> <img     src='G_1.jpg' height='90'> <img     src='G_8.jpg' height='90'> <img src='G_7.jpg' height='90'> <img src='G_5.jpg' height='90'> <img src='G_3.jpg' height='90'>","null","Animation1","",""
"","","","","","html-keyboard-response","131","216560","0.0-80.0","20","1","2025-02-02 03:17:52","bc01a2b6f61d06f6604adb8657495020","73.57.151.40","Mozilla/5.0 (Windows NT 10.0; Win64; x64; rv:134.0) Gecko/20100101 Firefox/134.0","","Firefox","134.0","Windows","10.0","https://app.prolific.com/","en-US,en;q=0.5","5d9264f527fdac00158fd876","679edb085803f58d6bbd31ca","679ee3cd66bc98b63378ed06","","null","<img    src='G_2.jpg' height='90'> <img id='selected'    src='G_6.jpg' height='90'> <img id='selected'   src='G_4.jpg' height='90'> <img     src='G_1.jpg' height='90'> <img     src='G_8.jpg' height='90'> <img src='G_7.jpg' height='90'> <img src='G_5.jpg' height='90'> <img src='G_3.jpg' height='90'>","null","Animation1","",""
"","","","","","html-keyboard-response","132","217081","0.0-81.0","20","1","2025-02-02 03:17:52","bc01a2b6f61d06f6604adb8657495020","73.57.151.40","Mozilla/5.0 (Windows NT 10.0; Win64; x64; rv:134.0) Gecko/20100101 Firefox/134.0","","Firefox","134.0","Windows","10.0","https://app.prolific.com/","en-US,en;q=0.5","5d9264f527fdac00158fd876","679edb085803f58d6bbd31ca","679ee3cd66bc98b63378ed06","","null","<img    src='G_2.jpg' height='90'> <img id='swapped'   src='G_4.jpg' height='90'> <img id='swapped'    src='G_6.jpg' height='90'> <img     src='G_1.jpg' height='90'> <img     src='G_8.jpg' height='90'> <img src='G_7.jpg' height='90'> <img src='G_5.jpg' height='90'> <img src='G_3.jpg' height='90'>","null","Animation1","",""
"","","","","","html-keyboard-response","133","217395","0.0-82.0","20","1","2025-02-02 03:17:52","bc01a2b6f61d06f6604adb8657495020","73.57.151.40","Mozilla/5.0 (Windows NT 10.0; Win64; x64; rv:134.0) Gecko/20100101 Firefox/134.0","","Firefox","134.0","Windows","10.0","https://app.prolific.com/","en-US,en;q=0.5","5d9264f527fdac00158fd876","679edb085803f58d6bbd31ca","679ee3cd66bc98b63378ed06","","null","<img    src='G_2.jpg' height='90'> <img    src='G_4.jpg' height='90'> <img     src='G_6.jpg' height='90'> <img     src='G_1.jpg' height='90'> <img     src='G_8.jpg' height='90'> <img src='G_7.jpg' height='90'> <img src='G_5.jpg' height='90'> <img src='G_3.jpg' height='90'>","null","Animation1","",""
"","","","","","html-keyboard-response","134","217959","0.0-83.0","20","1","2025-02-02 03:17:52","bc01a2b6f61d06f6604adb8657495020","73.57.151.40","Mozilla/5.0 (Windows NT 10.0; Win64; x64; rv:134.0) Gecko/20100101 Firefox/134.0","","Firefox","134.0","Windows","10.0","https://app.prolific.com/","en-US,en;q=0.5","5d9264f527fdac00158fd876","679edb085803f58d6bbd31ca","679ee3cd66bc98b63378ed06","","null","<img id='selected'    src='G_2.jpg' height='90'> <img    src='G_4.jpg' height='90'> <img     src='G_6.jpg' height='90'> <img     src='G_1.jpg' height='90'> <img     src='G_8.jpg' height='90'> <img src='G_7.jpg' height='90'> <img src='G_5.jpg' height='90'> <img src='G_3.jpg' height='90'>","null","Animation1","",""
"","","","","","html-keyboard-response","135","218478","0.0-84.0","20","1","2025-02-02 03:17:52","bc01a2b6f61d06f6604adb8657495020","73.57.151.40","Mozilla/5.0 (Windows NT 10.0; Win64; x64; rv:134.0) Gecko/20100101 Firefox/134.0","","Firefox","134.0","Windows","10.0","https://app.prolific.com/","en-US,en;q=0.5","5d9264f527fdac00158fd876","679edb085803f58d6bbd31ca","679ee3cd66bc98b63378ed06","","null","<img id='selected'    src='G_2.jpg' height='90'> <img id='selected'    src='G_4.jpg' height='90'> <img     src='G_6.jpg' height='90'> <img     src='G_1.jpg' height='90'> <img     src='G_8.jpg' height='90'> <img src='G_7.jpg' height='90'> <img src='G_5.jpg' height='90'> <img src='G_3.jpg' height='90'>","null","Animation1","",""
"","","","","","html-keyboard-response","136","218998","0.0-85.0","20","1","2025-02-02 03:17:52","bc01a2b6f61d06f6604adb8657495020","73.57.151.40","Mozilla/5.0 (Windows NT 10.0; Win64; x64; rv:134.0) Gecko/20100101 Firefox/134.0","","Firefox","134.0","Windows","10.0","https://app.prolific.com/","en-US,en;q=0.5","5d9264f527fdac00158fd876","679edb085803f58d6bbd31ca","679ee3cd66bc98b63378ed06","","null","<img id='selected'    src='G_2.jpg' height='90'> <img id='selected'    src='G_4.jpg' height='90'> <img     src='G_6.jpg' height='90'> <img     src='G_1.jpg' height='90'> <img     src='G_8.jpg' height='90'> <img src='G_7.jpg' height='90'> <img src='G_5.jpg' height='90'> <img src='G_3.jpg' height='90'>","null","Animation1","",""
"","","","","","html-keyboard-response","137","219314","0.0-86.0","20","1","2025-02-02 03:17:52","bc01a2b6f61d06f6604adb8657495020","73.57.151.40","Mozilla/5.0 (Windows NT 10.0; Win64; x64; rv:134.0) Gecko/20100101 Firefox/134.0","","Firefox","134.0","Windows","10.0","https://app.prolific.com/","en-US,en;q=0.5","5d9264f527fdac00158fd876","679edb085803f58d6bbd31ca","679ee3cd66bc98b63378ed06","","null","<img     src='G_2.jpg' height='90'> <img     src='G_4.jpg' height='90'> <img     src='G_6.jpg' height='90'> <img     src='G_1.jpg' height='90'> <img     src='G_8.jpg' height='90'> <img src='G_7.jpg' height='90'> <img src='G_5.jpg' height='90'> <img src='G_3.jpg' height='90'>","null","Animation1","",""
"","","","","","html-keyboard-response","138","219833","0.0-87.0","20","1","2025-02-02 03:17:52","bc01a2b6f61d06f6604adb8657495020","73.57.151.40","Mozilla/5.0 (Windows NT 10.0; Win64; x64; rv:134.0) Gecko/20100101 Firefox/134.0","","Firefox","134.0","Windows","10.0","https://app.prolific.com/","en-US,en;q=0.5","5d9264f527fdac00158fd876","679edb085803f58d6bbd31ca","679ee3cd66bc98b63378ed06","","null","<img     src='G_2.jpg' height='90'> <img     src='G_4.jpg' height='90'> <img     src='G_6.jpg' height='90'> <img     src='G_1.jpg' height='90'> <img id='selected'     src='G_8.jpg' height='90'> <img src='G_7.jpg' height='90'> <img src='G_5.jpg' height='90'> <img src='G_3.jpg' height='90'>","null","Animation1","",""
"","","","","","html-keyboard-response","139","220353","0.0-88.0","20","1","2025-02-02 03:17:52","bc01a2b6f61d06f6604adb8657495020","73.57.151.40","Mozilla/5.0 (Windows NT 10.0; Win64; x64; rv:134.0) Gecko/20100101 Firefox/134.0","","Firefox","134.0","Windows","10.0","https://app.prolific.com/","en-US,en;q=0.5","5d9264f527fdac00158fd876","679edb085803f58d6bbd31ca","679ee3cd66bc98b63378ed06","","null","<img     src='G_2.jpg' height='90'> <img     src='G_4.jpg' height='90'> <img     src='G_6.jpg' height='90'> <img     src='G_1.jpg' height='90'> <img id='selected'     src='G_8.jpg' height='90'> <img id='selected' src='G_7.jpg' height='90'> <img src='G_5.jpg' height='90'> <img src='G_3.jpg' height='90'>","null","Animation1","",""
"","","","","","html-keyboard-response","140","220873","0.0-89.0","20","1","2025-02-02 03:17:52","bc01a2b6f61d06f6604adb8657495020","73.57.151.40","Mozilla/5.0 (Windows NT 10.0; Win64; x64; rv:134.0) Gecko/20100101 Firefox/134.0","","Firefox","134.0","Windows","10.0","https://app.prolific.com/","en-US,en;q=0.5","5d9264f527fdac00158fd876","679edb085803f58d6bbd31ca","679ee3cd66bc98b63378ed06","","null","<img     src='G_2.jpg' height='90'> <img     src='G_4.jpg' height='90'> <img     src='G_6.jpg' height='90'> <img     src='G_1.jpg' height='90'> <img id='swapped' src='G_7.jpg' height='90'> <img id='swapped'     src='G_8.jpg' height='90'> <img src='G_5.jpg' height='90'> <img src='G_3.jpg' height='90'>","null","Animation1","",""
"","","","","","html-keyboard-response","141","221190","0.0-90.0","20","1","2025-02-02 03:17:52","bc01a2b6f61d06f6604adb8657495020","73.57.151.40","Mozilla/5.0 (Windows NT 10.0; Win64; x64; rv:134.0) Gecko/20100101 Firefox/134.0","","Firefox","134.0","Windows","10.0","https://app.prolific.com/","en-US,en;q=0.5","5d9264f527fdac00158fd876","679edb085803f58d6bbd31ca","679ee3cd66bc98b63378ed06","","null","<img     src='G_2.jpg' height='90'> <img     src='G_4.jpg' height='90'> <img     src='G_6.jpg' height='90'> <img     src='G_1.jpg' height='90'> <img  src='G_7.jpg' height='90'> <img      src='G_8.jpg' height='90'> <img src='G_5.jpg' height='90'> <img src='G_3.jpg' height='90'>","null","Animation1","",""
"","","","","","html-keyboard-response","142","221710","0.0-91.0","20","1","2025-02-02 03:17:52","bc01a2b6f61d06f6604adb8657495020","73.57.151.40","Mozilla/5.0 (Windows NT 10.0; Win64; x64; rv:134.0) Gecko/20100101 Firefox/134.0","","Firefox","134.0","Windows","10.0","https://app.prolific.com/","en-US,en;q=0.5","5d9264f527fdac00158fd876","679edb085803f58d6bbd31ca","679ee3cd66bc98b63378ed06","","null","<img     src='G_2.jpg' height='90'> <img     src='G_4.jpg' height='90'> <img     src='G_6.jpg' height='90'> <img id='selected'     src='G_1.jpg' height='90'> <img  src='G_7.jpg' height='90'> <img      src='G_8.jpg' height='90'> <img src='G_5.jpg' height='90'> <img src='G_3.jpg' height='90'>","null","Animation1","",""
"","","","","","html-keyboard-response","143","222230","0.0-92.0","20","1","2025-02-02 03:17:52","bc01a2b6f61d06f6604adb8657495020","73.57.151.40","Mozilla/5.0 (Windows NT 10.0; Win64; x64; rv:134.0) Gecko/20100101 Firefox/134.0","","Firefox","134.0","Windows","10.0","https://app.prolific.com/","en-US,en;q=0.5","5d9264f527fdac00158fd876","679edb085803f58d6bbd31ca","679ee3cd66bc98b63378ed06","","null","<img     src='G_2.jpg' height='90'> <img     src='G_4.jpg' height='90'> <img     src='G_6.jpg' height='90'> <img id='selected'     src='G_1.jpg' height='90'> <img id='selected'  src='G_7.jpg' height='90'> <img      src='G_8.jpg' height='90'> <img src='G_5.jpg' height='90'> <img src='G_3.jpg' height='90'>","null","Animation1","",""
"","","","","","html-keyboard-response","144","222742","0.0-93.0","20","1","2025-02-02 03:17:52","bc01a2b6f61d06f6604adb8657495020","73.57.151.40","Mozilla/5.0 (Windows NT 10.0; Win64; x64; rv:134.0) Gecko/20100101 Firefox/134.0","","Firefox","134.0","Windows","10.0","https://app.prolific.com/","en-US,en;q=0.5","5d9264f527fdac00158fd876","679edb085803f58d6bbd31ca","679ee3cd66bc98b63378ed06","","null","<img     src='G_2.jpg' height='90'> <img     src='G_4.jpg' height='90'> <img     src='G_6.jpg' height='90'> <img id='selected'     src='G_1.jpg' height='90'> <img id='selected'  src='G_7.jpg' height='90'> <img      src='G_8.jpg' height='90'> <img src='G_5.jpg' height='90'> <img src='G_3.jpg' height='90'>","null","Animation1","",""
"","","","","","html-keyboard-response","145","223058","0.0-94.0","20","1","2025-02-02 03:17:52","bc01a2b6f61d06f6604adb8657495020","73.57.151.40","Mozilla/5.0 (Windows NT 10.0; Win64; x64; rv:134.0) Gecko/20100101 Firefox/134.0","","Firefox","134.0","Windows","10.0","https://app.prolific.com/","en-US,en;q=0.5","5d9264f527fdac00158fd876","679edb085803f58d6bbd31ca","679ee3cd66bc98b63378ed06","","null","<img     src='G_2.jpg' height='90'> <img     src='G_4.jpg' height='90'> <img     src='G_6.jpg' height='90'> <img      src='G_1.jpg' height='90'> <img   src='G_7.jpg' height='90'> <img      src='G_8.jpg' height='90'> <img src='G_5.jpg' height='90'> <img src='G_3.jpg' height='90'>","null","Animation1","",""
"","","","","","html-keyboard-response","146","223579","0.0-95.0","20","1","2025-02-02 03:17:52","bc01a2b6f61d06f6604adb8657495020","73.57.151.40","Mozilla/5.0 (Windows NT 10.0; Win64; x64; rv:134.0) Gecko/20100101 Firefox/134.0","","Firefox","134.0","Windows","10.0","https://app.prolific.com/","en-US,en;q=0.5","5d9264f527fdac00158fd876","679edb085803f58d6bbd31ca","679ee3cd66bc98b63378ed06","","null","<img     src='G_2.jpg' height='90'> <img     src='G_4.jpg' height='90'> <img     src='G_6.jpg' height='90'> <img      src='G_1.jpg' height='90'> <img   src='G_7.jpg' height='90'> <img id='selected'      src='G_8.jpg' height='90'> <img src='G_5.jpg' height='90'> <img src='G_3.jpg' height='90'>","null","Animation1","",""
"","","","","","html-keyboard-response","147","224099","0.0-96.0","20","1","2025-02-02 03:17:52","bc01a2b6f61d06f6604adb8657495020","73.57.151.40","Mozilla/5.0 (Windows NT 10.0; Win64; x64; rv:134.0) Gecko/20100101 Firefox/134.0","","Firefox","134.0","Windows","10.0","https://app.prolific.com/","en-US,en;q=0.5","5d9264f527fdac00158fd876","679edb085803f58d6bbd31ca","679ee3cd66bc98b63378ed06","","null","<img     src='G_2.jpg' height='90'> <img     src='G_4.jpg' height='90'> <img     src='G_6.jpg' height='90'> <img      src='G_1.jpg' height='90'> <img   src='G_7.jpg' height='90'> <img id='selected'      src='G_8.jpg' height='90'> <img id='selected' src='G_5.jpg' height='90'> <img src='G_3.jpg' height='90'>","null","Animation1","",""
"","","","","","html-keyboard-response","148","224620","0.0-97.0","20","1","2025-02-02 03:17:52","bc01a2b6f61d06f6604adb8657495020","73.57.151.40","Mozilla/5.0 (Windows NT 10.0; Win64; x64; rv:134.0) Gecko/20100101 Firefox/134.0","","Firefox","134.0","Windows","10.0","https://app.prolific.com/","en-US,en;q=0.5","5d9264f527fdac00158fd876","679edb085803f58d6bbd31ca","679ee3cd66bc98b63378ed06","","null","<img     src='G_2.jpg' height='90'> <img     src='G_4.jpg' height='90'> <img     src='G_6.jpg' height='90'> <img      src='G_1.jpg' height='90'> <img   src='G_7.jpg' height='90'> <img id='selected'      src='G_8.jpg' height='90'> <img id='selected' src='G_5.jpg' height='90'> <img src='G_3.jpg' height='90'>","null","Animation1","",""
"","","","","","html-keyboard-response","149","224936","0.0-98.0","20","1","2025-02-02 03:17:52","bc01a2b6f61d06f6604adb8657495020","73.57.151.40","Mozilla/5.0 (Windows NT 10.0; Win64; x64; rv:134.0) Gecko/20100101 Firefox/134.0","","Firefox","134.0","Windows","10.0","https://app.prolific.com/","en-US,en;q=0.5","5d9264f527fdac00158fd876","679edb085803f58d6bbd31ca","679ee3cd66bc98b63378ed06","","null","<img     src='G_2.jpg' height='90'> <img     src='G_4.jpg' height='90'> <img     src='G_6.jpg' height='90'> <img      src='G_1.jpg' height='90'> <img   src='G_7.jpg' height='90'> <img       src='G_8.jpg' height='90'> <img  src='G_5.jpg' height='90'> <img src='G_3.jpg' height='90'>","null","Animation1","",""
"","","","","","html-keyboard-response","150","225456","0.0-99.0","20","1","2025-02-02 03:17:52","bc01a2b6f61d06f6604adb8657495020","73.57.151.40","Mozilla/5.0 (Windows NT 10.0; Win64; x64; rv:134.0) Gecko/20100101 Firefox/134.0","","Firefox","134.0","Windows","10.0","https://app.prolific.com/","en-US,en;q=0.5","5d9264f527fdac00158fd876","679edb085803f58d6bbd31ca","679ee3cd66bc98b63378ed06","","null","<img     src='G_2.jpg' height='90'> <img     src='G_4.jpg' height='90'> <img     src='G_6.jpg' height='90'> <img      src='G_1.jpg' height='90'> <img   src='G_7.jpg' height='90'> <img       src='G_8.jpg' height='90'> <img id='selected'  src='G_5.jpg' height='90'> <img src='G_3.jpg' height='90'>","null","Animation1","",""
"","","","","","html-keyboard-response","151","225976","0.0-100.0","20","1","2025-02-02 03:17:52","bc01a2b6f61d06f6604adb8657495020","73.57.151.40","Mozilla/5.0 (Windows NT 10.0; Win64; x64; rv:134.0) Gecko/20100101 Firefox/134.0","","Firefox","134.0","Windows","10.0","https://app.prolific.com/","en-US,en;q=0.5","5d9264f527fdac00158fd876","679edb085803f58d6bbd31ca","679ee3cd66bc98b63378ed06","","null","<img     src='G_2.jpg' height='90'> <img     src='G_4.jpg' height='90'> <img     src='G_6.jpg' height='90'> <img      src='G_1.jpg' height='90'> <img   src='G_7.jpg' height='90'> <img       src='G_8.jpg' height='90'> <img id='selected'  src='G_5.jpg' height='90'> <img id='selected' src='G_3.jpg' height='90'>","null","Animation1","",""
"","","","","","html-keyboard-response","152","226496","0.0-101.0","20","1","2025-02-02 03:17:52","bc01a2b6f61d06f6604adb8657495020","73.57.151.40","Mozilla/5.0 (Windows NT 10.0; Win64; x64; rv:134.0) Gecko/20100101 Firefox/134.0","","Firefox","134.0","Windows","10.0","https://app.prolific.com/","en-US,en;q=0.5","5d9264f527fdac00158fd876","679edb085803f58d6bbd31ca","679ee3cd66bc98b63378ed06","","null","<img     src='G_2.jpg' height='90'> <img     src='G_4.jpg' height='90'> <img     src='G_6.jpg' height='90'> <img      src='G_1.jpg' height='90'> <img   src='G_7.jpg' height='90'> <img       src='G_8.jpg' height='90'> <img id='swapped' src='G_3.jpg' height='90'> <img id='swapped'  src='G_5.jpg' height='90'>","null","Animation1","",""
"","","","","","html-keyboard-response","153","226811","0.0-102.0","20","1","2025-02-02 03:17:52","bc01a2b6f61d06f6604adb8657495020","73.57.151.40","Mozilla/5.0 (Windows NT 10.0; Win64; x64; rv:134.0) Gecko/20100101 Firefox/134.0","","Firefox","134.0","Windows","10.0","https://app.prolific.com/","en-US,en;q=0.5","5d9264f527fdac00158fd876","679edb085803f58d6bbd31ca","679ee3cd66bc98b63378ed06","","null","<img     src='G_2.jpg' height='90'> <img     src='G_4.jpg' height='90'> <img     src='G_6.jpg' height='90'> <img      src='G_1.jpg' height='90'> <img   src='G_7.jpg' height='90'> <img       src='G_8.jpg' height='90'> <img  src='G_3.jpg' height='90'> <img   src='G_5.jpg' height='90'>","null","Animation1","",""
"","","","","","html-keyboard-response","154","227333","0.0-103.0","20","1","2025-02-02 03:17:52","bc01a2b6f61d06f6604adb8657495020","73.57.151.40","Mozilla/5.0 (Windows NT 10.0; Win64; x64; rv:134.0) Gecko/20100101 Firefox/134.0","","Firefox","134.0","Windows","10.0","https://app.prolific.com/","en-US,en;q=0.5","5d9264f527fdac00158fd876","679edb085803f58d6bbd31ca","679ee3cd66bc98b63378ed06","","null","<img     src='G_2.jpg' height='90'> <img     src='G_4.jpg' height='90'> <img     src='G_6.jpg' height='90'> <img      src='G_1.jpg' height='90'> <img   src='G_7.jpg' height='90'> <img id='selected'       src='G_8.jpg' height='90'> <img  src='G_3.jpg' height='90'> <img   src='G_5.jpg' height='90'>","null","Animation1","",""
"","","","","","html-keyboard-response","155","227852","0.0-104.0","20","1","2025-02-02 03:17:52","bc01a2b6f61d06f6604adb8657495020","73.57.151.40","Mozilla/5.0 (Windows NT 10.0; Win64; x64; rv:134.0) Gecko/20100101 Firefox/134.0","","Firefox","134.0","Windows","10.0","https://app.prolific.com/","en-US,en;q=0.5","5d9264f527fdac00158fd876","679edb085803f58d6bbd31ca","679ee3cd66bc98b63378ed06","","null","<img     src='G_2.jpg' height='90'> <img     src='G_4.jpg' height='90'> <img     src='G_6.jpg' height='90'> <img      src='G_1.jpg' height='90'> <img   src='G_7.jpg' height='90'> <img id='selected'       src='G_8.jpg' height='90'> <img id='selected'  src='G_3.jpg' height='90'> <img   src='G_5.jpg' height='90'>","null","Animation1","",""
"","","","","","html-keyboard-response","156","228372","0.0-105.0","20","1","2025-02-02 03:17:52","bc01a2b6f61d06f6604adb8657495020","73.57.151.40","Mozilla/5.0 (Windows NT 10.0; Win64; x64; rv:134.0) Gecko/20100101 Firefox/134.0","","Firefox","134.0","Windows","10.0","https://app.prolific.com/","en-US,en;q=0.5","5d9264f527fdac00158fd876","679edb085803f58d6bbd31ca","679ee3cd66bc98b63378ed06","","null","<img     src='G_2.jpg' height='90'> <img     src='G_4.jpg' height='90'> <img     src='G_6.jpg' height='90'> <img      src='G_1.jpg' height='90'> <img   src='G_7.jpg' height='90'> <img id='selected'       src='G_8.jpg' height='90'> <img id='selected'  src='G_3.jpg' height='90'> <img   src='G_5.jpg' height='90'>","null","Animation1","",""
"","","","","","html-keyboard-response","157","228687","0.0-106.0","20","1","2025-02-02 03:17:52","bc01a2b6f61d06f6604adb8657495020","73.57.151.40","Mozilla/5.0 (Windows NT 10.0; Win64; x64; rv:134.0) Gecko/20100101 Firefox/134.0","","Firefox","134.0","Windows","10.0","https://app.prolific.com/","en-US,en;q=0.5","5d9264f527fdac00158fd876","679edb085803f58d6bbd31ca","679ee3cd66bc98b63378ed06","","null","<img     src='G_2.jpg' height='90'> <img     src='G_4.jpg' height='90'> <img     src='G_6.jpg' height='90'> <img      src='G_1.jpg' height='90'> <img   src='G_7.jpg' height='90'> <img        src='G_8.jpg' height='90'> <img   src='G_3.jpg' height='90'> <img   src='G_5.jpg' height='90'>","null","Animation1","",""
"","","","","","html-keyboard-response","158","231062","0.0-107.0","20","1","2025-02-02 03:17:52","bc01a2b6f61d06f6604adb8657495020","73.57.151.40","Mozilla/5.0 (Windows NT 10.0; Win64; x64; rv:134.0) Gecko/20100101 Firefox/134.0","","Firefox","134.0","Windows","10.0","https://app.prolific.com/","en-US,en;q=0.5","5d9264f527fdac00158fd876","679edb085803f58d6bbd31ca","679ee3cd66bc98b63378ed06","","2368","[""Did you notice any patterns? <br><br>Press Enter to watch that example again and follow the steps of Omgne Sort.""]","enter","","",""
"","","","","","html-button-response","159","231470","0.0-108.0","20","1","2025-02-02 03:17:52","bc01a2b6f61d06f6604adb8657495020","73.57.151.40","Mozilla/5.0 (Windows NT 10.0; Win64; x64; rv:134.0) Gecko/20100101 Firefox/134.0","","Firefox","134.0","Windows","10.0","https://app.prolific.com/","en-US,en;q=0.5","5d9264f527fdac00158fd876","679edb085803f58d6bbd31ca","679ee3cd66bc98b63378ed06","","null","<img id='selected' src='G_1.jpg' height='90'> <img src='G_8.jpg' height='90'> <img src='G_6.jpg' height='90'> <img src='G_2.jpg' height='90'> <img src='G_4.jpg' height='90'> <img src='G_7.jpg' height='90'> <img src='G_5.jpg' height='90'> <img src='G_3.jpg' height='90'>","null","Learning example 1","",""
"","","","","","html-button-response","160","231784","0.0-109.0","20","1","2025-02-02 03:17:52","bc01a2b6f61d06f6604adb8657495020","73.57.151.40","Mozilla/5.0 (Windows NT 10.0; Win64; x64; rv:134.0) Gecko/20100101 Firefox/134.0","","Firefox","134.0","Windows","10.0","https://app.prolific.com/","en-US,en;q=0.5","5d9264f527fdac00158fd876","679edb085803f58d6bbd31ca","679ee3cd66bc98b63378ed06","","null","<img id='selected' src='G_1.jpg' height='90'> <img id='selected' src='G_8.jpg' height='90'> <img src='G_6.jpg' height='90'> <img src='G_2.jpg' height='90'> <img src='G_4.jpg' height='90'> <img src='G_7.jpg' height='90'> <img src='G_5.jpg' height='90'> <img src='G_3.jpg' height='90'>","null","Learning example 1","",""
