"success","timeout","failed_images","failed_audio","failed_video","trial_type","trial_index","time_elapsed","internal_node_id","run_id","condition","recorded_at","source_code_version","ip","user_agent","device","browser","browser_version","platform","platform_version","referer","accept_language","PROLIFIC_PID","STUDY_ID","SESSION_ID","view_history","rt","stimulus","response","phase","question_order"
"true","false","[]","[]","[]","preload","0","99","0.0-0.0","21","1","2025-02-02 03:27:04","bc01a2b6f61d06f6604adb8657495020","75.88.105.191","Mozilla/5.0 (Macintosh; Intel Mac OS X 10_15_7) AppleWebKit/605.1.15 (KHTML, like Gecko) Version/17.3.1 Safari/605.1.15","Macintosh","Safari","17.3.1","OS X","10_15_7","https://app.prolific.com/","en-US,en;q=0.9","67549868a9ea0e2c285a8f14","679edb085803f58d6bbd31ca","679ee5f3fdc71b640a413ae5","","","","","",""
"","","","","","instructions","1","135432","0.0-1.0","21","1","2025-02-02 03:27:04","bc01a2b6f61d06f6604adb8657495020","75.88.105.191","Mozilla/5.0 (Macintosh; Intel Mac OS X 10_15_7) AppleWebKit/605.1.15 (KHTML, like Gecko) Version/17.3.1 Safari/605.1.15","Macintosh","Safari","17.3.1","OS X","10_15_7","https://app.prolific.com/","en-US,en;q=0.9","67549868a9ea0e2c285a8f14","679edb085803f58d6bbd31ca","679ee5f3fdc71b640a413ae5","[{""page_index"":0,""viewing_time"":135333}]","135335","","","",""
"","","","","","html-keyboard-response","2","135938","0.0-2.0","21","1","2025-02-02 03:27:04","bc01a2b6f61d06f6604adb8657495020","75.88.105.191","Mozilla/5.0 (Macintosh; Intel Mac OS X 10_15_7) AppleWebKit/605.1.15 (KHTML, like Gecko) Version/17.3.1 Safari/605.1.15","Macintosh","Safari","17.3.1","OS X","10_15_7","https://app.prolific.com/","en-US,en;q=0.9","67549868a9ea0e2c285a8f14","679edb085803f58d6bbd31ca","679ee5f3fdc71b640a413ae5","","null","<p> + <p/>","null","",""
"","","","","","instructions","3","257309","0.0-3.0","21","1","2025-02-02 03:27:04","bc01a2b6f61d06f6604adb8657495020","75.88.105.191","Mozilla/5.0 (Macintosh; Intel Mac OS X 10_15_7) AppleWebKit/605.1.15 (KHTML, like Gecko) Version/17.3.1 Safari/605.1.15","Macintosh","Safari","17.3.1","OS X","10_15_7","https://app.prolific.com/","en-US,en;q=0.9","67549868a9ea0e2c285a8f14","679edb085803f58d6bbd31ca","679ee5f3fdc71b640a413ae5","[{""page_index"":0,""viewing_time"":21432},{""page_index"":1,""viewing_time"":43272},{""page_index"":2,""viewing_time"":19868},{""page_index"":3,""viewing_time"":26395},{""page_index"":4,""viewing_time"":10404}]","121372","","","",""
"","","","","","html-button-response","4","267343","0.0-4.0-0.0-0.0","21","1","2025-02-02 03:27:04","bc01a2b6f61d06f6604adb8657495020","75.88.105.191","Mozilla/5.0 (Macintosh; Intel Mac OS X 10_15_7) AppleWebKit/605.1.15 (KHTML, like Gecko) Version/17.3.1 Safari/605.1.15","Macintosh","Safari","17.3.1","OS X","10_15_7","https://app.prolific.com/","en-US,en;q=0.9","67549868a9ea0e2c285a8f14","679edb085803f58d6bbd31ca","679ee5f3fdc71b640a413ae5","","10028","","1","Intro Trial",""
"","","","","","html-button-response","5","269108","0.0-4.1-0.1-0.1","21","1","2025-02-02 03:27:04","bc01a2b6f61d06f6604adb8657495020","75.88.105.191","Mozilla/5.0 (Macintosh; Intel Mac OS X 10_15_7) AppleWebKit/605.1.15 (KHTML, like Gecko) Version/17.3.1 Safari/605.1.15","Macintosh","Safari","17.3.1","OS X","10_15_7","https://app.prolific.com/","en-US,en;q=0.9","67549868a9ea0e2c285a8f14","679edb085803f58d6bbd31ca","679ee5f3fdc71b640a413ae5","","1762","","2","Intro Trial",""
"","","","","","html-button-response","6","290890","0.0-4.2-0.2-0.2","21","1","2025-02-02 03:27:04","bc01a2b6f61d06f6604adb8657495020","75.88.105.191","Mozilla/5.0 (Macintosh; Intel Mac OS X 10_15_7) AppleWebKit/605.1.15 (KHTML, like Gecko) Version/17.3.1 Safari/605.1.15","Macintosh","Safari","17.3.1","OS X","10_15_7","https://app.prolific.com/","en-US,en;q=0.9","67549868a9ea0e2c285a8f14","679edb085803f58d6bbd31ca","679ee5f3fdc71b640a413ae5","","21785","","1","Intro Trial",""
"","","","","","html-button-response","7","296021","0.0-4.3-0.3-0.3","21","1","2025-02-02 03:27:04","bc01a2b6f61d06f6604adb8657495020","75.88.105.191","Mozilla/5.0 (Macintosh; Intel Mac OS X 10_15_7) AppleWebKit/605.1.15 (KHTML, like Gecko) Version/17.3.1 Safari/605.1.15","Macintosh","Safari","17.3.1","OS X","10_15_7","https://app.prolific.com/","en-US,en;q=0.9","67549868a9ea0e2c285a8f14","679edb085803f58d6bbd31ca","679ee5f3fdc71b640a413ae5","","5128","","2","Intro Trial",""
"","","","","","html-button-response","8","330284","0.0-4.4-0.4-0.4","21","1","2025-02-02 03:27:04","bc01a2b6f61d06f6604adb8657495020","75.88.105.191","Mozilla/5.0 (Macintosh; Intel Mac OS X 10_15_7) AppleWebKit/605.1.15 (KHTML, like Gecko) Version/17.3.1 Safari/605.1.15","Macintosh","Safari","17.3.1","OS X","10_15_7","https://app.prolific.com/","en-US,en;q=0.9","67549868a9ea0e2c285a8f14","679edb085803f58d6bbd31ca","679ee5f3fdc71b640a413ae5","","34264","","2","Intro Trial",""
"","","","","","html-button-response","9","331718","0.0-4.5-0.5-0.5","21","1","2025-02-02 03:27:04","bc01a2b6f61d06f6604adb8657495020","75.88.105.191","Mozilla/5.0 (Macintosh; Intel Mac OS X 10_15_7) AppleWebKit/605.1.15 (KHTML, like Gecko) Version/17.3.1 Safari/605.1.15","Macintosh","Safari","17.3.1","OS X","10_15_7","https://app.prolific.com/","en-US,en;q=0.9","67549868a9ea0e2c285a8f14","679edb085803f58d6bbd31ca","679ee5f3fdc71b640a413ae5","","1433","","3","Intro Trial",""
"","","","","","html-button-response","10","333520","0.0-4.6-0.6-0.6","21","1","2025-02-02 03:27:04","bc01a2b6f61d06f6604adb8657495020","75.88.105.191","Mozilla/5.0 (Macintosh; Intel Mac OS X 10_15_7) AppleWebKit/605.1.15 (KHTML, like Gecko) Version/17.3.1 Safari/605.1.15","Macintosh","Safari","17.3.1","OS X","10_15_7","https://app.prolific.com/","en-US,en;q=0.9","67549868a9ea0e2c285a8f14","679edb085803f58d6bbd31ca","679ee5f3fdc71b640a413ae5","","1800","","3","Intro Trial",""
"","","","","","html-button-response","11","341069","0.0-4.7-0.7-0.7","21","1","2025-02-02 03:27:04","bc01a2b6f61d06f6604adb8657495020","75.88.105.191","Mozilla/5.0 (Macintosh; Intel Mac OS X 10_15_7) AppleWebKit/605.1.15 (KHTML, like Gecko) Version/17.3.1 Safari/605.1.15","Macintosh","Safari","17.3.1","OS X","10_15_7","https://app.prolific.com/","en-US,en;q=0.9","67549868a9ea0e2c285a8f14","679edb085803f58d6bbd31ca","679ee5f3fdc71b640a413ae5","","7547","","3","Intro Trial",""
"","","","","","html-button-response","12","342048","0.0-4.8-0.8-0.8","21","1","2025-02-02 03:27:04","bc01a2b6f61d06f6604adb8657495020","75.88.105.191","Mozilla/5.0 (Macintosh; Intel Mac OS X 10_15_7) AppleWebKit/605.1.15 (KHTML, like Gecko) Version/17.3.1 Safari/605.1.15","Macintosh","Safari","17.3.1","OS X","10_15_7","https://app.prolific.com/","en-US,en;q=0.9","67549868a9ea0e2c285a8f14","679edb085803f58d6bbd31ca","679ee5f3fdc71b640a413ae5","","977","","3","Intro Trial",""
"","","","","","html-button-response","13","345185","0.0-4.9-0.9-0.9","21","1","2025-02-02 03:27:04","bc01a2b6f61d06f6604adb8657495020","75.88.105.191","Mozilla/5.0 (Macintosh; Intel Mac OS X 10_15_7) AppleWebKit/605.1.15 (KHTML, like Gecko) Version/17.3.1 Safari/605.1.15","Macintosh","Safari","17.3.1","OS X","10_15_7","https://app.prolific.com/","en-US,en;q=0.9","67549868a9ea0e2c285a8f14","679edb085803f58d6bbd31ca","679ee5f3fdc71b640a413ae5","","3135","","2","Intro Trial",""
"","","","","","html-button-response","14","346086","0.0-4.10-0.10-0.10","21","1","2025-02-02 03:27:04","bc01a2b6f61d06f6604adb8657495020","75.88.105.191","Mozilla/5.0 (Macintosh; Intel Mac OS X 10_15_7) AppleWebKit/605.1.15 (KHTML, like Gecko) Version/17.3.1 Safari/605.1.15","Macintosh","Safari","17.3.1","OS X","10_15_7","https://app.prolific.com/","en-US,en;q=0.9","67549868a9ea0e2c285a8f14","679edb085803f58d6bbd31ca","679ee5f3fdc71b640a413ae5","","901","","2","Intro Trial",""
"","","","","","html-button-response","15","348017","0.0-4.11-0.11-0.11","21","1","2025-02-02 03:27:04","bc01a2b6f61d06f6604adb8657495020","75.88.105.191","Mozilla/5.0 (Macintosh; Intel Mac OS X 10_15_7) AppleWebKit/605.1.15 (KHTML, like Gecko) Version/17.3.1 Safari/605.1.15","Macintosh","Safari","17.3.1","OS X","10_15_7","https://app.prolific.com/","en-US,en;q=0.9","67549868a9ea0e2c285a8f14","679edb085803f58d6bbd31ca","679ee5f3fdc71b640a413ae5","","1928","","3","Intro Trial",""
"","","","","","html-button-response","16","349786","0.0-4.12-0.12-0.12","21","1","2025-02-02 03:27:04","bc01a2b6f61d06f6604adb8657495020","75.88.105.191","Mozilla/5.0 (Macintosh; Intel Mac OS X 10_15_7) AppleWebKit/605.1.15 (KHTML, like Gecko) Version/17.3.1 Safari/605.1.15","Macintosh","Safari","17.3.1","OS X","10_15_7","https://app.prolific.com/","en-US,en;q=0.9","67549868a9ea0e2c285a8f14","679edb085803f58d6bbd31ca","679ee5f3fdc71b640a413ae5","","1768","","5","Intro Trial",""
"","","","","","html-keyboard-response","17","375532","0.0-5.0","21","1","2025-02-02 03:27:04","bc01a2b6f61d06f6604adb8657495020","75.88.105.191","Mozilla/5.0 (Macintosh; Intel Mac OS X 10_15_7) AppleWebKit/605.1.15 (KHTML, like Gecko) Version/17.3.1 Safari/605.1.15","Macintosh","Safari","17.3.1","OS X","10_15_7","https://app.prolific.com/","en-US,en;q=0.9","67549868a9ea0e2c285a8f14","679edb085803f58d6bbd31ca","679ee5f3fdc71b640a413ae5","","25741","[""You sorted incorrectly by using the balance 5 times. <br><br> <img src='G_1.jpg' height='90'><img src='G_2.jpg' height='90'><img src='G_3.jpg' height='90'><img src='G_4.jpg' height='90'><img src='G_5.jpg' height='90'><br><br> Your final order is 4,2,3,5,1<br><br><br>Omgne Sort in this game will allow you to sort correctly by using the balance 8 times. Press Enter to learn it!""]","enter","",""
"","","","","","html-keyboard-response","18","383863","0.0-6.0","21","1","2025-02-02 03:27:04","bc01a2b6f61d06f6604adb8657495020","75.88.105.191","Mozilla/5.0 (Macintosh; Intel Mac OS X 10_15_7) AppleWebKit/605.1.15 (KHTML, like Gecko) Version/17.3.1 Safari/605.1.15","Macintosh","Safari","17.3.1","OS X","10_15_7","https://app.prolific.com/","en-US,en;q=0.9","67549868a9ea0e2c285a8f14","679edb085803f58d6bbd31ca","679ee5f3fdc71b640a413ae5","","8329","<p>Welcome to the learning phase! <br><br> You will learn by six examples. The following learning trials will not be used to calculate your performance. <br><br> Press Enter to continue.<p/>","enter","",""
"","","","","","html-keyboard-response","19","392039","0.0-7.0","21","1","2025-02-02 03:27:04","bc01a2b6f61d06f6604adb8657495020","75.88.105.191","Mozilla/5.0 (Macintosh; Intel Mac OS X 10_15_7) AppleWebKit/605.1.15 (KHTML, like Gecko) Version/17.3.1 Safari/605.1.15","Macintosh","Safari","17.3.1","OS X","10_15_7","https://app.prolific.com/","en-US,en;q=0.9","67549868a9ea0e2c285a8f14","679edb085803f58d6bbd31ca","679ee5f3fdc71b640a413ae5","","8174","[""Example 1<br><br>You will watch Omnge Sort in action. Try to identify any patterns in the comparisons made by this method. <br><br>Press Enter to continue.""]","enter","",""
"","","","","","html-keyboard-response","20","392543","0.0-8.0","21","1","2025-02-02 03:27:04","bc01a2b6f61d06f6604adb8657495020","75.88.105.191","Mozilla/5.0 (Macintosh; Intel Mac OS X 10_15_7) AppleWebKit/605.1.15 (KHTML, like Gecko) Version/17.3.1 Safari/605.1.15","Macintosh","Safari","17.3.1","OS X","10_15_7","https://app.prolific.com/","en-US,en;q=0.9","67549868a9ea0e2c285a8f14","679edb085803f58d6bbd31ca","679ee5f3fdc71b640a413ae5","","null","<img id='selected' src='G_3.jpg' height='90'> <img src='G_1.jpg' height='90'> <img src='G_9.jpg' height='90'> <img src='G_7.jpg' height='90'> <img src='G_5.jpg' height='90'>","null","Animation0",""
"","","","","","html-keyboard-response","21","393048","0.0-9.0","21","1","2025-02-02 03:27:04","bc01a2b6f61d06f6604adb8657495020","75.88.105.191","Mozilla/5.0 (Macintosh; Intel Mac OS X 10_15_7) AppleWebKit/605.1.15 (KHTML, like Gecko) Version/17.3.1 Safari/605.1.15","Macintosh","Safari","17.3.1","OS X","10_15_7","https://app.prolific.com/","en-US,en;q=0.9","67549868a9ea0e2c285a8f14","679edb085803f58d6bbd31ca","679ee5f3fdc71b640a413ae5","","null","<img id='selected' src='G_3.jpg' height='90'> <img id='selected' src='G_1.jpg' height='90'> <img src='G_9.jpg' height='90'> <img src='G_7.jpg' height='90'> <img src='G_5.jpg' height='90'>","null","Animation0",""
"","","","","","html-keyboard-response","22","393553","0.0-10.0","21","1","2025-02-02 03:27:04","bc01a2b6f61d06f6604adb8657495020","75.88.105.191","Mozilla/5.0 (Macintosh; Intel Mac OS X 10_15_7) AppleWebKit/605.1.15 (KHTML, like Gecko) Version/17.3.1 Safari/605.1.15","Macintosh","Safari","17.3.1","OS X","10_15_7","https://app.prolific.com/","en-US,en;q=0.9","67549868a9ea0e2c285a8f14","679edb085803f58d6bbd31ca","679ee5f3fdc71b640a413ae5","","null","<img id='swapped' src='G_1.jpg' height='90'> <img id='swapped' src='G_3.jpg' height='90'> <img src='G_9.jpg' height='90'> <img src='G_7.jpg' height='90'> <img src='G_5.jpg' height='90'>","null","Animation0",""
"","","","","","html-keyboard-response","23","393857","0.0-11.0","21","1","2025-02-02 03:27:04","bc01a2b6f61d06f6604adb8657495020","75.88.105.191","Mozilla/5.0 (Macintosh; Intel Mac OS X 10_15_7) AppleWebKit/605.1.15 (KHTML, like Gecko) Version/17.3.1 Safari/605.1.15","Macintosh","Safari","17.3.1","OS X","10_15_7","https://app.prolific.com/","en-US,en;q=0.9","67549868a9ea0e2c285a8f14","679edb085803f58d6bbd31ca","679ee5f3fdc71b640a413ae5","","null","<img  src='G_1.jpg' height='90'> <img  src='G_3.jpg' height='90'> <img src='G_9.jpg' height='90'> <img src='G_7.jpg' height='90'> <img src='G_5.jpg' height='90'>","null","Animation0",""
"","","","","","html-keyboard-response","24","394362","0.0-12.0","21","1","2025-02-02 03:27:04","bc01a2b6f61d06f6604adb8657495020","75.88.105.191","Mozilla/5.0 (Macintosh; Intel Mac OS X 10_15_7) AppleWebKit/605.1.15 (KHTML, like Gecko) Version/17.3.1 Safari/605.1.15","Macintosh","Safari","17.3.1","OS X","10_15_7","https://app.prolific.com/","en-US,en;q=0.9","67549868a9ea0e2c285a8f14","679edb085803f58d6bbd31ca","679ee5f3fdc71b640a413ae5","","null","<img  src='G_1.jpg' height='90'> <img id='selected'  src='G_3.jpg' height='90'> <img src='G_9.jpg' height='90'> <img src='G_7.jpg' height='90'> <img src='G_5.jpg' height='90'>","null","Animation0",""
"","","","","","html-keyboard-response","25","394867","0.0-13.0","21","1","2025-02-02 03:27:04","bc01a2b6f61d06f6604adb8657495020","75.88.105.191","Mozilla/5.0 (Macintosh; Intel Mac OS X 10_15_7) AppleWebKit/605.1.15 (KHTML, like Gecko) Version/17.3.1 Safari/605.1.15","Macintosh","Safari","17.3.1","OS X","10_15_7","https://app.prolific.com/","en-US,en;q=0.9","67549868a9ea0e2c285a8f14","679edb085803f58d6bbd31ca","679ee5f3fdc71b640a413ae5","","null","<img  src='G_1.jpg' height='90'> <img id='selected'  src='G_3.jpg' height='90'> <img id='selected' src='G_9.jpg' height='90'> <img src='G_7.jpg' height='90'> <img src='G_5.jpg' height='90'>","null","Animation0",""
"","","","","","html-keyboard-response","26","395371","0.0-14.0","21","1","2025-02-02 03:27:04","bc01a2b6f61d06f6604adb8657495020","75.88.105.191","Mozilla/5.0 (Macintosh; Intel Mac OS X 10_15_7) AppleWebKit/605.1.15 (KHTML, like Gecko) Version/17.3.1 Safari/605.1.15","Macintosh","Safari","17.3.1","OS X","10_15_7","https://app.prolific.com/","en-US,en;q=0.9","67549868a9ea0e2c285a8f14","679edb085803f58d6bbd31ca","679ee5f3fdc71b640a413ae5","","null","<img  src='G_1.jpg' height='90'> <img id='selected'  src='G_3.jpg' height='90'> <img id='selected' src='G_9.jpg' height='90'> <img src='G_7.jpg' height='90'> <img src='G_5.jpg' height='90'>","null","Animation0",""
"","","","","","html-keyboard-response","27","395675","0.0-15.0","21","1","2025-02-02 03:27:04","bc01a2b6f61d06f6604adb8657495020","75.88.105.191","Mozilla/5.0 (Macintosh; Intel Mac OS X 10_15_7) AppleWebKit/605.1.15 (KHTML, like Gecko) Version/17.3.1 Safari/605.1.15","Macintosh","Safari","17.3.1","OS X","10_15_7","https://app.prolific.com/","en-US,en;q=0.9","67549868a9ea0e2c285a8f14","679edb085803f58d6bbd31ca","679ee5f3fdc71b640a413ae5","","null","<img  src='G_1.jpg' height='90'> <img   src='G_3.jpg' height='90'> <img  src='G_9.jpg' height='90'> <img src='G_7.jpg' height='90'> <img src='G_5.jpg' height='90'>","null","Animation0",""
"","","","","","html-keyboard-response","28","396179","0.0-16.0","21","1","2025-02-02 03:27:04","bc01a2b6f61d06f6604adb8657495020","75.88.105.191","Mozilla/5.0 (Macintosh; Intel Mac OS X 10_15_7) AppleWebKit/605.1.15 (KHTML, like Gecko) Version/17.3.1 Safari/605.1.15","Macintosh","Safari","17.3.1","OS X","10_15_7","https://app.prolific.com/","en-US,en;q=0.9","67549868a9ea0e2c285a8f14","679edb085803f58d6bbd31ca","679ee5f3fdc71b640a413ae5","","null","<img  src='G_1.jpg' height='90'> <img   src='G_3.jpg' height='90'> <img id='selected'  src='G_9.jpg' height='90'> <img src='G_7.jpg' height='90'> <img src='G_5.jpg' height='90'>","null","Animation0",""
"","","","","","html-keyboard-response","29","396684","0.0-17.0","21","1","2025-02-02 03:27:04","bc01a2b6f61d06f6604adb8657495020","75.88.105.191","Mozilla/5.0 (Macintosh; Intel Mac OS X 10_15_7) AppleWebKit/605.1.15 (KHTML, like Gecko) Version/17.3.1 Safari/605.1.15","Macintosh","Safari","17.3.1","OS X","10_15_7","https://app.prolific.com/","en-US,en;q=0.9","67549868a9ea0e2c285a8f14","679edb085803f58d6bbd31ca","679ee5f3fdc71b640a413ae5","","null","<img  src='G_1.jpg' height='90'> <img   src='G_3.jpg' height='90'> <img id='selected'  src='G_9.jpg' height='90'> <img id='selected' src='G_7.jpg' height='90'> <img src='G_5.jpg' height='90'>","null","Animation0",""
"","","","","","html-keyboard-response","30","397188","0.0-18.0","21","1","2025-02-02 03:27:04","bc01a2b6f61d06f6604adb8657495020","75.88.105.191","Mozilla/5.0 (Macintosh; Intel Mac OS X 10_15_7) AppleWebKit/605.1.15 (KHTML, like Gecko) Version/17.3.1 Safari/605.1.15","Macintosh","Safari","17.3.1","OS X","10_15_7","https://app.prolific.com/","en-US,en;q=0.9","67549868a9ea0e2c285a8f14","679edb085803f58d6bbd31ca","679ee5f3fdc71b640a413ae5","","null","<img  src='G_1.jpg' height='90'> <img   src='G_3.jpg' height='90'> <img id='selected'  src='G_9.jpg' height='90'> <img id='selected' src='G_7.jpg' height='90'> <img src='G_5.jpg' height='90'>","null","Animation0",""
"","","","","","html-keyboard-response","31","397493","0.0-19.0","21","1","2025-02-02 03:27:04","bc01a2b6f61d06f6604adb8657495020","75.88.105.191","Mozilla/5.0 (Macintosh; Intel Mac OS X 10_15_7) AppleWebKit/605.1.15 (KHTML, like Gecko) Version/17.3.1 Safari/605.1.15","Macintosh","Safari","17.3.1","OS X","10_15_7","https://app.prolific.com/","en-US,en;q=0.9","67549868a9ea0e2c285a8f14","679edb085803f58d6bbd31ca","679ee5f3fdc71b640a413ae5","","null","<img  src='G_1.jpg' height='90'> <img   src='G_3.jpg' height='90'> <img   src='G_9.jpg' height='90'> <img  src='G_7.jpg' height='90'> <img src='G_5.jpg' height='90'>","null","Animation0",""
"","","","","","html-keyboard-response","32","397998","0.0-20.0","21","1","2025-02-02 03:27:04","bc01a2b6f61d06f6604adb8657495020","75.88.105.191","Mozilla/5.0 (Macintosh; Intel Mac OS X 10_15_7) AppleWebKit/605.1.15 (KHTML, like Gecko) Version/17.3.1 Safari/605.1.15","Macintosh","Safari","17.3.1","OS X","10_15_7","https://app.prolific.com/","en-US,en;q=0.9","67549868a9ea0e2c285a8f14","679edb085803f58d6bbd31ca","679ee5f3fdc71b640a413ae5","","null","<img  src='G_1.jpg' height='90'> <img   src='G_3.jpg' height='90'> <img   src='G_9.jpg' height='90'> <img id='selected'  src='G_7.jpg' height='90'> <img src='G_5.jpg' height='90'>","null","Animation0",""
"","","","","","html-keyboard-response","33","398503","0.0-21.0","21","1","2025-02-02 03:27:04","bc01a2b6f61d06f6604adb8657495020","75.88.105.191","Mozilla/5.0 (Macintosh; Intel Mac OS X 10_15_7) AppleWebKit/605.1.15 (KHTML, like Gecko) Version/17.3.1 Safari/605.1.15","Macintosh","Safari","17.3.1","OS X","10_15_7","https://app.prolific.com/","en-US,en;q=0.9","67549868a9ea0e2c285a8f14","679edb085803f58d6bbd31ca","679ee5f3fdc71b640a413ae5","","null","<img  src='G_1.jpg' height='90'> <img   src='G_3.jpg' height='90'> <img   src='G_9.jpg' height='90'> <img id='selected'  src='G_7.jpg' height='90'> <img id='selected' src='G_5.jpg' height='90'>","null","Animation0",""
"","","","","","html-keyboard-response","34","399008","0.0-22.0","21","1","2025-02-02 03:27:04","bc01a2b6f61d06f6604adb8657495020","75.88.105.191","Mozilla/5.0 (Macintosh; Intel Mac OS X 10_15_7) AppleWebKit/605.1.15 (KHTML, like Gecko) Version/17.3.1 Safari/605.1.15","Macintosh","Safari","17.3.1","OS X","10_15_7","https://app.prolific.com/","en-US,en;q=0.9","67549868a9ea0e2c285a8f14","679edb085803f58d6bbd31ca","679ee5f3fdc71b640a413ae5","","null","<img  src='G_1.jpg' height='90'> <img   src='G_3.jpg' height='90'> <img   src='G_9.jpg' height='90'> <img id='selected'  src='G_7.jpg' height='90'> <img id='selected' src='G_5.jpg' height='90'>","null","Animation0",""
"","","","","","html-keyboard-response","35","399312","0.0-23.0","21","1","2025-02-02 03:27:04","bc01a2b6f61d06f6604adb8657495020","75.88.105.191","Mozilla/5.0 (Macintosh; Intel Mac OS X 10_15_7) AppleWebKit/605.1.15 (KHTML, like Gecko) Version/17.3.1 Safari/605.1.15","Macintosh","Safari","17.3.1","OS X","10_15_7","https://app.prolific.com/","en-US,en;q=0.9","67549868a9ea0e2c285a8f14","679edb085803f58d6bbd31ca","679ee5f3fdc71b640a413ae5","","null","<img  src='G_1.jpg' height='90'> <img   src='G_3.jpg' height='90'> <img   src='G_9.jpg' height='90'> <img   src='G_7.jpg' height='90'> <img  src='G_5.jpg' height='90'>","null","Animation0",""
"","","","","","html-keyboard-response","36","404650","0.0-24.0","21","1","2025-02-02 03:27:04","bc01a2b6f61d06f6604adb8657495020","75.88.105.191","Mozilla/5.0 (Macintosh; Intel Mac OS X 10_15_7) AppleWebKit/605.1.15 (KHTML, like Gecko) Version/17.3.1 Safari/605.1.15","Macintosh","Safari","17.3.1","OS X","10_15_7","https://app.prolific.com/","en-US,en;q=0.9","67549868a9ea0e2c285a8f14","679edb085803f58d6bbd31ca","679ee5f3fdc71b640a413ae5","","5334","[""Did you notice any patterns? <br><br>Press Enter to watch that example again and follow the steps of Omgne Sort.""]","enter","",""
"","","","","","html-button-response","37","405054","0.0-25.0","21","1","2025-02-02 03:27:04","bc01a2b6f61d06f6604adb8657495020","75.88.105.191","Mozilla/5.0 (Macintosh; Intel Mac OS X 10_15_7) AppleWebKit/605.1.15 (KHTML, like Gecko) Version/17.3.1 Safari/605.1.15","Macintosh","Safari","17.3.1","OS X","10_15_7","https://app.prolific.com/","en-US,en;q=0.9","67549868a9ea0e2c285a8f14","679edb085803f58d6bbd31ca","679ee5f3fdc71b640a413ae5","","null","<img id='selected' src='G_3.jpg' height='90'> <img src='G_1.jpg' height='90'> <img src='G_9.jpg' height='90'> <img src='G_7.jpg' height='90'> <img src='G_5.jpg' height='90'>","null","Learning example 0",""
"","","","","","html-button-response","38","405360","0.0-26.0","21","1","2025-02-02 03:27:04","bc01a2b6f61d06f6604adb8657495020","75.88.105.191","Mozilla/5.0 (Macintosh; Intel Mac OS X 10_15_7) AppleWebKit/605.1.15 (KHTML, like Gecko) Version/17.3.1 Safari/605.1.15","Macintosh","Safari","17.3.1","OS X","10_15_7","https://app.prolific.com/","en-US,en;q=0.9","67549868a9ea0e2c285a8f14","679edb085803f58d6bbd31ca","679ee5f3fdc71b640a413ae5","","null","<img id='selected' src='G_3.jpg' height='90'> <img id='selected' src='G_1.jpg' height='90'> <img src='G_9.jpg' height='90'> <img src='G_7.jpg' height='90'> <img src='G_5.jpg' height='90'>","null","Learning example 0",""
"","","","","","html-button-response","39","405666","0.0-27.0","21","1","2025-02-02 03:27:04","bc01a2b6f61d06f6604adb8657495020","75.88.105.191","Mozilla/5.0 (Macintosh; Intel Mac OS X 10_15_7) AppleWebKit/605.1.15 (KHTML, like Gecko) Version/17.3.1 Safari/605.1.15","Macintosh","Safari","17.3.1","OS X","10_15_7","https://app.prolific.com/","en-US,en;q=0.9","67549868a9ea0e2c285a8f14","679edb085803f58d6bbd31ca","679ee5f3fdc71b640a413ae5","","null","<img id='swapped' src='G_1.jpg' height='90'> <img id='swapped' src='G_3.jpg' height='90'> <img src='G_9.jpg' height='90'> <img src='G_7.jpg' height='90'> <img src='G_5.jpg' height='90'>","null","Learning example 0",""
"","","","","","html-button-response","40","430954","0.0-28.0-0.0-0.0","21","1","2025-02-02 03:27:04","bc01a2b6f61d06f6604adb8657495020","75.88.105.191","Mozilla/5.0 (Macintosh; Intel Mac OS X 10_15_7) AppleWebKit/605.1.15 (KHTML, like Gecko) Version/17.3.1 Safari/605.1.15","Macintosh","Safari","17.3.1","OS X","10_15_7","https://app.prolific.com/","en-US,en;q=0.9","67549868a9ea0e2c285a8f14","679edb085803f58d6bbd31ca","679ee5f3fdc71b640a413ae5","","25283","<img id='swapped' src='G_1.jpg' height='90'> <img id='swapped' src='G_3.jpg' height='90'> <img src='G_9.jpg' height='90'> <img src='G_7.jpg' height='90'> <img src='G_5.jpg' height='90'>","0","Learning example 0",""
"","","","","","html-button-response","41","438069","0.0-28.1-0.1-0.1","21","1","2025-02-02 03:27:04","bc01a2b6f61d06f6604adb8657495020","75.88.105.191","Mozilla/5.0 (Macintosh; Intel Mac OS X 10_15_7) AppleWebKit/605.1.15 (KHTML, like Gecko) Version/17.3.1 Safari/605.1.15","Macintosh","Safari","17.3.1","OS X","10_15_7","https://app.prolific.com/","en-US,en;q=0.9","67549868a9ea0e2c285a8f14","679edb085803f58d6bbd31ca","679ee5f3fdc71b640a413ae5","","7111","<img id='swapped' src='G_1.jpg' height='90'> <img id='swapped' src='G_3.jpg' height='90'> <img src='G_9.jpg' height='90'> <img src='G_7.jpg' height='90'> <img src='G_5.jpg' height='90'>","0","Learning example 0",""
"","","","","","html-button-response","42","439154","0.0-28.2-0.2-0.2","21","1","2025-02-02 03:27:04","bc01a2b6f61d06f6604adb8657495020","75.88.105.191","Mozilla/5.0 (Macintosh; Intel Mac OS X 10_15_7) AppleWebKit/605.1.15 (KHTML, like Gecko) Version/17.3.1 Safari/605.1.15","Macintosh","Safari","17.3.1","OS X","10_15_7","https://app.prolific.com/","en-US,en;q=0.9","67549868a9ea0e2c285a8f14","679edb085803f58d6bbd31ca","679ee5f3fdc71b640a413ae5","","1083","<img id='swapped' src='G_1.jpg' height='90'> <img id='swapped' src='G_3.jpg' height='90'> <img src='G_9.jpg' height='90'> <img src='G_7.jpg' height='90'> <img src='G_5.jpg' height='90'>","1","Learning example 0",""
"","","","","","html-button-response","43","439358","0.0-29.0","21","1","2025-02-02 03:27:04","bc01a2b6f61d06f6604adb8657495020","75.88.105.191","Mozilla/5.0 (Macintosh; Intel Mac OS X 10_15_7) AppleWebKit/605.1.15 (KHTML, like Gecko) Version/17.3.1 Safari/605.1.15","Macintosh","Safari","17.3.1","OS X","10_15_7","https://app.prolific.com/","en-US,en;q=0.9","67549868a9ea0e2c285a8f14","679edb085803f58d6bbd31ca","679ee5f3fdc71b640a413ae5","","null","<img  src='G_1.jpg' height='90'> <img  src='G_3.jpg' height='90'> <img src='G_9.jpg' height='90'> <img src='G_7.jpg' height='90'> <img src='G_5.jpg' height='90'>","null","Learning example 0",""
"","","","","","html-button-response","44","439764","0.0-30.0","21","1","2025-02-02 03:27:04","bc01a2b6f61d06f6604adb8657495020","75.88.105.191","Mozilla/5.0 (Macintosh; Intel Mac OS X 10_15_7) AppleWebKit/605.1.15 (KHTML, like Gecko) Version/17.3.1 Safari/605.1.15","Macintosh","Safari","17.3.1","OS X","10_15_7","https://app.prolific.com/","en-US,en;q=0.9","67549868a9ea0e2c285a8f14","679edb085803f58d6bbd31ca","679ee5f3fdc71b640a413ae5","","null","<img  src='G_1.jpg' height='90'> <img id='selected'  src='G_3.jpg' height='90'> <img src='G_9.jpg' height='90'> <img src='G_7.jpg' height='90'> <img src='G_5.jpg' height='90'>","null","Learning example 0",""
"","","","","","html-button-response","45","440070","0.0-31.0","21","1","2025-02-02 03:27:04","bc01a2b6f61d06f6604adb8657495020","75.88.105.191","Mozilla/5.0 (Macintosh; Intel Mac OS X 10_15_7) AppleWebKit/605.1.15 (KHTML, like Gecko) Version/17.3.1 Safari/605.1.15","Macintosh","Safari","17.3.1","OS X","10_15_7","https://app.prolific.com/","en-US,en;q=0.9","67549868a9ea0e2c285a8f14","679edb085803f58d6bbd31ca","679ee5f3fdc71b640a413ae5","","null","<img  src='G_1.jpg' height='90'> <img id='selected'  src='G_3.jpg' height='90'> <img id='selected' src='G_9.jpg' height='90'> <img src='G_7.jpg' height='90'> <img src='G_5.jpg' height='90'>","null","Learning example 0",""
"","","","","","html-button-response","46","440376","0.0-32.0","21","1","2025-02-02 03:27:04","bc01a2b6f61d06f6604adb8657495020","75.88.105.191","Mozilla/5.0 (Macintosh; Intel Mac OS X 10_15_7) AppleWebKit/605.1.15 (KHTML, like Gecko) Version/17.3.1 Safari/605.1.15","Macintosh","Safari","17.3.1","OS X","10_15_7","https://app.prolific.com/","en-US,en;q=0.9","67549868a9ea0e2c285a8f14","679edb085803f58d6bbd31ca","679ee5f3fdc71b640a413ae5","","null","<img  src='G_1.jpg' height='90'> <img id='selected'  src='G_3.jpg' height='90'> <img id='selected' src='G_9.jpg' height='90'> <img src='G_7.jpg' height='90'> <img src='G_5.jpg' height='90'>","null","Learning example 0",""
"","","","","","html-button-response","47","442853","0.0-33.0-0.0-0.0","21","1","2025-02-02 03:27:04","bc01a2b6f61d06f6604adb8657495020","75.88.105.191","Mozilla/5.0 (Macintosh; Intel Mac OS X 10_15_7) AppleWebKit/605.1.15 (KHTML, like Gecko) Version/17.3.1 Safari/605.1.15","Macintosh","Safari","17.3.1","OS X","10_15_7","https://app.prolific.com/","en-US,en;q=0.9","67549868a9ea0e2c285a8f14","679edb085803f58d6bbd31ca","679ee5f3fdc71b640a413ae5","","2473","<img  src='G_1.jpg' height='90'> <img id='selected'  src='G_3.jpg' height='90'> <img id='selected' src='G_9.jpg' height='90'> <img src='G_7.jpg' height='90'> <img src='G_5.jpg' height='90'>","1","Learning example 0",""
"","","","","","html-button-response","48","444202","0.0-33.1-0.1-0.1","21","1","2025-02-02 03:27:04","bc01a2b6f61d06f6604adb8657495020","75.88.105.191","Mozilla/5.0 (Macintosh; Intel Mac OS X 10_15_7) AppleWebKit/605.1.15 (KHTML, like Gecko) Version/17.3.1 Safari/605.1.15","Macintosh","Safari","17.3.1","OS X","10_15_7","https://app.prolific.com/","en-US,en;q=0.9","67549868a9ea0e2c285a8f14","679edb085803f58d6bbd31ca","679ee5f3fdc71b640a413ae5","","1346","<img  src='G_1.jpg' height='90'> <img id='selected'  src='G_3.jpg' height='90'> <img id='selected' src='G_9.jpg' height='90'> <img src='G_7.jpg' height='90'> <img src='G_5.jpg' height='90'>","2","Learning example 0",""
"","","","","","html-button-response","49","444408","0.0-34.0","21","1","2025-02-02 03:27:04","bc01a2b6f61d06f6604adb8657495020","75.88.105.191","Mozilla/5.0 (Macintosh; Intel Mac OS X 10_15_7) AppleWebKit/605.1.15 (KHTML, like Gecko) Version/17.3.1 Safari/605.1.15","Macintosh","Safari","17.3.1","OS X","10_15_7","https://app.prolific.com/","en-US,en;q=0.9","67549868a9ea0e2c285a8f14","679edb085803f58d6bbd31ca","679ee5f3fdc71b640a413ae5","","null","<img  src='G_1.jpg' height='90'> <img   src='G_3.jpg' height='90'> <img  src='G_9.jpg' height='90'> <img src='G_7.jpg' height='90'> <img src='G_5.jpg' height='90'>","null","Learning example 0",""
"","","","","","html-button-response","50","444815","0.0-35.0","21","1","2025-02-02 03:27:04","bc01a2b6f61d06f6604adb8657495020","75.88.105.191","Mozilla/5.0 (Macintosh; Intel Mac OS X 10_15_7) AppleWebKit/605.1.15 (KHTML, like Gecko) Version/17.3.1 Safari/605.1.15","Macintosh","Safari","17.3.1","OS X","10_15_7","https://app.prolific.com/","en-US,en;q=0.9","67549868a9ea0e2c285a8f14","679edb085803f58d6bbd31ca","679ee5f3fdc71b640a413ae5","","null","<img  src='G_1.jpg' height='90'> <img   src='G_3.jpg' height='90'> <img id='selected'  src='G_9.jpg' height='90'> <img src='G_7.jpg' height='90'> <img src='G_5.jpg' height='90'>","null","Learning example 0",""
"","","","","","html-button-response","51","445121","0.0-36.0","21","1","2025-02-02 03:27:04","bc01a2b6f61d06f6604adb8657495020","75.88.105.191","Mozilla/5.0 (Macintosh; Intel Mac OS X 10_15_7) AppleWebKit/605.1.15 (KHTML, like Gecko) Version/17.3.1 Safari/605.1.15","Macintosh","Safari","17.3.1","OS X","10_15_7","https://app.prolific.com/","en-US,en;q=0.9","67549868a9ea0e2c285a8f14","679edb085803f58d6bbd31ca","679ee5f3fdc71b640a413ae5","","null","<img  src='G_1.jpg' height='90'> <img   src='G_3.jpg' height='90'> <img id='selected'  src='G_9.jpg' height='90'> <img id='selected' src='G_7.jpg' height='90'> <img src='G_5.jpg' height='90'>","null","Learning example 0",""
"","","","","","html-button-response","52","445427","0.0-37.0","21","1","2025-02-02 03:27:04","bc01a2b6f61d06f6604adb8657495020","75.88.105.191","Mozilla/5.0 (Macintosh; Intel Mac OS X 10_15_7) AppleWebKit/605.1.15 (KHTML, like Gecko) Version/17.3.1 Safari/605.1.15","Macintosh","Safari","17.3.1","OS X","10_15_7","https://app.prolific.com/","en-US,en;q=0.9","67549868a9ea0e2c285a8f14","679edb085803f58d6bbd31ca","679ee5f3fdc71b640a413ae5","","null","<img  src='G_1.jpg' height='90'> <img   src='G_3.jpg' height='90'> <img id='selected'  src='G_9.jpg' height='90'> <img id='selected' src='G_7.jpg' height='90'> <img src='G_5.jpg' height='90'>","null","Learning example 0",""
"","","","","","html-button-response","53","446471","0.0-38.0-0.0-0.0","21","1","2025-02-02 03:27:04","bc01a2b6f61d06f6604adb8657495020","75.88.105.191","Mozilla/5.0 (Macintosh; Intel Mac OS X 10_15_7) AppleWebKit/605.1.15 (KHTML, like Gecko) Version/17.3.1 Safari/605.1.15","Macintosh","Safari","17.3.1","OS X","10_15_7","https://app.prolific.com/","en-US,en;q=0.9","67549868a9ea0e2c285a8f14","679edb085803f58d6bbd31ca","679ee5f3fdc71b640a413ae5","","1039","<img  src='G_1.jpg' height='90'> <img   src='G_3.jpg' height='90'> <img id='selected'  src='G_9.jpg' height='90'> <img id='selected' src='G_7.jpg' height='90'> <img src='G_5.jpg' height='90'>","2","Learning example 0",""
"","","","","","html-button-response","54","447587","0.0-38.1-0.1-0.1","21","1","2025-02-02 03:27:04","bc01a2b6f61d06f6604adb8657495020","75.88.105.191","Mozilla/5.0 (Macintosh; Intel Mac OS X 10_15_7) AppleWebKit/605.1.15 (KHTML, like Gecko) Version/17.3.1 Safari/605.1.15","Macintosh","Safari","17.3.1","OS X","10_15_7","https://app.prolific.com/","en-US,en;q=0.9","67549868a9ea0e2c285a8f14","679edb085803f58d6bbd31ca","679ee5f3fdc71b640a413ae5","","1111","<img  src='G_1.jpg' height='90'> <img   src='G_3.jpg' height='90'> <img id='selected'  src='G_9.jpg' height='90'> <img id='selected' src='G_7.jpg' height='90'> <img src='G_5.jpg' height='90'>","3","Learning example 0",""
"","","","","","html-button-response","55","447791","0.0-39.0","21","1","2025-02-02 03:27:04","bc01a2b6f61d06f6604adb8657495020","75.88.105.191","Mozilla/5.0 (Macintosh; Intel Mac OS X 10_15_7) AppleWebKit/605.1.15 (KHTML, like Gecko) Version/17.3.1 Safari/605.1.15","Macintosh","Safari","17.3.1","OS X","10_15_7","https://app.prolific.com/","en-US,en;q=0.9","67549868a9ea0e2c285a8f14","679edb085803f58d6bbd31ca","679ee5f3fdc71b640a413ae5","","null","<img  src='G_1.jpg' height='90'> <img   src='G_3.jpg' height='90'> <img   src='G_9.jpg' height='90'> <img  src='G_7.jpg' height='90'> <img src='G_5.jpg' height='90'>","null","Learning example 0",""
"","","","","","html-button-response","56","448198","0.0-40.0","21","1","2025-02-02 03:27:04","bc01a2b6f61d06f6604adb8657495020","75.88.105.191","Mozilla/5.0 (Macintosh; Intel Mac OS X 10_15_7) AppleWebKit/605.1.15 (KHTML, like Gecko) Version/17.3.1 Safari/605.1.15","Macintosh","Safari","17.3.1","OS X","10_15_7","https://app.prolific.com/","en-US,en;q=0.9","67549868a9ea0e2c285a8f14","679edb085803f58d6bbd31ca","679ee5f3fdc71b640a413ae5","","null","<img  src='G_1.jpg' height='90'> <img   src='G_3.jpg' height='90'> <img   src='G_9.jpg' height='90'> <img id='selected'  src='G_7.jpg' height='90'> <img src='G_5.jpg' height='90'>","null","Learning example 0",""
"","","","","","html-button-response","57","448504","0.0-41.0","21","1","2025-02-02 03:27:04","bc01a2b6f61d06f6604adb8657495020","75.88.105.191","Mozilla/5.0 (Macintosh; Intel Mac OS X 10_15_7) AppleWebKit/605.1.15 (KHTML, like Gecko) Version/17.3.1 Safari/605.1.15","Macintosh","Safari","17.3.1","OS X","10_15_7","https://app.prolific.com/","en-US,en;q=0.9","67549868a9ea0e2c285a8f14","679edb085803f58d6bbd31ca","679ee5f3fdc71b640a413ae5","","null","<img  src='G_1.jpg' height='90'> <img   src='G_3.jpg' height='90'> <img   src='G_9.jpg' height='90'> <img id='selected'  src='G_7.jpg' height='90'> <img id='selected' src='G_5.jpg' height='90'>","null","Learning example 0",""
"","","","","","html-button-response","58","448810","0.0-42.0","21","1","2025-02-02 03:27:04","bc01a2b6f61d06f6604adb8657495020","75.88.105.191","Mozilla/5.0 (Macintosh; Intel Mac OS X 10_15_7) AppleWebKit/605.1.15 (KHTML, like Gecko) Version/17.3.1 Safari/605.1.15","Macintosh","Safari","17.3.1","OS X","10_15_7","https://app.prolific.com/","en-US,en;q=0.9","67549868a9ea0e2c285a8f14","679edb085803f58d6bbd31ca","679ee5f3fdc71b640a413ae5","","null","<img  src='G_1.jpg' height='90'> <img   src='G_3.jpg' height='90'> <img   src='G_9.jpg' height='90'> <img id='selected'  src='G_7.jpg' height='90'> <img id='selected' src='G_5.jpg' height='90'>","null","Learning example 0",""
"","","","","","html-button-response","59","450102","0.0-43.0-0.0-0.0","21","1","2025-02-02 03:27:04","bc01a2b6f61d06f6604adb8657495020","75.88.105.191","Mozilla/5.0 (Macintosh; Intel Mac OS X 10_15_7) AppleWebKit/605.1.15 (KHTML, like Gecko) Version/17.3.1 Safari/605.1.15","Macintosh","Safari","17.3.1","OS X","10_15_7","https://app.prolific.com/","en-US,en;q=0.9","67549868a9ea0e2c285a8f14","679edb085803f58d6bbd31ca","679ee5f3fdc71b640a413ae5","","1289","<img  src='G_1.jpg' height='90'> <img   src='G_3.jpg' height='90'> <img   src='G_9.jpg' height='90'> <img id='selected'  src='G_7.jpg' height='90'> <img id='selected' src='G_5.jpg' height='90'>","3","Learning example 0",""
"","","","","","html-button-response","60","451484","0.0-43.1-0.1-0.1","21","1","2025-02-02 03:27:04","bc01a2b6f61d06f6604adb8657495020","75.88.105.191","Mozilla/5.0 (Macintosh; Intel Mac OS X 10_15_7) AppleWebKit/605.1.15 (KHTML, like Gecko) Version/17.3.1 Safari/605.1.15","Macintosh","Safari","17.3.1","OS X","10_15_7","https://app.prolific.com/","en-US,en;q=0.9","67549868a9ea0e2c285a8f14","679edb085803f58d6bbd31ca","679ee5f3fdc71b640a413ae5","","1379","<img  src='G_1.jpg' height='90'> <img   src='G_3.jpg' height='90'> <img   src='G_9.jpg' height='90'> <img id='selected'  src='G_7.jpg' height='90'> <img id='selected' src='G_5.jpg' height='90'>","4","Learning example 0",""
"","","","","","html-button-response","61","451686","0.0-44.0","21","1","2025-02-02 03:27:04","bc01a2b6f61d06f6604adb8657495020","75.88.105.191","Mozilla/5.0 (Macintosh; Intel Mac OS X 10_15_7) AppleWebKit/605.1.15 (KHTML, like Gecko) Version/17.3.1 Safari/605.1.15","Macintosh","Safari","17.3.1","OS X","10_15_7","https://app.prolific.com/","en-US,en;q=0.9","67549868a9ea0e2c285a8f14","679edb085803f58d6bbd31ca","679ee5f3fdc71b640a413ae5","","null","<img  src='G_1.jpg' height='90'> <img   src='G_3.jpg' height='90'> <img   src='G_9.jpg' height='90'> <img   src='G_7.jpg' height='90'> <img  src='G_5.jpg' height='90'>","null","Learning example 0",""
"","","","","","html-keyboard-response","62","463284","0.0-45.0","21","1","2025-02-02 03:27:04","bc01a2b6f61d06f6604adb8657495020","75.88.105.191","Mozilla/5.0 (Macintosh; Intel Mac OS X 10_15_7) AppleWebKit/605.1.15 (KHTML, like Gecko) Version/17.3.1 Safari/605.1.15","Macintosh","Safari","17.3.1","OS X","10_15_7","https://app.prolific.com/","en-US,en;q=0.9","67549868a9ea0e2c285a8f14","679edb085803f58d6bbd31ca","679ee5f3fdc71b640a413ae5","","11595","[""Final order was 1,2,3,4,5. The initial order was 2,1,3,4,5.<br>It took 1 swaps to sort it correctly with Omgne Sort. <br><br>Press Enter to continue.""]","enter","",""
"","","","","","html-keyboard-response","63","468286","0.0-46.0","21","1","2025-02-02 03:27:04","bc01a2b6f61d06f6604adb8657495020","75.88.105.191","Mozilla/5.0 (Macintosh; Intel Mac OS X 10_15_7) AppleWebKit/605.1.15 (KHTML, like Gecko) Version/17.3.1 Safari/605.1.15","Macintosh","Safari","17.3.1","OS X","10_15_7","https://app.prolific.com/","en-US,en;q=0.9","67549868a9ea0e2c285a8f14","679edb085803f58d6bbd31ca","679ee5f3fdc71b640a413ae5","","5000","[""Example 2<br><br>You will watch Omnge Sort in action. Try to identify any patterns in the comparisons made by this method. <br><br>Press Enter to continue.""]","enter","",""
"","","","","","html-keyboard-response","64","468790","0.0-47.0","21","1","2025-02-02 03:27:04","bc01a2b6f61d06f6604adb8657495020","75.88.105.191","Mozilla/5.0 (Macintosh; Intel Mac OS X 10_15_7) AppleWebKit/605.1.15 (KHTML, like Gecko) Version/17.3.1 Safari/605.1.15","Macintosh","Safari","17.3.1","OS X","10_15_7","https://app.prolific.com/","en-US,en;q=0.9","67549868a9ea0e2c285a8f14","679edb085803f58d6bbd31ca","679ee5f3fdc71b640a413ae5","","null","<img id='selected' src='G_7.jpg' height='90'> <img src='G_1.jpg' height='90'> <img src='G_4.jpg' height='90'> <img src='G_3.jpg' height='90'> <img src='G_2.jpg' height='90'> <img src='G_5.jpg' height='90'> <img src='G_8.jpg' height='90'> <img src='G_6.jpg' height='90'>","null","Animation1",""
"","","","","","html-keyboard-response","65","469296","0.0-48.0","21","1","2025-02-02 03:27:04","bc01a2b6f61d06f6604adb8657495020","75.88.105.191","Mozilla/5.0 (Macintosh; Intel Mac OS X 10_15_7) AppleWebKit/605.1.15 (KHTML, like Gecko) Version/17.3.1 Safari/605.1.15","Macintosh","Safari","17.3.1","OS X","10_15_7","https://app.prolific.com/","en-US,en;q=0.9","67549868a9ea0e2c285a8f14","679edb085803f58d6bbd31ca","679ee5f3fdc71b640a413ae5","","null","<img id='selected' src='G_7.jpg' height='90'> <img id='selected' src='G_1.jpg' height='90'> <img src='G_4.jpg' height='90'> <img src='G_3.jpg' height='90'> <img src='G_2.jpg' height='90'> <img src='G_5.jpg' height='90'> <img src='G_8.jpg' height='90'> <img src='G_6.jpg' height='90'>","null","Animation1",""
"","","","","","html-keyboard-response","66","469802","0.0-49.0","21","1","2025-02-02 03:27:04","bc01a2b6f61d06f6604adb8657495020","75.88.105.191","Mozilla/5.0 (Macintosh; Intel Mac OS X 10_15_7) AppleWebKit/605.1.15 (KHTML, like Gecko) Version/17.3.1 Safari/605.1.15","Macintosh","Safari","17.3.1","OS X","10_15_7","https://app.prolific.com/","en-US,en;q=0.9","67549868a9ea0e2c285a8f14","679edb085803f58d6bbd31ca","679ee5f3fdc71b640a413ae5","","null","<img id='selected' src='G_7.jpg' height='90'> <img id='selected' src='G_1.jpg' height='90'> <img src='G_4.jpg' height='90'> <img src='G_3.jpg' height='90'> <img src='G_2.jpg' height='90'> <img src='G_5.jpg' height='90'> <img src='G_8.jpg' height='90'> <img src='G_6.jpg' height='90'>","null","Animation1",""
"","","","","","html-keyboard-response","67","470109","0.0-50.0","21","1","2025-02-02 03:27:04","bc01a2b6f61d06f6604adb8657495020","75.88.105.191","Mozilla/5.0 (Macintosh; Intel Mac OS X 10_15_7) AppleWebKit/605.1.15 (KHTML, like Gecko) Version/17.3.1 Safari/605.1.15","Macintosh","Safari","17.3.1","OS X","10_15_7","https://app.prolific.com/","en-US,en;q=0.9","67549868a9ea0e2c285a8f14","679edb085803f58d6bbd31ca","679ee5f3fdc71b640a413ae5","","null","<img  src='G_7.jpg' height='90'> <img  src='G_1.jpg' height='90'> <img src='G_4.jpg' height='90'> <img src='G_3.jpg' height='90'> <img src='G_2.jpg' height='90'> <img src='G_5.jpg' height='90'> <img src='G_8.jpg' height='90'> <img src='G_6.jpg' height='90'>","null","Animation1",""
"","","","","","html-keyboard-response","68","470615","0.0-51.0","21","1","2025-02-02 03:27:04","bc01a2b6f61d06f6604adb8657495020","75.88.105.191","Mozilla/5.0 (Macintosh; Intel Mac OS X 10_15_7) AppleWebKit/605.1.15 (KHTML, like Gecko) Version/17.3.1 Safari/605.1.15","Macintosh","Safari","17.3.1","OS X","10_15_7","https://app.prolific.com/","en-US,en;q=0.9","67549868a9ea0e2c285a8f14","679edb085803f58d6bbd31ca","679ee5f3fdc71b640a413ae5","","null","<img  src='G_7.jpg' height='90'> <img id='selected'  src='G_1.jpg' height='90'> <img src='G_4.jpg' height='90'> <img src='G_3.jpg' height='90'> <img src='G_2.jpg' height='90'> <img src='G_5.jpg' height='90'> <img src='G_8.jpg' height='90'> <img src='G_6.jpg' height='90'>","null","Animation1",""
"","","","","","html-keyboard-response","69","471119","0.0-52.0","21","1","2025-02-02 03:27:04","bc01a2b6f61d06f6604adb8657495020","75.88.105.191","Mozilla/5.0 (Macintosh; Intel Mac OS X 10_15_7) AppleWebKit/605.1.15 (KHTML, like Gecko) Version/17.3.1 Safari/605.1.15","Macintosh","Safari","17.3.1","OS X","10_15_7","https://app.prolific.com/","en-US,en;q=0.9","67549868a9ea0e2c285a8f14","679edb085803f58d6bbd31ca","679ee5f3fdc71b640a413ae5","","null","<img  src='G_7.jpg' height='90'> <img id='selected'  src='G_1.jpg' height='90'> <img id='selected' src='G_4.jpg' height='90'> <img src='G_3.jpg' height='90'> <img src='G_2.jpg' height='90'> <img src='G_5.jpg' height='90'> <img src='G_8.jpg' height='90'> <img src='G_6.jpg' height='90'>","null","Animation1",""
"","","","","","html-keyboard-response","70","471625","0.0-53.0","21","1","2025-02-02 03:27:04","bc01a2b6f61d06f6604adb8657495020","75.88.105.191","Mozilla/5.0 (Macintosh; Intel Mac OS X 10_15_7) AppleWebKit/605.1.15 (KHTML, like Gecko) Version/17.3.1 Safari/605.1.15","Macintosh","Safari","17.3.1","OS X","10_15_7","https://app.prolific.com/","en-US,en;q=0.9","67549868a9ea0e2c285a8f14","679edb085803f58d6bbd31ca","679ee5f3fdc71b640a413ae5","","null","<img  src='G_7.jpg' height='90'> <img id='swapped' src='G_4.jpg' height='90'> <img id='swapped'  src='G_1.jpg' height='90'> <img src='G_3.jpg' height='90'> <img src='G_2.jpg' height='90'> <img src='G_5.jpg' height='90'> <img src='G_8.jpg' height='90'> <img src='G_6.jpg' height='90'>","null","Animation1",""
"","","","","","html-keyboard-response","71","471930","0.0-54.0","21","1","2025-02-02 03:27:04","bc01a2b6f61d06f6604adb8657495020","75.88.105.191","Mozilla/5.0 (Macintosh; Intel Mac OS X 10_15_7) AppleWebKit/605.1.15 (KHTML, like Gecko) Version/17.3.1 Safari/605.1.15","Macintosh","Safari","17.3.1","OS X","10_15_7","https://app.prolific.com/","en-US,en;q=0.9","67549868a9ea0e2c285a8f14","679edb085803f58d6bbd31ca","679ee5f3fdc71b640a413ae5","","null","<img  src='G_7.jpg' height='90'> <img  src='G_4.jpg' height='90'> <img   src='G_1.jpg' height='90'> <img src='G_3.jpg' height='90'> <img src='G_2.jpg' height='90'> <img src='G_5.jpg' height='90'> <img src='G_8.jpg' height='90'> <img src='G_6.jpg' height='90'>","null","Animation1",""
"","","","","","html-keyboard-response","72","472437","0.0-55.0","21","1","2025-02-02 03:27:04","bc01a2b6f61d06f6604adb8657495020","75.88.105.191","Mozilla/5.0 (Macintosh; Intel Mac OS X 10_15_7) AppleWebKit/605.1.15 (KHTML, like Gecko) Version/17.3.1 Safari/605.1.15","Macintosh","Safari","17.3.1","OS X","10_15_7","https://app.prolific.com/","en-US,en;q=0.9","67549868a9ea0e2c285a8f14","679edb085803f58d6bbd31ca","679ee5f3fdc71b640a413ae5","","null","<img id='selected'  src='G_7.jpg' height='90'> <img  src='G_4.jpg' height='90'> <img   src='G_1.jpg' height='90'> <img src='G_3.jpg' height='90'> <img src='G_2.jpg' height='90'> <img src='G_5.jpg' height='90'> <img src='G_8.jpg' height='90'> <img src='G_6.jpg' height='90'>","null","Animation1",""
"","","","","","html-keyboard-response","73","472943","0.0-56.0","21","1","2025-02-02 03:27:04","bc01a2b6f61d06f6604adb8657495020","75.88.105.191","Mozilla/5.0 (Macintosh; Intel Mac OS X 10_15_7) AppleWebKit/605.1.15 (KHTML, like Gecko) Version/17.3.1 Safari/605.1.15","Macintosh","Safari","17.3.1","OS X","10_15_7","https://app.prolific.com/","en-US,en;q=0.9","67549868a9ea0e2c285a8f14","679edb085803f58d6bbd31ca","679ee5f3fdc71b640a413ae5","","null","<img id='selected'  src='G_7.jpg' height='90'> <img id='selected'  src='G_4.jpg' height='90'> <img   src='G_1.jpg' height='90'> <img src='G_3.jpg' height='90'> <img src='G_2.jpg' height='90'> <img src='G_5.jpg' height='90'> <img src='G_8.jpg' height='90'> <img src='G_6.jpg' height='90'>","null","Animation1",""
"","","","","","html-keyboard-response","74","473449","0.0-57.0","21","1","2025-02-02 03:27:04","bc01a2b6f61d06f6604adb8657495020","75.88.105.191","Mozilla/5.0 (Macintosh; Intel Mac OS X 10_15_7) AppleWebKit/605.1.15 (KHTML, like Gecko) Version/17.3.1 Safari/605.1.15","Macintosh","Safari","17.3.1","OS X","10_15_7","https://app.prolific.com/","en-US,en;q=0.9","67549868a9ea0e2c285a8f14","679edb085803f58d6bbd31ca","679ee5f3fdc71b640a413ae5","","null","<img id='swapped'  src='G_4.jpg' height='90'> <img id='swapped'  src='G_7.jpg' height='90'> <img   src='G_1.jpg' height='90'> <img src='G_3.jpg' height='90'> <img src='G_2.jpg' height='90'> <img src='G_5.jpg' height='90'> <img src='G_8.jpg' height='90'> <img src='G_6.jpg' height='90'>","null","Animation1",""
"","","","","","html-keyboard-response","75","473756","0.0-58.0","21","1","2025-02-02 03:27:04","bc01a2b6f61d06f6604adb8657495020","75.88.105.191","Mozilla/5.0 (Macintosh; Intel Mac OS X 10_15_7) AppleWebKit/605.1.15 (KHTML, like Gecko) Version/17.3.1 Safari/605.1.15","Macintosh","Safari","17.3.1","OS X","10_15_7","https://app.prolific.com/","en-US,en;q=0.9","67549868a9ea0e2c285a8f14","679edb085803f58d6bbd31ca","679ee5f3fdc71b640a413ae5","","null","<img   src='G_4.jpg' height='90'> <img   src='G_7.jpg' height='90'> <img   src='G_1.jpg' height='90'> <img src='G_3.jpg' height='90'> <img src='G_2.jpg' height='90'> <img src='G_5.jpg' height='90'> <img src='G_8.jpg' height='90'> <img src='G_6.jpg' height='90'>","null","Animation1",""
"","","","","","html-keyboard-response","76","474260","0.0-59.0","21","1","2025-02-02 03:27:04","bc01a2b6f61d06f6604adb8657495020","75.88.105.191","Mozilla/5.0 (Macintosh; Intel Mac OS X 10_15_7) AppleWebKit/605.1.15 (KHTML, like Gecko) Version/17.3.1 Safari/605.1.15","Macintosh","Safari","17.3.1","OS X","10_15_7","https://app.prolific.com/","en-US,en;q=0.9","67549868a9ea0e2c285a8f14","679edb085803f58d6bbd31ca","679ee5f3fdc71b640a413ae5","","null","<img   src='G_4.jpg' height='90'> <img   src='G_7.jpg' height='90'> <img id='selected'   src='G_1.jpg' height='90'> <img src='G_3.jpg' height='90'> <img src='G_2.jpg' height='90'> <img src='G_5.jpg' height='90'> <img src='G_8.jpg' height='90'> <img src='G_6.jpg' height='90'>","null","Animation1",""
"","","","","","html-keyboard-response","77","474766","0.0-60.0","21","1","2025-02-02 03:27:04","bc01a2b6f61d06f6604adb8657495020","75.88.105.191","Mozilla/5.0 (Macintosh; Intel Mac OS X 10_15_7) AppleWebKit/605.1.15 (KHTML, like Gecko) Version/17.3.1 Safari/605.1.15","Macintosh","Safari","17.3.1","OS X","10_15_7","https://app.prolific.com/","en-US,en;q=0.9","67549868a9ea0e2c285a8f14","679edb085803f58d6bbd31ca","679ee5f3fdc71b640a413ae5","","null","<img   src='G_4.jpg' height='90'> <img   src='G_7.jpg' height='90'> <img id='selected'   src='G_1.jpg' height='90'> <img id='selected' src='G_3.jpg' height='90'> <img src='G_2.jpg' height='90'> <img src='G_5.jpg' height='90'> <img src='G_8.jpg' height='90'> <img src='G_6.jpg' height='90'>","null","Animation1",""
"","","","","","html-keyboard-response","78","475272","0.0-61.0","21","1","2025-02-02 03:27:04","bc01a2b6f61d06f6604adb8657495020","75.88.105.191","Mozilla/5.0 (Macintosh; Intel Mac OS X 10_15_7) AppleWebKit/605.1.15 (KHTML, like Gecko) Version/17.3.1 Safari/605.1.15","Macintosh","Safari","17.3.1","OS X","10_15_7","https://app.prolific.com/","en-US,en;q=0.9","67549868a9ea0e2c285a8f14","679edb085803f58d6bbd31ca","679ee5f3fdc71b640a413ae5","","null","<img   src='G_4.jpg' height='90'> <img   src='G_7.jpg' height='90'> <img id='swapped' src='G_3.jpg' height='90'> <img id='swapped'   src='G_1.jpg' height='90'> <img src='G_2.jpg' height='90'> <img src='G_5.jpg' height='90'> <img src='G_8.jpg' height='90'> <img src='G_6.jpg' height='90'>","null","Animation1",""
"","","","","","html-keyboard-response","79","475578","0.0-62.0","21","1","2025-02-02 03:27:04","bc01a2b6f61d06f6604adb8657495020","75.88.105.191","Mozilla/5.0 (Macintosh; Intel Mac OS X 10_15_7) AppleWebKit/605.1.15 (KHTML, like Gecko) Version/17.3.1 Safari/605.1.15","Macintosh","Safari","17.3.1","OS X","10_15_7","https://app.prolific.com/","en-US,en;q=0.9","67549868a9ea0e2c285a8f14","679edb085803f58d6bbd31ca","679ee5f3fdc71b640a413ae5","","null","<img   src='G_4.jpg' height='90'> <img   src='G_7.jpg' height='90'> <img  src='G_3.jpg' height='90'> <img    src='G_1.jpg' height='90'> <img src='G_2.jpg' height='90'> <img src='G_5.jpg' height='90'> <img src='G_8.jpg' height='90'> <img src='G_6.jpg' height='90'>","null","Animation1",""
"","","","","","html-keyboard-response","80","476083","0.0-63.0","21","1","2025-02-02 03:27:04","bc01a2b6f61d06f6604adb8657495020","75.88.105.191","Mozilla/5.0 (Macintosh; Intel Mac OS X 10_15_7) AppleWebKit/605.1.15 (KHTML, like Gecko) Version/17.3.1 Safari/605.1.15","Macintosh","Safari","17.3.1","OS X","10_15_7","https://app.prolific.com/","en-US,en;q=0.9","67549868a9ea0e2c285a8f14","679edb085803f58d6bbd31ca","679ee5f3fdc71b640a413ae5","","null","<img   src='G_4.jpg' height='90'> <img id='selected'   src='G_7.jpg' height='90'> <img  src='G_3.jpg' height='90'> <img    src='G_1.jpg' height='90'> <img src='G_2.jpg' height='90'> <img src='G_5.jpg' height='90'> <img src='G_8.jpg' height='90'> <img src='G_6.jpg' height='90'>","null","Animation1",""
"","","","","","html-keyboard-response","81","476589","0.0-64.0","21","1","2025-02-02 03:27:04","bc01a2b6f61d06f6604adb8657495020","75.88.105.191","Mozilla/5.0 (Macintosh; Intel Mac OS X 10_15_7) AppleWebKit/605.1.15 (KHTML, like Gecko) Version/17.3.1 Safari/605.1.15","Macintosh","Safari","17.3.1","OS X","10_15_7","https://app.prolific.com/","en-US,en;q=0.9","67549868a9ea0e2c285a8f14","679edb085803f58d6bbd31ca","679ee5f3fdc71b640a413ae5","","null","<img   src='G_4.jpg' height='90'> <img id='selected'   src='G_7.jpg' height='90'> <img id='selected'  src='G_3.jpg' height='90'> <img    src='G_1.jpg' height='90'> <img src='G_2.jpg' height='90'> <img src='G_5.jpg' height='90'> <img src='G_8.jpg' height='90'> <img src='G_6.jpg' height='90'>","null","Animation1",""
"","","","","","html-keyboard-response","82","477095","0.0-65.0","21","1","2025-02-02 03:27:04","bc01a2b6f61d06f6604adb8657495020","75.88.105.191","Mozilla/5.0 (Macintosh; Intel Mac OS X 10_15_7) AppleWebKit/605.1.15 (KHTML, like Gecko) Version/17.3.1 Safari/605.1.15","Macintosh","Safari","17.3.1","OS X","10_15_7","https://app.prolific.com/","en-US,en;q=0.9","67549868a9ea0e2c285a8f14","679edb085803f58d6bbd31ca","679ee5f3fdc71b640a413ae5","","null","<img   src='G_4.jpg' height='90'> <img id='swapped'  src='G_3.jpg' height='90'> <img id='swapped'   src='G_7.jpg' height='90'> <img    src='G_1.jpg' height='90'> <img src='G_2.jpg' height='90'> <img src='G_5.jpg' height='90'> <img src='G_8.jpg' height='90'> <img src='G_6.jpg' height='90'>","null","Animation1",""
"","","","","","html-keyboard-response","83","477402","0.0-66.0","21","1","2025-02-02 03:27:04","bc01a2b6f61d06f6604adb8657495020","75.88.105.191","Mozilla/5.0 (Macintosh; Intel Mac OS X 10_15_7) AppleWebKit/605.1.15 (KHTML, like Gecko) Version/17.3.1 Safari/605.1.15","Macintosh","Safari","17.3.1","OS X","10_15_7","https://app.prolific.com/","en-US,en;q=0.9","67549868a9ea0e2c285a8f14","679edb085803f58d6bbd31ca","679ee5f3fdc71b640a413ae5","","null","<img   src='G_4.jpg' height='90'> <img   src='G_3.jpg' height='90'> <img    src='G_7.jpg' height='90'> <img    src='G_1.jpg' height='90'> <img src='G_2.jpg' height='90'> <img src='G_5.jpg' height='90'> <img src='G_8.jpg' height='90'> <img src='G_6.jpg' height='90'>","null","Animation1",""
"","","","","","html-keyboard-response","84","477906","0.0-67.0","21","1","2025-02-02 03:27:04","bc01a2b6f61d06f6604adb8657495020","75.88.105.191","Mozilla/5.0 (Macintosh; Intel Mac OS X 10_15_7) AppleWebKit/605.1.15 (KHTML, like Gecko) Version/17.3.1 Safari/605.1.15","Macintosh","Safari","17.3.1","OS X","10_15_7","https://app.prolific.com/","en-US,en;q=0.9","67549868a9ea0e2c285a8f14","679edb085803f58d6bbd31ca","679ee5f3fdc71b640a413ae5","","null","<img id='selected'   src='G_4.jpg' height='90'> <img   src='G_3.jpg' height='90'> <img    src='G_7.jpg' height='90'> <img    src='G_1.jpg' height='90'> <img src='G_2.jpg' height='90'> <img src='G_5.jpg' height='90'> <img src='G_8.jpg' height='90'> <img src='G_6.jpg' height='90'>","null","Animation1",""
"","","","","","html-keyboard-response","85","478413","0.0-68.0","21","1","2025-02-02 03:27:04","bc01a2b6f61d06f6604adb8657495020","75.88.105.191","Mozilla/5.0 (Macintosh; Intel Mac OS X 10_15_7) AppleWebKit/605.1.15 (KHTML, like Gecko) Version/17.3.1 Safari/605.1.15","Macintosh","Safari","17.3.1","OS X","10_15_7","https://app.prolific.com/","en-US,en;q=0.9","67549868a9ea0e2c285a8f14","679edb085803f58d6bbd31ca","679ee5f3fdc71b640a413ae5","","null","<img id='selected'   src='G_4.jpg' height='90'> <img id='selected'   src='G_3.jpg' height='90'> <img    src='G_7.jpg' height='90'> <img    src='G_1.jpg' height='90'> <img src='G_2.jpg' height='90'> <img src='G_5.jpg' height='90'> <img src='G_8.jpg' height='90'> <img src='G_6.jpg' height='90'>","null","Animation1",""
"","","","","","html-keyboard-response","86","478919","0.0-69.0","21","1","2025-02-02 03:27:04","bc01a2b6f61d06f6604adb8657495020","75.88.105.191","Mozilla/5.0 (Macintosh; Intel Mac OS X 10_15_7) AppleWebKit/605.1.15 (KHTML, like Gecko) Version/17.3.1 Safari/605.1.15","Macintosh","Safari","17.3.1","OS X","10_15_7","https://app.prolific.com/","en-US,en;q=0.9","67549868a9ea0e2c285a8f14","679edb085803f58d6bbd31ca","679ee5f3fdc71b640a413ae5","","null","<img id='swapped'   src='G_3.jpg' height='90'> <img id='swapped'   src='G_4.jpg' height='90'> <img    src='G_7.jpg' height='90'> <img    src='G_1.jpg' height='90'> <img src='G_2.jpg' height='90'> <img src='G_5.jpg' height='90'> <img src='G_8.jpg' height='90'> <img src='G_6.jpg' height='90'>","null","Animation1",""
"","","","","","html-keyboard-response","87","479224","0.0-70.0","21","1","2025-02-02 03:27:04","bc01a2b6f61d06f6604adb8657495020","75.88.105.191","Mozilla/5.0 (Macintosh; Intel Mac OS X 10_15_7) AppleWebKit/605.1.15 (KHTML, like Gecko) Version/17.3.1 Safari/605.1.15","Macintosh","Safari","17.3.1","OS X","10_15_7","https://app.prolific.com/","en-US,en;q=0.9","67549868a9ea0e2c285a8f14","679edb085803f58d6bbd31ca","679ee5f3fdc71b640a413ae5","","null","<img    src='G_3.jpg' height='90'> <img    src='G_4.jpg' height='90'> <img    src='G_7.jpg' height='90'> <img    src='G_1.jpg' height='90'> <img src='G_2.jpg' height='90'> <img src='G_5.jpg' height='90'> <img src='G_8.jpg' height='90'> <img src='G_6.jpg' height='90'>","null","Animation1",""
"","","","","","html-keyboard-response","88","479729","0.0-71.0","21","1","2025-02-02 03:27:04","bc01a2b6f61d06f6604adb8657495020","75.88.105.191","Mozilla/5.0 (Macintosh; Intel Mac OS X 10_15_7) AppleWebKit/605.1.15 (KHTML, like Gecko) Version/17.3.1 Safari/605.1.15","Macintosh","Safari","17.3.1","OS X","10_15_7","https://app.prolific.com/","en-US,en;q=0.9","67549868a9ea0e2c285a8f14","679edb085803f58d6bbd31ca","679ee5f3fdc71b640a413ae5","","null","<img    src='G_3.jpg' height='90'> <img    src='G_4.jpg' height='90'> <img    src='G_7.jpg' height='90'> <img id='selected'    src='G_1.jpg' height='90'> <img src='G_2.jpg' height='90'> <img src='G_5.jpg' height='90'> <img src='G_8.jpg' height='90'> <img src='G_6.jpg' height='90'>","null","Animation1",""
"","","","","","html-keyboard-response","89","480236","0.0-72.0","21","1","2025-02-02 03:27:04","bc01a2b6f61d06f6604adb8657495020","75.88.105.191","Mozilla/5.0 (Macintosh; Intel Mac OS X 10_15_7) AppleWebKit/605.1.15 (KHTML, like Gecko) Version/17.3.1 Safari/605.1.15","Macintosh","Safari","17.3.1","OS X","10_15_7","https://app.prolific.com/","en-US,en;q=0.9","67549868a9ea0e2c285a8f14","679edb085803f58d6bbd31ca","679ee5f3fdc71b640a413ae5","","null","<img    src='G_3.jpg' height='90'> <img    src='G_4.jpg' height='90'> <img    src='G_7.jpg' height='90'> <img id='selected'    src='G_1.jpg' height='90'> <img id='selected' src='G_2.jpg' height='90'> <img src='G_5.jpg' height='90'> <img src='G_8.jpg' height='90'> <img src='G_6.jpg' height='90'>","null","Animation1",""
"","","","","","html-keyboard-response","90","480741","0.0-73.0","21","1","2025-02-02 03:27:04","bc01a2b6f61d06f6604adb8657495020","75.88.105.191","Mozilla/5.0 (Macintosh; Intel Mac OS X 10_15_7) AppleWebKit/605.1.15 (KHTML, like Gecko) Version/17.3.1 Safari/605.1.15","Macintosh","Safari","17.3.1","OS X","10_15_7","https://app.prolific.com/","en-US,en;q=0.9","67549868a9ea0e2c285a8f14","679edb085803f58d6bbd31ca","679ee5f3fdc71b640a413ae5","","null","<img    src='G_3.jpg' height='90'> <img    src='G_4.jpg' height='90'> <img    src='G_7.jpg' height='90'> <img id='swapped' src='G_2.jpg' height='90'> <img id='swapped'    src='G_1.jpg' height='90'> <img src='G_5.jpg' height='90'> <img src='G_8.jpg' height='90'> <img src='G_6.jpg' height='90'>","null","Animation1",""
"","","","","","html-keyboard-response","91","481053","0.0-74.0","21","1","2025-02-02 03:27:04","bc01a2b6f61d06f6604adb8657495020","75.88.105.191","Mozilla/5.0 (Macintosh; Intel Mac OS X 10_15_7) AppleWebKit/605.1.15 (KHTML, like Gecko) Version/17.3.1 Safari/605.1.15","Macintosh","Safari","17.3.1","OS X","10_15_7","https://app.prolific.com/","en-US,en;q=0.9","67549868a9ea0e2c285a8f14","679edb085803f58d6bbd31ca","679ee5f3fdc71b640a413ae5","","null","<img    src='G_3.jpg' height='90'> <img    src='G_4.jpg' height='90'> <img    src='G_7.jpg' height='90'> <img  src='G_2.jpg' height='90'> <img     src='G_1.jpg' height='90'> <img src='G_5.jpg' height='90'> <img src='G_8.jpg' height='90'> <img src='G_6.jpg' height='90'>","null","Animation1",""
"","","","","","html-keyboard-response","92","481560","0.0-75.0","21","1","2025-02-02 03:27:04","bc01a2b6f61d06f6604adb8657495020","75.88.105.191","Mozilla/5.0 (Macintosh; Intel Mac OS X 10_15_7) AppleWebKit/605.1.15 (KHTML, like Gecko) Version/17.3.1 Safari/605.1.15","Macintosh","Safari","17.3.1","OS X","10_15_7","https://app.prolific.com/","en-US,en;q=0.9","67549868a9ea0e2c285a8f14","679edb085803f58d6bbd31ca","679ee5f3fdc71b640a413ae5","","null","<img    src='G_3.jpg' height='90'> <img    src='G_4.jpg' height='90'> <img id='selected'    src='G_7.jpg' height='90'> <img  src='G_2.jpg' height='90'> <img     src='G_1.jpg' height='90'> <img src='G_5.jpg' height='90'> <img src='G_8.jpg' height='90'> <img src='G_6.jpg' height='90'>","null","Animation1",""
"","","","","","html-keyboard-response","93","482067","0.0-76.0","21","1","2025-02-02 03:27:04","bc01a2b6f61d06f6604adb8657495020","75.88.105.191","Mozilla/5.0 (Macintosh; Intel Mac OS X 10_15_7) AppleWebKit/605.1.15 (KHTML, like Gecko) Version/17.3.1 Safari/605.1.15","Macintosh","Safari","17.3.1","OS X","10_15_7","https://app.prolific.com/","en-US,en;q=0.9","67549868a9ea0e2c285a8f14","679edb085803f58d6bbd31ca","679ee5f3fdc71b640a413ae5","","null","<img    src='G_3.jpg' height='90'> <img    src='G_4.jpg' height='90'> <img id='selected'    src='G_7.jpg' height='90'> <img id='selected'  src='G_2.jpg' height='90'> <img     src='G_1.jpg' height='90'> <img src='G_5.jpg' height='90'> <img src='G_8.jpg' height='90'> <img src='G_6.jpg' height='90'>","null","Animation1",""
"","","","","","html-keyboard-response","94","482574","0.0-77.0","21","1","2025-02-02 03:27:04","bc01a2b6f61d06f6604adb8657495020","75.88.105.191","Mozilla/5.0 (Macintosh; Intel Mac OS X 10_15_7) AppleWebKit/605.1.15 (KHTML, like Gecko) Version/17.3.1 Safari/605.1.15","Macintosh","Safari","17.3.1","OS X","10_15_7","https://app.prolific.com/","en-US,en;q=0.9","67549868a9ea0e2c285a8f14","679edb085803f58d6bbd31ca","679ee5f3fdc71b640a413ae5","","null","<img    src='G_3.jpg' height='90'> <img    src='G_4.jpg' height='90'> <img id='swapped'  src='G_2.jpg' height='90'> <img id='swapped'    src='G_7.jpg' height='90'> <img     src='G_1.jpg' height='90'> <img src='G_5.jpg' height='90'> <img src='G_8.jpg' height='90'> <img src='G_6.jpg' height='90'>","null","Animation1",""
"","","","","","html-keyboard-response","95","482881","0.0-78.0","21","1","2025-02-02 03:27:04","bc01a2b6f61d06f6604adb8657495020","75.88.105.191","Mozilla/5.0 (Macintosh; Intel Mac OS X 10_15_7) AppleWebKit/605.1.15 (KHTML, like Gecko) Version/17.3.1 Safari/605.1.15","Macintosh","Safari","17.3.1","OS X","10_15_7","https://app.prolific.com/","en-US,en;q=0.9","67549868a9ea0e2c285a8f14","679edb085803f58d6bbd31ca","679ee5f3fdc71b640a413ae5","","null","<img    src='G_3.jpg' height='90'> <img    src='G_4.jpg' height='90'> <img   src='G_2.jpg' height='90'> <img     src='G_7.jpg' height='90'> <img     src='G_1.jpg' height='90'> <img src='G_5.jpg' height='90'> <img src='G_8.jpg' height='90'> <img src='G_6.jpg' height='90'>","null","Animation1",""
"","","","","","html-keyboard-response","96","483387","0.0-79.0","21","1","2025-02-02 03:27:04","bc01a2b6f61d06f6604adb8657495020","75.88.105.191","Mozilla/5.0 (Macintosh; Intel Mac OS X 10_15_7) AppleWebKit/605.1.15 (KHTML, like Gecko) Version/17.3.1 Safari/605.1.15","Macintosh","Safari","17.3.1","OS X","10_15_7","https://app.prolific.com/","en-US,en;q=0.9","67549868a9ea0e2c285a8f14","679edb085803f58d6bbd31ca","679ee5f3fdc71b640a413ae5","","null","<img    src='G_3.jpg' height='90'> <img id='selected'    src='G_4.jpg' height='90'> <img   src='G_2.jpg' height='90'> <img     src='G_7.jpg' height='90'> <img     src='G_1.jpg' height='90'> <img src='G_5.jpg' height='90'> <img src='G_8.jpg' height='90'> <img src='G_6.jpg' height='90'>","null","Animation1",""
"","","","","","html-keyboard-response","97","483895","0.0-80.0","21","1","2025-02-02 03:27:04","bc01a2b6f61d06f6604adb8657495020","75.88.105.191","Mozilla/5.0 (Macintosh; Intel Mac OS X 10_15_7) AppleWebKit/605.1.15 (KHTML, like Gecko) Version/17.3.1 Safari/605.1.15","Macintosh","Safari","17.3.1","OS X","10_15_7","https://app.prolific.com/","en-US,en;q=0.9","67549868a9ea0e2c285a8f14","679edb085803f58d6bbd31ca","679ee5f3fdc71b640a413ae5","","null","<img    src='G_3.jpg' height='90'> <img id='selected'    src='G_4.jpg' height='90'> <img id='selected'   src='G_2.jpg' height='90'> <img     src='G_7.jpg' height='90'> <img     src='G_1.jpg' height='90'> <img src='G_5.jpg' height='90'> <img src='G_8.jpg' height='90'> <img src='G_6.jpg' height='90'>","null","Animation1",""
"","","","","","html-keyboard-response","98","484401","0.0-81.0","21","1","2025-02-02 03:27:04","bc01a2b6f61d06f6604adb8657495020","75.88.105.191","Mozilla/5.0 (Macintosh; Intel Mac OS X 10_15_7) AppleWebKit/605.1.15 (KHTML, like Gecko) Version/17.3.1 Safari/605.1.15","Macintosh","Safari","17.3.1","OS X","10_15_7","https://app.prolific.com/","en-US,en;q=0.9","67549868a9ea0e2c285a8f14","679edb085803f58d6bbd31ca","679ee5f3fdc71b640a413ae5","","null","<img    src='G_3.jpg' height='90'> <img id='swapped'   src='G_2.jpg' height='90'> <img id='swapped'    src='G_4.jpg' height='90'> <img     src='G_7.jpg' height='90'> <img     src='G_1.jpg' height='90'> <img src='G_5.jpg' height='90'> <img src='G_8.jpg' height='90'> <img src='G_6.jpg' height='90'>","null","Animation1",""
"","","","","","html-keyboard-response","99","484708","0.0-82.0","21","1","2025-02-02 03:27:04","bc01a2b6f61d06f6604adb8657495020","75.88.105.191","Mozilla/5.0 (Macintosh; Intel Mac OS X 10_15_7) AppleWebKit/605.1.15 (KHTML, like Gecko) Version/17.3.1 Safari/605.1.15","Macintosh","Safari","17.3.1","OS X","10_15_7","https://app.prolific.com/","en-US,en;q=0.9","67549868a9ea0e2c285a8f14","679edb085803f58d6bbd31ca","679ee5f3fdc71b640a413ae5","","null","<img    src='G_3.jpg' height='90'> <img    src='G_2.jpg' height='90'> <img     src='G_4.jpg' height='90'> <img     src='G_7.jpg' height='90'> <img     src='G_1.jpg' height='90'> <img src='G_5.jpg' height='90'> <img src='G_8.jpg' height='90'> <img src='G_6.jpg' height='90'>","null","Animation1",""
"","","","","","html-keyboard-response","100","485215","0.0-83.0","21","1","2025-02-02 03:27:04","bc01a2b6f61d06f6604adb8657495020","75.88.105.191","Mozilla/5.0 (Macintosh; Intel Mac OS X 10_15_7) AppleWebKit/605.1.15 (KHTML, like Gecko) Version/17.3.1 Safari/605.1.15","Macintosh","Safari","17.3.1","OS X","10_15_7","https://app.prolific.com/","en-US,en;q=0.9","67549868a9ea0e2c285a8f14","679edb085803f58d6bbd31ca","679ee5f3fdc71b640a413ae5","","null","<img id='selected'    src='G_3.jpg' height='90'> <img    src='G_2.jpg' height='90'> <img     src='G_4.jpg' height='90'> <img     src='G_7.jpg' height='90'> <img     src='G_1.jpg' height='90'> <img src='G_5.jpg' height='90'> <img src='G_8.jpg' height='90'> <img src='G_6.jpg' height='90'>","null","Animation1",""
"","","","","","html-keyboard-response","101","485722","0.0-84.0","21","1","2025-02-02 03:27:04","bc01a2b6f61d06f6604adb8657495020","75.88.105.191","Mozilla/5.0 (Macintosh; Intel Mac OS X 10_15_7) AppleWebKit/605.1.15 (KHTML, like Gecko) Version/17.3.1 Safari/605.1.15","Macintosh","Safari","17.3.1","OS X","10_15_7","https://app.prolific.com/","en-US,en;q=0.9","67549868a9ea0e2c285a8f14","679edb085803f58d6bbd31ca","679ee5f3fdc71b640a413ae5","","null","<img id='selected'    src='G_3.jpg' height='90'> <img id='selected'    src='G_2.jpg' height='90'> <img     src='G_4.jpg' height='90'> <img     src='G_7.jpg' height='90'> <img     src='G_1.jpg' height='90'> <img src='G_5.jpg' height='90'> <img src='G_8.jpg' height='90'> <img src='G_6.jpg' height='90'>","null","Animation1",""
"","","","","","html-keyboard-response","102","486228","0.0-85.0","21","1","2025-02-02 03:27:04","bc01a2b6f61d06f6604adb8657495020","75.88.105.191","Mozilla/5.0 (Macintosh; Intel Mac OS X 10_15_7) AppleWebKit/605.1.15 (KHTML, like Gecko) Version/17.3.1 Safari/605.1.15","Macintosh","Safari","17.3.1","OS X","10_15_7","https://app.prolific.com/","en-US,en;q=0.9","67549868a9ea0e2c285a8f14","679edb085803f58d6bbd31ca","679ee5f3fdc71b640a413ae5","","null","<img id='selected'    src='G_3.jpg' height='90'> <img id='selected'    src='G_2.jpg' height='90'> <img     src='G_4.jpg' height='90'> <img     src='G_7.jpg' height='90'> <img     src='G_1.jpg' height='90'> <img src='G_5.jpg' height='90'> <img src='G_8.jpg' height='90'> <img src='G_6.jpg' height='90'>","null","Animation1",""
"","","","","","html-keyboard-response","103","486535","0.0-86.0","21","1","2025-02-02 03:27:04","bc01a2b6f61d06f6604adb8657495020","75.88.105.191","Mozilla/5.0 (Macintosh; Intel Mac OS X 10_15_7) AppleWebKit/605.1.15 (KHTML, like Gecko) Version/17.3.1 Safari/605.1.15","Macintosh","Safari","17.3.1","OS X","10_15_7","https://app.prolific.com/","en-US,en;q=0.9","67549868a9ea0e2c285a8f14","679edb085803f58d6bbd31ca","679ee5f3fdc71b640a413ae5","","null","<img     src='G_3.jpg' height='90'> <img     src='G_2.jpg' height='90'> <img     src='G_4.jpg' height='90'> <img     src='G_7.jpg' height='90'> <img     src='G_1.jpg' height='90'> <img src='G_5.jpg' height='90'> <img src='G_8.jpg' height='90'> <img src='G_6.jpg' height='90'>","null","Animation1",""
"","","","","","html-keyboard-response","104","487043","0.0-87.0","21","1","2025-02-02 03:27:04","bc01a2b6f61d06f6604adb8657495020","75.88.105.191","Mozilla/5.0 (Macintosh; Intel Mac OS X 10_15_7) AppleWebKit/605.1.15 (KHTML, like Gecko) Version/17.3.1 Safari/605.1.15","Macintosh","Safari","17.3.1","OS X","10_15_7","https://app.prolific.com/","en-US,en;q=0.9","67549868a9ea0e2c285a8f14","679edb085803f58d6bbd31ca","679ee5f3fdc71b640a413ae5","","null","<img     src='G_3.jpg' height='90'> <img     src='G_2.jpg' height='90'> <img     src='G_4.jpg' height='90'> <img     src='G_7.jpg' height='90'> <img id='selected'     src='G_1.jpg' height='90'> <img src='G_5.jpg' height='90'> <img src='G_8.jpg' height='90'> <img src='G_6.jpg' height='90'>","null","Animation1",""
"","","","","","html-keyboard-response","105","487551","0.0-88.0","21","1","2025-02-02 03:27:04","bc01a2b6f61d06f6604adb8657495020","75.88.105.191","Mozilla/5.0 (Macintosh; Intel Mac OS X 10_15_7) AppleWebKit/605.1.15 (KHTML, like Gecko) Version/17.3.1 Safari/605.1.15","Macintosh","Safari","17.3.1","OS X","10_15_7","https://app.prolific.com/","en-US,en;q=0.9","67549868a9ea0e2c285a8f14","679edb085803f58d6bbd31ca","679ee5f3fdc71b640a413ae5","","null","<img     src='G_3.jpg' height='90'> <img     src='G_2.jpg' height='90'> <img     src='G_4.jpg' height='90'> <img     src='G_7.jpg' height='90'> <img id='selected'     src='G_1.jpg' height='90'> <img id='selected' src='G_5.jpg' height='90'> <img src='G_8.jpg' height='90'> <img src='G_6.jpg' height='90'>","null","Animation1",""
"","","","","","html-keyboard-response","106","488058","0.0-89.0","21","1","2025-02-02 03:27:04","bc01a2b6f61d06f6604adb8657495020","75.88.105.191","Mozilla/5.0 (Macintosh; Intel Mac OS X 10_15_7) AppleWebKit/605.1.15 (KHTML, like Gecko) Version/17.3.1 Safari/605.1.15","Macintosh","Safari","17.3.1","OS X","10_15_7","https://app.prolific.com/","en-US,en;q=0.9","67549868a9ea0e2c285a8f14","679edb085803f58d6bbd31ca","679ee5f3fdc71b640a413ae5","","null","<img     src='G_3.jpg' height='90'> <img     src='G_2.jpg' height='90'> <img     src='G_4.jpg' height='90'> <img     src='G_7.jpg' height='90'> <img id='swapped' src='G_5.jpg' height='90'> <img id='swapped'     src='G_1.jpg' height='90'> <img src='G_8.jpg' height='90'> <img src='G_6.jpg' height='90'>","null","Animation1",""
"","","","","","html-keyboard-response","107","488365","0.0-90.0","21","1","2025-02-02 03:27:04","bc01a2b6f61d06f6604adb8657495020","75.88.105.191","Mozilla/5.0 (Macintosh; Intel Mac OS X 10_15_7) AppleWebKit/605.1.15 (KHTML, like Gecko) Version/17.3.1 Safari/605.1.15","Macintosh","Safari","17.3.1","OS X","10_15_7","https://app.prolific.com/","en-US,en;q=0.9","67549868a9ea0e2c285a8f14","679edb085803f58d6bbd31ca","679ee5f3fdc71b640a413ae5","","null","<img     src='G_3.jpg' height='90'> <img     src='G_2.jpg' height='90'> <img     src='G_4.jpg' height='90'> <img     src='G_7.jpg' height='90'> <img  src='G_5.jpg' height='90'> <img      src='G_1.jpg' height='90'> <img src='G_8.jpg' height='90'> <img src='G_6.jpg' height='90'>","null","Animation1",""
"","","","","","html-keyboard-response","108","488872","0.0-91.0","21","1","2025-02-02 03:27:04","bc01a2b6f61d06f6604adb8657495020","75.88.105.191","Mozilla/5.0 (Macintosh; Intel Mac OS X 10_15_7) AppleWebKit/605.1.15 (KHTML, like Gecko) Version/17.3.1 Safari/605.1.15","Macintosh","Safari","17.3.1","OS X","10_15_7","https://app.prolific.com/","en-US,en;q=0.9","67549868a9ea0e2c285a8f14","679edb085803f58d6bbd31ca","679ee5f3fdc71b640a413ae5","","null","<img     src='G_3.jpg' height='90'> <img     src='G_2.jpg' height='90'> <img     src='G_4.jpg' height='90'> <img id='selected'     src='G_7.jpg' height='90'> <img  src='G_5.jpg' height='90'> <img      src='G_1.jpg' height='90'> <img src='G_8.jpg' height='90'> <img src='G_6.jpg' height='90'>","null","Animation1",""
"","","","","","html-keyboard-response","109","489379","0.0-92.0","21","1","2025-02-02 03:27:04","bc01a2b6f61d06f6604adb8657495020","75.88.105.191","Mozilla/5.0 (Macintosh; Intel Mac OS X 10_15_7) AppleWebKit/605.1.15 (KHTML, like Gecko) Version/17.3.1 Safari/605.1.15","Macintosh","Safari","17.3.1","OS X","10_15_7","https://app.prolific.com/","en-US,en;q=0.9","67549868a9ea0e2c285a8f14","679edb085803f58d6bbd31ca","679ee5f3fdc71b640a413ae5","","null","<img     src='G_3.jpg' height='90'> <img     src='G_2.jpg' height='90'> <img     src='G_4.jpg' height='90'> <img id='selected'     src='G_7.jpg' height='90'> <img id='selected'  src='G_5.jpg' height='90'> <img      src='G_1.jpg' height='90'> <img src='G_8.jpg' height='90'> <img src='G_6.jpg' height='90'>","null","Animation1",""
"","","","","","html-keyboard-response","110","489886","0.0-93.0","21","1","2025-02-02 03:27:04","bc01a2b6f61d06f6604adb8657495020","75.88.105.191","Mozilla/5.0 (Macintosh; Intel Mac OS X 10_15_7) AppleWebKit/605.1.15 (KHTML, like Gecko) Version/17.3.1 Safari/605.1.15","Macintosh","Safari","17.3.1","OS X","10_15_7","https://app.prolific.com/","en-US,en;q=0.9","67549868a9ea0e2c285a8f14","679edb085803f58d6bbd31ca","679ee5f3fdc71b640a413ae5","","null","<img     src='G_3.jpg' height='90'> <img     src='G_2.jpg' height='90'> <img     src='G_4.jpg' height='90'> <img id='selected'     src='G_7.jpg' height='90'> <img id='selected'  src='G_5.jpg' height='90'> <img      src='G_1.jpg' height='90'> <img src='G_8.jpg' height='90'> <img src='G_6.jpg' height='90'>","null","Animation1",""
"","","","","","html-keyboard-response","111","490194","0.0-94.0","21","1","2025-02-02 03:27:04","bc01a2b6f61d06f6604adb8657495020","75.88.105.191","Mozilla/5.0 (Macintosh; Intel Mac OS X 10_15_7) AppleWebKit/605.1.15 (KHTML, like Gecko) Version/17.3.1 Safari/605.1.15","Macintosh","Safari","17.3.1","OS X","10_15_7","https://app.prolific.com/","en-US,en;q=0.9","67549868a9ea0e2c285a8f14","679edb085803f58d6bbd31ca","679ee5f3fdc71b640a413ae5","","null","<img     src='G_3.jpg' height='90'> <img     src='G_2.jpg' height='90'> <img     src='G_4.jpg' height='90'> <img      src='G_7.jpg' height='90'> <img   src='G_5.jpg' height='90'> <img      src='G_1.jpg' height='90'> <img src='G_8.jpg' height='90'> <img src='G_6.jpg' height='90'>","null","Animation1",""
"","","","","","html-keyboard-response","112","490701","0.0-95.0","21","1","2025-02-02 03:27:04","bc01a2b6f61d06f6604adb8657495020","75.88.105.191","Mozilla/5.0 (Macintosh; Intel Mac OS X 10_15_7) AppleWebKit/605.1.15 (KHTML, like Gecko) Version/17.3.1 Safari/605.1.15","Macintosh","Safari","17.3.1","OS X","10_15_7","https://app.prolific.com/","en-US,en;q=0.9","67549868a9ea0e2c285a8f14","679edb085803f58d6bbd31ca","679ee5f3fdc71b640a413ae5","","null","<img     src='G_3.jpg' height='90'> <img     src='G_2.jpg' height='90'> <img     src='G_4.jpg' height='90'> <img      src='G_7.jpg' height='90'> <img   src='G_5.jpg' height='90'> <img id='selected'      src='G_1.jpg' height='90'> <img src='G_8.jpg' height='90'> <img src='G_6.jpg' height='90'>","null","Animation1",""
"","","","","","html-keyboard-response","113","491208","0.0-96.0","21","1","2025-02-02 03:27:04","bc01a2b6f61d06f6604adb8657495020","75.88.105.191","Mozilla/5.0 (Macintosh; Intel Mac OS X 10_15_7) AppleWebKit/605.1.15 (KHTML, like Gecko) Version/17.3.1 Safari/605.1.15","Macintosh","Safari","17.3.1","OS X","10_15_7","https://app.prolific.com/","en-US,en;q=0.9","67549868a9ea0e2c285a8f14","679edb085803f58d6bbd31ca","679ee5f3fdc71b640a413ae5","","null","<img     src='G_3.jpg' height='90'> <img     src='G_2.jpg' height='90'> <img     src='G_4.jpg' height='90'> <img      src='G_7.jpg' height='90'> <img   src='G_5.jpg' height='90'> <img id='selected'      src='G_1.jpg' height='90'> <img id='selected' src='G_8.jpg' height='90'> <img src='G_6.jpg' height='90'>","null","Animation1",""
"","","","","","html-keyboard-response","114","491715","0.0-97.0","21","1","2025-02-02 03:27:04","bc01a2b6f61d06f6604adb8657495020","75.88.105.191","Mozilla/5.0 (Macintosh; Intel Mac OS X 10_15_7) AppleWebKit/605.1.15 (KHTML, like Gecko) Version/17.3.1 Safari/605.1.15","Macintosh","Safari","17.3.1","OS X","10_15_7","https://app.prolific.com/","en-US,en;q=0.9","67549868a9ea0e2c285a8f14","679edb085803f58d6bbd31ca","679ee5f3fdc71b640a413ae5","","null","<img     src='G_3.jpg' height='90'> <img     src='G_2.jpg' height='90'> <img     src='G_4.jpg' height='90'> <img      src='G_7.jpg' height='90'> <img   src='G_5.jpg' height='90'> <img id='selected'      src='G_1.jpg' height='90'> <img id='selected' src='G_8.jpg' height='90'> <img src='G_6.jpg' height='90'>","null","Animation1",""
"","","","","","html-keyboard-response","115","492023","0.0-98.0","21","1","2025-02-02 03:27:04","bc01a2b6f61d06f6604adb8657495020","75.88.105.191","Mozilla/5.0 (Macintosh; Intel Mac OS X 10_15_7) AppleWebKit/605.1.15 (KHTML, like Gecko) Version/17.3.1 Safari/605.1.15","Macintosh","Safari","17.3.1","OS X","10_15_7","https://app.prolific.com/","en-US,en;q=0.9","67549868a9ea0e2c285a8f14","679edb085803f58d6bbd31ca","679ee5f3fdc71b640a413ae5","","null","<img     src='G_3.jpg' height='90'> <img     src='G_2.jpg' height='90'> <img     src='G_4.jpg' height='90'> <img      src='G_7.jpg' height='90'> <img   src='G_5.jpg' height='90'> <img       src='G_1.jpg' height='90'> <img  src='G_8.jpg' height='90'> <img src='G_6.jpg' height='90'>","null","Animation1",""
"","","","","","html-keyboard-response","116","492530","0.0-99.0","21","1","2025-02-02 03:27:04","bc01a2b6f61d06f6604adb8657495020","75.88.105.191","Mozilla/5.0 (Macintosh; Intel Mac OS X 10_15_7) AppleWebKit/605.1.15 (KHTML, like Gecko) Version/17.3.1 Safari/605.1.15","Macintosh","Safari","17.3.1","OS X","10_15_7","https://app.prolific.com/","en-US,en;q=0.9","67549868a9ea0e2c285a8f14","679edb085803f58d6bbd31ca","679ee5f3fdc71b640a413ae5","","null","<img     src='G_3.jpg' height='90'> <img     src='G_2.jpg' height='90'> <img     src='G_4.jpg' height='90'> <img      src='G_7.jpg' height='90'> <img   src='G_5.jpg' height='90'> <img       src='G_1.jpg' height='90'> <img id='selected'  src='G_8.jpg' height='90'> <img src='G_6.jpg' height='90'>","null","Animation1",""
"","","","","","html-keyboard-response","117","493037","0.0-100.0","21","1","2025-02-02 03:27:04","bc01a2b6f61d06f6604adb8657495020","75.88.105.191","Mozilla/5.0 (Macintosh; Intel Mac OS X 10_15_7) AppleWebKit/605.1.15 (KHTML, like Gecko) Version/17.3.1 Safari/605.1.15","Macintosh","Safari","17.3.1","OS X","10_15_7","https://app.prolific.com/","en-US,en;q=0.9","67549868a9ea0e2c285a8f14","679edb085803f58d6bbd31ca","679ee5f3fdc71b640a413ae5","","null","<img     src='G_3.jpg' height='90'> <img     src='G_2.jpg' height='90'> <img     src='G_4.jpg' height='90'> <img      src='G_7.jpg' height='90'> <img   src='G_5.jpg' height='90'> <img       src='G_1.jpg' height='90'> <img id='selected'  src='G_8.jpg' height='90'> <img id='selected' src='G_6.jpg' height='90'>","null","Animation1",""
"","","","","","html-keyboard-response","118","493545","0.0-101.0","21","1","2025-02-02 03:27:04","bc01a2b6f61d06f6604adb8657495020","75.88.105.191","Mozilla/5.0 (Macintosh; Intel Mac OS X 10_15_7) AppleWebKit/605.1.15 (KHTML, like Gecko) Version/17.3.1 Safari/605.1.15","Macintosh","Safari","17.3.1","OS X","10_15_7","https://app.prolific.com/","en-US,en;q=0.9","67549868a9ea0e2c285a8f14","679edb085803f58d6bbd31ca","679ee5f3fdc71b640a413ae5","","null","<img     src='G_3.jpg' height='90'> <img     src='G_2.jpg' height='90'> <img     src='G_4.jpg' height='90'> <img      src='G_7.jpg' height='90'> <img   src='G_5.jpg' height='90'> <img       src='G_1.jpg' height='90'> <img id='swapped' src='G_6.jpg' height='90'> <img id='swapped'  src='G_8.jpg' height='90'>","null","Animation1",""
"","","","","","html-keyboard-response","119","493853","0.0-102.0","21","1","2025-02-02 03:27:04","bc01a2b6f61d06f6604adb8657495020","75.88.105.191","Mozilla/5.0 (Macintosh; Intel Mac OS X 10_15_7) AppleWebKit/605.1.15 (KHTML, like Gecko) Version/17.3.1 Safari/605.1.15","Macintosh","Safari","17.3.1","OS X","10_15_7","https://app.prolific.com/","en-US,en;q=0.9","67549868a9ea0e2c285a8f14","679edb085803f58d6bbd31ca","679ee5f3fdc71b640a413ae5","","null","<img     src='G_3.jpg' height='90'> <img     src='G_2.jpg' height='90'> <img     src='G_4.jpg' height='90'> <img      src='G_7.jpg' height='90'> <img   src='G_5.jpg' height='90'> <img       src='G_1.jpg' height='90'> <img  src='G_6.jpg' height='90'> <img   src='G_8.jpg' height='90'>","null","Animation1",""
"","","","","","html-keyboard-response","120","494361","0.0-103.0","21","1","2025-02-02 03:27:04","bc01a2b6f61d06f6604adb8657495020","75.88.105.191","Mozilla/5.0 (Macintosh; Intel Mac OS X 10_15_7) AppleWebKit/605.1.15 (KHTML, like Gecko) Version/17.3.1 Safari/605.1.15","Macintosh","Safari","17.3.1","OS X","10_15_7","https://app.prolific.com/","en-US,en;q=0.9","67549868a9ea0e2c285a8f14","679edb085803f58d6bbd31ca","679ee5f3fdc71b640a413ae5","","null","<img     src='G_3.jpg' height='90'> <img     src='G_2.jpg' height='90'> <img     src='G_4.jpg' height='90'> <img      src='G_7.jpg' height='90'> <img   src='G_5.jpg' height='90'> <img id='selected'       src='G_1.jpg' height='90'> <img  src='G_6.jpg' height='90'> <img   src='G_8.jpg' height='90'>","null","Animation1",""
"","","","","","html-keyboard-response","121","494867","0.0-104.0","21","1","2025-02-02 03:27:04","bc01a2b6f61d06f6604adb8657495020","75.88.105.191","Mozilla/5.0 (Macintosh; Intel Mac OS X 10_15_7) AppleWebKit/605.1.15 (KHTML, like Gecko) Version/17.3.1 Safari/605.1.15","Macintosh","Safari","17.3.1","OS X","10_15_7","https://app.prolific.com/","en-US,en;q=0.9","67549868a9ea0e2c285a8f14","679edb085803f58d6bbd31ca","679ee5f3fdc71b640a413ae5","","null","<img     src='G_3.jpg' height='90'> <img     src='G_2.jpg' height='90'> <img     src='G_4.jpg' height='90'> <img      src='G_7.jpg' height='90'> <img   src='G_5.jpg' height='90'> <img id='selected'       src='G_1.jpg' height='90'> <img id='selected'  src='G_6.jpg' height='90'> <img   src='G_8.jpg' height='90'>","null","Animation1",""
"","","","","","html-keyboard-response","122","495374","0.0-105.0","21","1","2025-02-02 03:27:04","bc01a2b6f61d06f6604adb8657495020","75.88.105.191","Mozilla/5.0 (Macintosh; Intel Mac OS X 10_15_7) AppleWebKit/605.1.15 (KHTML, like Gecko) Version/17.3.1 Safari/605.1.15","Macintosh","Safari","17.3.1","OS X","10_15_7","https://app.prolific.com/","en-US,en;q=0.9","67549868a9ea0e2c285a8f14","679edb085803f58d6bbd31ca","679ee5f3fdc71b640a413ae5","","null","<img     src='G_3.jpg' height='90'> <img     src='G_2.jpg' height='90'> <img     src='G_4.jpg' height='90'> <img      src='G_7.jpg' height='90'> <img   src='G_5.jpg' height='90'> <img id='selected'       src='G_1.jpg' height='90'> <img id='selected'  src='G_6.jpg' height='90'> <img   src='G_8.jpg' height='90'>","null","Animation1",""
"","","","","","html-keyboard-response","123","495680","0.0-106.0","21","1","2025-02-02 03:27:04","bc01a2b6f61d06f6604adb8657495020","75.88.105.191","Mozilla/5.0 (Macintosh; Intel Mac OS X 10_15_7) AppleWebKit/605.1.15 (KHTML, like Gecko) Version/17.3.1 Safari/605.1.15","Macintosh","Safari","17.3.1","OS X","10_15_7","https://app.prolific.com/","en-US,en;q=0.9","67549868a9ea0e2c285a8f14","679edb085803f58d6bbd31ca","679ee5f3fdc71b640a413ae5","","null","<img     src='G_3.jpg' height='90'> <img     src='G_2.jpg' height='90'> <img     src='G_4.jpg' height='90'> <img      src='G_7.jpg' height='90'> <img   src='G_5.jpg' height='90'> <img        src='G_1.jpg' height='90'> <img   src='G_6.jpg' height='90'> <img   src='G_8.jpg' height='90'>","null","Animation1",""
"","","","","","html-keyboard-response","124","501538","0.0-107.0","21","1","2025-02-02 03:27:04","bc01a2b6f61d06f6604adb8657495020","75.88.105.191","Mozilla/5.0 (Macintosh; Intel Mac OS X 10_15_7) AppleWebKit/605.1.15 (KHTML, like Gecko) Version/17.3.1 Safari/605.1.15","Macintosh","Safari","17.3.1","OS X","10_15_7","https://app.prolific.com/","en-US,en;q=0.9","67549868a9ea0e2c285a8f14","679edb085803f58d6bbd31ca","679ee5f3fdc71b640a413ae5","","5851","[""Did you notice any patterns? <br><br>Press Enter to watch that example again and follow the steps of Omgne Sort.""]","enter","",""
"","","","","","html-button-response","125","501945","0.0-108.0","21","1","2025-02-02 03:27:04","bc01a2b6f61d06f6604adb8657495020","75.88.105.191","Mozilla/5.0 (Macintosh; Intel Mac OS X 10_15_7) AppleWebKit/605.1.15 (KHTML, like Gecko) Version/17.3.1 Safari/605.1.15","Macintosh","Safari","17.3.1","OS X","10_15_7","https://app.prolific.com/","en-US,en;q=0.9","67549868a9ea0e2c285a8f14","679edb085803f58d6bbd31ca","679ee5f3fdc71b640a413ae5","","null","<img id='selected' src='G_7.jpg' height='90'> <img src='G_1.jpg' height='90'> <img src='G_4.jpg' height='90'> <img src='G_3.jpg' height='90'> <img src='G_2.jpg' height='90'> <img src='G_5.jpg' height='90'> <img src='G_8.jpg' height='90'> <img src='G_6.jpg' height='90'>","null","Learning example 1",""
"","","","","","html-button-response","126","502251","0.0-109.0","21","1","2025-02-02 03:27:04","bc01a2b6f61d06f6604adb8657495020","75.88.105.191","Mozilla/5.0 (Macintosh; Intel Mac OS X 10_15_7) AppleWebKit/605.1.15 (KHTML, like Gecko) Version/17.3.1 Safari/605.1.15","Macintosh","Safari","17.3.1","OS X","10_15_7","https://app.prolific.com/","en-US,en;q=0.9","67549868a9ea0e2c285a8f14","679edb085803f58d6bbd31ca","679ee5f3fdc71b640a413ae5","","null","<img id='selected' src='G_7.jpg' height='90'> <img id='selected' src='G_1.jpg' height='90'> <img src='G_4.jpg' height='90'> <img src='G_3.jpg' height='90'> <img src='G_2.jpg' height='90'> <img src='G_5.jpg' height='90'> <img src='G_8.jpg' height='90'> <img src='G_6.jpg' height='90'>","null","Learning example 1",""
"","","","","","html-button-response","127","502560","0.0-110.0","21","1","2025-02-02 03:27:04","bc01a2b6f61d06f6604adb8657495020","75.88.105.191","Mozilla/5.0 (Macintosh; Intel Mac OS X 10_15_7) AppleWebKit/605.1.15 (KHTML, like Gecko) Version/17.3.1 Safari/605.1.15","Macintosh","Safari","17.3.1","OS X","10_15_7","https://app.prolific.com/","en-US,en;q=0.9","67549868a9ea0e2c285a8f14","679edb085803f58d6bbd31ca","679ee5f3fdc71b640a413ae5","","null","<img id='selected' src='G_7.jpg' height='90'> <img id='selected' src='G_1.jpg' height='90'> <img src='G_4.jpg' height='90'> <img src='G_3.jpg' height='90'> <img src='G_2.jpg' height='90'> <img src='G_5.jpg' height='90'> <img src='G_8.jpg' height='90'> <img src='G_6.jpg' height='90'>","null","Learning example 1",""
"","","","","","html-button-response","128","505336","0.0-111.0-0.0-0.0","21","1","2025-02-02 03:27:04","bc01a2b6f61d06f6604adb8657495020","75.88.105.191","Mozilla/5.0 (Macintosh; Intel Mac OS X 10_15_7) AppleWebKit/605.1.15 (KHTML, like Gecko) Version/17.3.1 Safari/605.1.15","Macintosh","Safari","17.3.1","OS X","10_15_7","https://app.prolific.com/","en-US,en;q=0.9","67549868a9ea0e2c285a8f14","679edb085803f58d6bbd31ca","679ee5f3fdc71b640a413ae5","","2770","<img id='selected' src='G_7.jpg' height='90'> <img id='selected' src='G_1.jpg' height='90'> <img src='G_4.jpg' height='90'> <img src='G_3.jpg' height='90'> <img src='G_2.jpg' height='90'> <img src='G_5.jpg' height='90'> <img src='G_8.jpg' height='90'> <img src='G_6.jpg' height='90'>","0","Learning example 1",""
"","","","","","html-button-response","129","506269","0.0-111.1-0.1-0.1","21","1","2025-02-02 03:27:04","bc01a2b6f61d06f6604adb8657495020","75.88.105.191","Mozilla/5.0 (Macintosh; Intel Mac OS X 10_15_7) AppleWebKit/605.1.15 (KHTML, like Gecko) Version/17.3.1 Safari/605.1.15","Macintosh","Safari","17.3.1","OS X","10_15_7","https://app.prolific.com/","en-US,en;q=0.9","67549868a9ea0e2c285a8f14","679edb085803f58d6bbd31ca","679ee5f3fdc71b640a413ae5","","928","<img id='selected' src='G_7.jpg' height='90'> <img id='selected' src='G_1.jpg' height='90'> <img src='G_4.jpg' height='90'> <img src='G_3.jpg' height='90'> <img src='G_2.jpg' height='90'> <img src='G_5.jpg' height='90'> <img src='G_8.jpg' height='90'> <img src='G_6.jpg' height='90'>","1","Learning example 1",""
"","","","","","html-button-response","130","506473","0.0-112.0","21","1","2025-02-02 03:27:04","bc01a2b6f61d06f6604adb8657495020","75.88.105.191","Mozilla/5.0 (Macintosh; Intel Mac OS X 10_15_7) AppleWebKit/605.1.15 (KHTML, like Gecko) Version/17.3.1 Safari/605.1.15","Macintosh","Safari","17.3.1","OS X","10_15_7","https://app.prolific.com/","en-US,en;q=0.9","67549868a9ea0e2c285a8f14","679edb085803f58d6bbd31ca","679ee5f3fdc71b640a413ae5","","null","<img  src='G_7.jpg' height='90'> <img  src='G_1.jpg' height='90'> <img src='G_4.jpg' height='90'> <img src='G_3.jpg' height='90'> <img src='G_2.jpg' height='90'> <img src='G_5.jpg' height='90'> <img src='G_8.jpg' height='90'> <img src='G_6.jpg' height='90'>","null","Learning example 1",""
"","","","","","html-button-response","131","506879","0.0-113.0","21","1","2025-02-02 03:27:04","bc01a2b6f61d06f6604adb8657495020","75.88.105.191","Mozilla/5.0 (Macintosh; Intel Mac OS X 10_15_7) AppleWebKit/605.1.15 (KHTML, like Gecko) Version/17.3.1 Safari/605.1.15","Macintosh","Safari","17.3.1","OS X","10_15_7","https://app.prolific.com/","en-US,en;q=0.9","67549868a9ea0e2c285a8f14","679edb085803f58d6bbd31ca","679ee5f3fdc71b640a413ae5","","null","<img  src='G_7.jpg' height='90'> <img id='selected'  src='G_1.jpg' height='90'> <img src='G_4.jpg' height='90'> <img src='G_3.jpg' height='90'> <img src='G_2.jpg' height='90'> <img src='G_5.jpg' height='90'> <img src='G_8.jpg' height='90'> <img src='G_6.jpg' height='90'>","null","Learning example 1",""
"","","","","","html-button-response","132","507189","0.0-114.0","21","1","2025-02-02 03:27:04","bc01a2b6f61d06f6604adb8657495020","75.88.105.191","Mozilla/5.0 (Macintosh; Intel Mac OS X 10_15_7) AppleWebKit/605.1.15 (KHTML, like Gecko) Version/17.3.1 Safari/605.1.15","Macintosh","Safari","17.3.1","OS X","10_15_7","https://app.prolific.com/","en-US,en;q=0.9","67549868a9ea0e2c285a8f14","679edb085803f58d6bbd31ca","679ee5f3fdc71b640a413ae5","","null","<img  src='G_7.jpg' height='90'> <img id='selected'  src='G_1.jpg' height='90'> <img id='selected' src='G_4.jpg' height='90'> <img src='G_3.jpg' height='90'> <img src='G_2.jpg' height='90'> <img src='G_5.jpg' height='90'> <img src='G_8.jpg' height='90'> <img src='G_6.jpg' height='90'>","null","Learning example 1",""
"","","","","","html-button-response","133","507498","0.0-115.0","21","1","2025-02-02 03:27:04","bc01a2b6f61d06f6604adb8657495020","75.88.105.191","Mozilla/5.0 (Macintosh; Intel Mac OS X 10_15_7) AppleWebKit/605.1.15 (KHTML, like Gecko) Version/17.3.1 Safari/605.1.15","Macintosh","Safari","17.3.1","OS X","10_15_7","https://app.prolific.com/","en-US,en;q=0.9","67549868a9ea0e2c285a8f14","679edb085803f58d6bbd31ca","679ee5f3fdc71b640a413ae5","","null","<img  src='G_7.jpg' height='90'> <img id='swapped' src='G_4.jpg' height='90'> <img id='swapped'  src='G_1.jpg' height='90'> <img src='G_3.jpg' height='90'> <img src='G_2.jpg' height='90'> <img src='G_5.jpg' height='90'> <img src='G_8.jpg' height='90'> <img src='G_6.jpg' height='90'>","null","Learning example 1",""
"","","","","","html-button-response","134","508936","0.0-116.0-0.0-0.0","21","1","2025-02-02 03:27:04","bc01a2b6f61d06f6604adb8657495020","75.88.105.191","Mozilla/5.0 (Macintosh; Intel Mac OS X 10_15_7) AppleWebKit/605.1.15 (KHTML, like Gecko) Version/17.3.1 Safari/605.1.15","Macintosh","Safari","17.3.1","OS X","10_15_7","https://app.prolific.com/","en-US,en;q=0.9","67549868a9ea0e2c285a8f14","679edb085803f58d6bbd31ca","679ee5f3fdc71b640a413ae5","","1430","<img  src='G_7.jpg' height='90'> <img id='swapped' src='G_4.jpg' height='90'> <img id='swapped'  src='G_1.jpg' height='90'> <img src='G_3.jpg' height='90'> <img src='G_2.jpg' height='90'> <img src='G_5.jpg' height='90'> <img src='G_8.jpg' height='90'> <img src='G_6.jpg' height='90'>","1","Learning example 1",""
"","","","","","html-button-response","135","510451","0.0-116.1-0.1-0.1","21","1","2025-02-02 03:27:04","bc01a2b6f61d06f6604adb8657495020","75.88.105.191","Mozilla/5.0 (Macintosh; Intel Mac OS X 10_15_7) AppleWebKit/605.1.15 (KHTML, like Gecko) Version/17.3.1 Safari/605.1.15","Macintosh","Safari","17.3.1","OS X","10_15_7","https://app.prolific.com/","en-US,en;q=0.9","67549868a9ea0e2c285a8f14","679edb085803f58d6bbd31ca","679ee5f3fdc71b640a413ae5","","1510","<img  src='G_7.jpg' height='90'> <img id='swapped' src='G_4.jpg' height='90'> <img id='swapped'  src='G_1.jpg' height='90'> <img src='G_3.jpg' height='90'> <img src='G_2.jpg' height='90'> <img src='G_5.jpg' height='90'> <img src='G_8.jpg' height='90'> <img src='G_6.jpg' height='90'>","2","Learning example 1",""
"","","","","","html-button-response","136","510656","0.0-117.0","21","1","2025-02-02 03:27:04","bc01a2b6f61d06f6604adb8657495020","75.88.105.191","Mozilla/5.0 (Macintosh; Intel Mac OS X 10_15_7) AppleWebKit/605.1.15 (KHTML, like Gecko) Version/17.3.1 Safari/605.1.15","Macintosh","Safari","17.3.1","OS X","10_15_7","https://app.prolific.com/","en-US,en;q=0.9","67549868a9ea0e2c285a8f14","679edb085803f58d6bbd31ca","679ee5f3fdc71b640a413ae5","","null","<img  src='G_7.jpg' height='90'> <img  src='G_4.jpg' height='90'> <img   src='G_1.jpg' height='90'> <img src='G_3.jpg' height='90'> <img src='G_2.jpg' height='90'> <img src='G_5.jpg' height='90'> <img src='G_8.jpg' height='90'> <img src='G_6.jpg' height='90'>","null","Learning example 1",""
"","","","","","html-button-response","137","511061","0.0-118.0","21","1","2025-02-02 03:27:04","bc01a2b6f61d06f6604adb8657495020","75.88.105.191","Mozilla/5.0 (Macintosh; Intel Mac OS X 10_15_7) AppleWebKit/605.1.15 (KHTML, like Gecko) Version/17.3.1 Safari/605.1.15","Macintosh","Safari","17.3.1","OS X","10_15_7","https://app.prolific.com/","en-US,en;q=0.9","67549868a9ea0e2c285a8f14","679edb085803f58d6bbd31ca","679ee5f3fdc71b640a413ae5","","null","<img id='selected'  src='G_7.jpg' height='90'> <img  src='G_4.jpg' height='90'> <img   src='G_1.jpg' height='90'> <img src='G_3.jpg' height='90'> <img src='G_2.jpg' height='90'> <img src='G_5.jpg' height='90'> <img src='G_8.jpg' height='90'> <img src='G_6.jpg' height='90'>","null","Learning example 1",""
"","","","","","html-button-response","138","511372","0.0-119.0","21","1","2025-02-02 03:27:04","bc01a2b6f61d06f6604adb8657495020","75.88.105.191","Mozilla/5.0 (Macintosh; Intel Mac OS X 10_15_7) AppleWebKit/605.1.15 (KHTML, like Gecko) Version/17.3.1 Safari/605.1.15","Macintosh","Safari","17.3.1","OS X","10_15_7","https://app.prolific.com/","en-US,en;q=0.9","67549868a9ea0e2c285a8f14","679edb085803f58d6bbd31ca","679ee5f3fdc71b640a413ae5","","null","<img id='selected'  src='G_7.jpg' height='90'> <img id='selected'  src='G_4.jpg' height='90'> <img   src='G_1.jpg' height='90'> <img src='G_3.jpg' height='90'> <img src='G_2.jpg' height='90'> <img src='G_5.jpg' height='90'> <img src='G_8.jpg' height='90'> <img src='G_6.jpg' height='90'>","null","Learning example 1",""
"","","","","","html-button-response","139","511680","0.0-120.0","21","1","2025-02-02 03:27:04","bc01a2b6f61d06f6604adb8657495020","75.88.105.191","Mozilla/5.0 (Macintosh; Intel Mac OS X 10_15_7) AppleWebKit/605.1.15 (KHTML, like Gecko) Version/17.3.1 Safari/605.1.15","Macintosh","Safari","17.3.1","OS X","10_15_7","https://app.prolific.com/","en-US,en;q=0.9","67549868a9ea0e2c285a8f14","679edb085803f58d6bbd31ca","679ee5f3fdc71b640a413ae5","","null","<img id='swapped'  src='G_4.jpg' height='90'> <img id='swapped'  src='G_7.jpg' height='90'> <img   src='G_1.jpg' height='90'> <img src='G_3.jpg' height='90'> <img src='G_2.jpg' height='90'> <img src='G_5.jpg' height='90'> <img src='G_8.jpg' height='90'> <img src='G_6.jpg' height='90'>","null","Learning example 1",""
"","","","","","html-button-response","140","512985","0.0-121.0-0.0-0.0","21","1","2025-02-02 03:27:04","bc01a2b6f61d06f6604adb8657495020","75.88.105.191","Mozilla/5.0 (Macintosh; Intel Mac OS X 10_15_7) AppleWebKit/605.1.15 (KHTML, like Gecko) Version/17.3.1 Safari/605.1.15","Macintosh","Safari","17.3.1","OS X","10_15_7","https://app.prolific.com/","en-US,en;q=0.9","67549868a9ea0e2c285a8f14","679edb085803f58d6bbd31ca","679ee5f3fdc71b640a413ae5","","1300","<img id='swapped'  src='G_4.jpg' height='90'> <img id='swapped'  src='G_7.jpg' height='90'> <img   src='G_1.jpg' height='90'> <img src='G_3.jpg' height='90'> <img src='G_2.jpg' height='90'> <img src='G_5.jpg' height='90'> <img src='G_8.jpg' height='90'> <img src='G_6.jpg' height='90'>","0","Learning example 1",""
"","","","","","html-button-response","141","513984","0.0-121.1-0.1-0.1","21","1","2025-02-02 03:27:04","bc01a2b6f61d06f6604adb8657495020","75.88.105.191","Mozilla/5.0 (Macintosh; Intel Mac OS X 10_15_7) AppleWebKit/605.1.15 (KHTML, like Gecko) Version/17.3.1 Safari/605.1.15","Macintosh","Safari","17.3.1","OS X","10_15_7","https://app.prolific.com/","en-US,en;q=0.9","67549868a9ea0e2c285a8f14","679edb085803f58d6bbd31ca","679ee5f3fdc71b640a413ae5","","994","<img id='swapped'  src='G_4.jpg' height='90'> <img id='swapped'  src='G_7.jpg' height='90'> <img   src='G_1.jpg' height='90'> <img src='G_3.jpg' height='90'> <img src='G_2.jpg' height='90'> <img src='G_5.jpg' height='90'> <img src='G_8.jpg' height='90'> <img src='G_6.jpg' height='90'>","1","Learning example 1",""
