"success","timeout","failed_images","failed_audio","failed_video","trial_type","trial_index","time_elapsed","internal_node_id","run_id","condition","recorded_at","source_code_version","ip","user_agent","device","browser","browser_version","platform","platform_version","referer","accept_language","PROLIFIC_PID","STUDY_ID","SESSION_ID","view_history","rt","stimulus","response","phase","question_order","presented_choices"
"true","false","[]","[]","[]","preload","0","309","0.0-0.0","22","1","2025-02-02 03:28:15","bc01a2b6f61d06f6604adb8657495020","99.173.54.245","Mozilla/5.0 (X11; CrOS x86_64 14541.0.0) AppleWebKit/537.36 (KHTML, like Gecko) Chrome/129.0.0.0 Safari/537.36","WebKit","Chrome","129.0.0.0","ChromeOS","14541.0.0","https://app.prolific.com/","en-US,en;q=0.9","677a8053e35cb9c094676a79","679edb085803f58d6bbd31ca","679ee644f90c6b60a3a4cd3a","","","","","","",""
"","","","","","instructions","1","19247","0.0-1.0","22","1","2025-02-02 03:28:15","bc01a2b6f61d06f6604adb8657495020","99.173.54.245","Mozilla/5.0 (X11; CrOS x86_64 14541.0.0) AppleWebKit/537.36 (KHTML, like Gecko) Chrome/129.0.0.0 Safari/537.36","WebKit","Chrome","129.0.0.0","ChromeOS","14541.0.0","https://app.prolific.com/","en-US,en;q=0.9","677a8053e35cb9c094676a79","679edb085803f58d6bbd31ca","679ee644f90c6b60a3a4cd3a","[{""page_index"":0,""viewing_time"":18932}]","18933","","","","",""
"","","","","","html-keyboard-response","2","19754","0.0-2.0","22","1","2025-02-02 03:28:15","bc01a2b6f61d06f6604adb8657495020","99.173.54.245","Mozilla/5.0 (X11; CrOS x86_64 14541.0.0) AppleWebKit/537.36 (KHTML, like Gecko) Chrome/129.0.0.0 Safari/537.36","WebKit","Chrome","129.0.0.0","ChromeOS","14541.0.0","https://app.prolific.com/","en-US,en;q=0.9","677a8053e35cb9c094676a79","679edb085803f58d6bbd31ca","679ee644f90c6b60a3a4cd3a","","null","<p> + <p/>","null","","",""
"","","","","","instructions","3","57171","0.0-3.0","22","1","2025-02-02 03:28:15","bc01a2b6f61d06f6604adb8657495020","99.173.54.245","Mozilla/5.0 (X11; CrOS x86_64 14541.0.0) AppleWebKit/537.36 (KHTML, like Gecko) Chrome/129.0.0.0 Safari/537.36","WebKit","Chrome","129.0.0.0","ChromeOS","14541.0.0","https://app.prolific.com/","en-US,en;q=0.9","677a8053e35cb9c094676a79","679edb085803f58d6bbd31ca","679ee644f90c6b60a3a4cd3a","[{""page_index"":0,""viewing_time"":1967},{""page_index"":1,""viewing_time"":8518},{""page_index"":2,""viewing_time"":10519},{""page_index"":3,""viewing_time"":4227},{""page_index"":4,""viewing_time"":12184}]","37414","","","","",""
"","","","","","html-button-response","4","59010","0.0-4.0-0.0-0.0","22","1","2025-02-02 03:28:15","bc01a2b6f61d06f6604adb8657495020","99.173.54.245","Mozilla/5.0 (X11; CrOS x86_64 14541.0.0) AppleWebKit/537.36 (KHTML, like Gecko) Chrome/129.0.0.0 Safari/537.36","WebKit","Chrome","129.0.0.0","ChromeOS","14541.0.0","https://app.prolific.com/","en-US,en;q=0.9","677a8053e35cb9c094676a79","679edb085803f58d6bbd31ca","679ee644f90c6b60a3a4cd3a","","1830","","0","Intro Trial","",""
"","","","","","html-button-response","5","62465","0.0-4.1-0.1-0.1","22","1","2025-02-02 03:28:15","bc01a2b6f61d06f6604adb8657495020","99.173.54.245","Mozilla/5.0 (X11; CrOS x86_64 14541.0.0) AppleWebKit/537.36 (KHTML, like Gecko) Chrome/129.0.0.0 Safari/537.36","WebKit","Chrome","129.0.0.0","ChromeOS","14541.0.0","https://app.prolific.com/","en-US,en;q=0.9","677a8053e35cb9c094676a79","679edb085803f58d6bbd31ca","679ee644f90c6b60a3a4cd3a","","3447","","2","Intro Trial","",""
"","","","","","html-button-response","6","75423","0.0-4.2-0.2-0.2","22","1","2025-02-02 03:28:15","bc01a2b6f61d06f6604adb8657495020","99.173.54.245","Mozilla/5.0 (X11; CrOS x86_64 14541.0.0) AppleWebKit/537.36 (KHTML, like Gecko) Chrome/129.0.0.0 Safari/537.36","WebKit","Chrome","129.0.0.0","ChromeOS","14541.0.0","https://app.prolific.com/","en-US,en;q=0.9","677a8053e35cb9c094676a79","679edb085803f58d6bbd31ca","679ee644f90c6b60a3a4cd3a","","12949","","0","Intro Trial","",""
"","","","","","html-button-response","7","76469","0.0-4.3-0.3-0.3","22","1","2025-02-02 03:28:15","bc01a2b6f61d06f6604adb8657495020","99.173.54.245","Mozilla/5.0 (X11; CrOS x86_64 14541.0.0) AppleWebKit/537.36 (KHTML, like Gecko) Chrome/129.0.0.0 Safari/537.36","WebKit","Chrome","129.0.0.0","ChromeOS","14541.0.0","https://app.prolific.com/","en-US,en;q=0.9","677a8053e35cb9c094676a79","679edb085803f58d6bbd31ca","679ee644f90c6b60a3a4cd3a","","1039","","2","Intro Trial","",""
"","","","","","html-button-response","8","77292","0.0-4.4-0.4-0.4","22","1","2025-02-02 03:28:15","bc01a2b6f61d06f6604adb8657495020","99.173.54.245","Mozilla/5.0 (X11; CrOS x86_64 14541.0.0) AppleWebKit/537.36 (KHTML, like Gecko) Chrome/129.0.0.0 Safari/537.36","WebKit","Chrome","129.0.0.0","ChromeOS","14541.0.0","https://app.prolific.com/","en-US,en;q=0.9","677a8053e35cb9c094676a79","679edb085803f58d6bbd31ca","679ee644f90c6b60a3a4cd3a","","817","","2","Intro Trial","",""
"","","","","","html-button-response","9","78785","0.0-4.5-0.5-0.5","22","1","2025-02-02 03:28:15","bc01a2b6f61d06f6604adb8657495020","99.173.54.245","Mozilla/5.0 (X11; CrOS x86_64 14541.0.0) AppleWebKit/537.36 (KHTML, like Gecko) Chrome/129.0.0.0 Safari/537.36","WebKit","Chrome","129.0.0.0","ChromeOS","14541.0.0","https://app.prolific.com/","en-US,en;q=0.9","677a8053e35cb9c094676a79","679edb085803f58d6bbd31ca","679ee644f90c6b60a3a4cd3a","","1487","","3","Intro Trial","",""
"","","","","","html-button-response","10","80219","0.0-4.6-0.6-0.6","22","1","2025-02-02 03:28:15","bc01a2b6f61d06f6604adb8657495020","99.173.54.245","Mozilla/5.0 (X11; CrOS x86_64 14541.0.0) AppleWebKit/537.36 (KHTML, like Gecko) Chrome/129.0.0.0 Safari/537.36","WebKit","Chrome","129.0.0.0","ChromeOS","14541.0.0","https://app.prolific.com/","en-US,en;q=0.9","677a8053e35cb9c094676a79","679edb085803f58d6bbd31ca","679ee644f90c6b60a3a4cd3a","","1428","","1","Intro Trial","",""
"","","","","","html-button-response","11","82428","0.0-4.7-0.7-0.7","22","1","2025-02-02 03:28:15","bc01a2b6f61d06f6604adb8657495020","99.173.54.245","Mozilla/5.0 (X11; CrOS x86_64 14541.0.0) AppleWebKit/537.36 (KHTML, like Gecko) Chrome/129.0.0.0 Safari/537.36","WebKit","Chrome","129.0.0.0","ChromeOS","14541.0.0","https://app.prolific.com/","en-US,en;q=0.9","677a8053e35cb9c094676a79","679edb085803f58d6bbd31ca","679ee644f90c6b60a3a4cd3a","","2204","","3","Intro Trial","",""
"","","","","","html-button-response","12","83437","0.0-4.8-0.8-0.8","22","1","2025-02-02 03:28:15","bc01a2b6f61d06f6604adb8657495020","99.173.54.245","Mozilla/5.0 (X11; CrOS x86_64 14541.0.0) AppleWebKit/537.36 (KHTML, like Gecko) Chrome/129.0.0.0 Safari/537.36","WebKit","Chrome","129.0.0.0","ChromeOS","14541.0.0","https://app.prolific.com/","en-US,en;q=0.9","677a8053e35cb9c094676a79","679edb085803f58d6bbd31ca","679ee644f90c6b60a3a4cd3a","","1005","","4","Intro Trial","",""
"","","","","","html-button-response","13","84404","0.0-4.9-0.9-0.9","22","1","2025-02-02 03:28:15","bc01a2b6f61d06f6604adb8657495020","99.173.54.245","Mozilla/5.0 (X11; CrOS x86_64 14541.0.0) AppleWebKit/537.36 (KHTML, like Gecko) Chrome/129.0.0.0 Safari/537.36","WebKit","Chrome","129.0.0.0","ChromeOS","14541.0.0","https://app.prolific.com/","en-US,en;q=0.9","677a8053e35cb9c094676a79","679edb085803f58d6bbd31ca","679ee644f90c6b60a3a4cd3a","","962","","3","Intro Trial","",""
"","","","","","html-button-response","14","85986","0.0-4.10-0.10-0.10","22","1","2025-02-02 03:28:15","bc01a2b6f61d06f6604adb8657495020","99.173.54.245","Mozilla/5.0 (X11; CrOS x86_64 14541.0.0) AppleWebKit/537.36 (KHTML, like Gecko) Chrome/129.0.0.0 Safari/537.36","WebKit","Chrome","129.0.0.0","ChromeOS","14541.0.0","https://app.prolific.com/","en-US,en;q=0.9","677a8053e35cb9c094676a79","679edb085803f58d6bbd31ca","679ee644f90c6b60a3a4cd3a","","1575","","3","Intro Trial","",""
"","","","","","html-button-response","15","87070","0.0-4.11-0.11-0.11","22","1","2025-02-02 03:28:15","bc01a2b6f61d06f6604adb8657495020","99.173.54.245","Mozilla/5.0 (X11; CrOS x86_64 14541.0.0) AppleWebKit/537.36 (KHTML, like Gecko) Chrome/129.0.0.0 Safari/537.36","WebKit","Chrome","129.0.0.0","ChromeOS","14541.0.0","https://app.prolific.com/","en-US,en;q=0.9","677a8053e35cb9c094676a79","679edb085803f58d6bbd31ca","679ee644f90c6b60a3a4cd3a","","1079","","2","Intro Trial","",""
"","","","","","html-button-response","16","88184","0.0-4.12-0.12-0.12","22","1","2025-02-02 03:28:15","bc01a2b6f61d06f6604adb8657495020","99.173.54.245","Mozilla/5.0 (X11; CrOS x86_64 14541.0.0) AppleWebKit/537.36 (KHTML, like Gecko) Chrome/129.0.0.0 Safari/537.36","WebKit","Chrome","129.0.0.0","ChromeOS","14541.0.0","https://app.prolific.com/","en-US,en;q=0.9","677a8053e35cb9c094676a79","679edb085803f58d6bbd31ca","679ee644f90c6b60a3a4cd3a","","1108","","2","Intro Trial","",""
"","","","","","html-button-response","17","88901","0.0-4.13-0.13-0.13","22","1","2025-02-02 03:28:15","bc01a2b6f61d06f6604adb8657495020","99.173.54.245","Mozilla/5.0 (X11; CrOS x86_64 14541.0.0) AppleWebKit/537.36 (KHTML, like Gecko) Chrome/129.0.0.0 Safari/537.36","WebKit","Chrome","129.0.0.0","ChromeOS","14541.0.0","https://app.prolific.com/","en-US,en;q=0.9","677a8053e35cb9c094676a79","679edb085803f58d6bbd31ca","679ee644f90c6b60a3a4cd3a","","711","","1","Intro Trial","",""
"","","","","","html-button-response","18","90402","0.0-4.14-0.14-0.14","22","1","2025-02-02 03:28:15","bc01a2b6f61d06f6604adb8657495020","99.173.54.245","Mozilla/5.0 (X11; CrOS x86_64 14541.0.0) AppleWebKit/537.36 (KHTML, like Gecko) Chrome/129.0.0.0 Safari/537.36","WebKit","Chrome","129.0.0.0","ChromeOS","14541.0.0","https://app.prolific.com/","en-US,en;q=0.9","677a8053e35cb9c094676a79","679edb085803f58d6bbd31ca","679ee644f90c6b60a3a4cd3a","","1496","","2","Intro Trial","",""
"","","","","","html-button-response","19","91207","0.0-4.15-0.15-0.15","22","1","2025-02-02 03:28:15","bc01a2b6f61d06f6604adb8657495020","99.173.54.245","Mozilla/5.0 (X11; CrOS x86_64 14541.0.0) AppleWebKit/537.36 (KHTML, like Gecko) Chrome/129.0.0.0 Safari/537.36","WebKit","Chrome","129.0.0.0","ChromeOS","14541.0.0","https://app.prolific.com/","en-US,en;q=0.9","677a8053e35cb9c094676a79","679edb085803f58d6bbd31ca","679ee644f90c6b60a3a4cd3a","","799","","1","Intro Trial","",""
"","","","","","html-button-response","20","92628","0.0-4.16-0.16-0.16","22","1","2025-02-02 03:28:15","bc01a2b6f61d06f6604adb8657495020","99.173.54.245","Mozilla/5.0 (X11; CrOS x86_64 14541.0.0) AppleWebKit/537.36 (KHTML, like Gecko) Chrome/129.0.0.0 Safari/537.36","WebKit","Chrome","129.0.0.0","ChromeOS","14541.0.0","https://app.prolific.com/","en-US,en;q=0.9","677a8053e35cb9c094676a79","679edb085803f58d6bbd31ca","679ee644f90c6b60a3a4cd3a","","1416","","3","Intro Trial","",""
"","","","","","html-button-response","21","93406","0.0-4.17-0.17-0.17","22","1","2025-02-02 03:28:15","bc01a2b6f61d06f6604adb8657495020","99.173.54.245","Mozilla/5.0 (X11; CrOS x86_64 14541.0.0) AppleWebKit/537.36 (KHTML, like Gecko) Chrome/129.0.0.0 Safari/537.36","WebKit","Chrome","129.0.0.0","ChromeOS","14541.0.0","https://app.prolific.com/","en-US,en;q=0.9","677a8053e35cb9c094676a79","679edb085803f58d6bbd31ca","679ee644f90c6b60a3a4cd3a","","775","","2","Intro Trial","",""
"","","","","","html-button-response","22","95404","0.0-4.18-0.18-0.18","22","1","2025-02-02 03:28:15","bc01a2b6f61d06f6604adb8657495020","99.173.54.245","Mozilla/5.0 (X11; CrOS x86_64 14541.0.0) AppleWebKit/537.36 (KHTML, like Gecko) Chrome/129.0.0.0 Safari/537.36","WebKit","Chrome","129.0.0.0","ChromeOS","14541.0.0","https://app.prolific.com/","en-US,en;q=0.9","677a8053e35cb9c094676a79","679edb085803f58d6bbd31ca","679ee644f90c6b60a3a4cd3a","","1991","","4","Intro Trial","",""
"","","","","","html-button-response","23","96479","0.0-4.19-0.19-0.19","22","1","2025-02-02 03:28:15","bc01a2b6f61d06f6604adb8657495020","99.173.54.245","Mozilla/5.0 (X11; CrOS x86_64 14541.0.0) AppleWebKit/537.36 (KHTML, like Gecko) Chrome/129.0.0.0 Safari/537.36","WebKit","Chrome","129.0.0.0","ChromeOS","14541.0.0","https://app.prolific.com/","en-US,en;q=0.9","677a8053e35cb9c094676a79","679edb085803f58d6bbd31ca","679ee644f90c6b60a3a4cd3a","","1070","","3","Intro Trial","",""
"","","","","","html-button-response","24","98464","0.0-4.20-0.20-0.20","22","1","2025-02-02 03:28:15","bc01a2b6f61d06f6604adb8657495020","99.173.54.245","Mozilla/5.0 (X11; CrOS x86_64 14541.0.0) AppleWebKit/537.36 (KHTML, like Gecko) Chrome/129.0.0.0 Safari/537.36","WebKit","Chrome","129.0.0.0","ChromeOS","14541.0.0","https://app.prolific.com/","en-US,en;q=0.9","677a8053e35cb9c094676a79","679edb085803f58d6bbd31ca","679ee644f90c6b60a3a4cd3a","","1979","","5","Intro Trial","",""
"","","","","","html-keyboard-response","25","110915","0.0-5.0","22","1","2025-02-02 03:28:15","bc01a2b6f61d06f6604adb8657495020","99.173.54.245","Mozilla/5.0 (X11; CrOS x86_64 14541.0.0) AppleWebKit/537.36 (KHTML, like Gecko) Chrome/129.0.0.0 Safari/537.36","WebKit","Chrome","129.0.0.0","ChromeOS","14541.0.0","https://app.prolific.com/","en-US,en;q=0.9","677a8053e35cb9c094676a79","679edb085803f58d6bbd31ca","679ee644f90c6b60a3a4cd3a","","12443","[""You sorted incorrectly by using the balance 10 times. <br><br> <img src='G_3.jpg' height='90'><img src='G_5.jpg' height='90'><img src='G_2.jpg' height='90'><img src='G_1.jpg' height='90'><img src='G_4.jpg' height='90'><br><br> Your final order is 3,1,2,4,5<br><br><br>Omgne Sort in this game will allow you to sort correctly by using the balance 8 times. Press Enter to learn it!""]","enter","","",""
"","","","","","html-keyboard-response","26","115847","0.0-6.0","22","1","2025-02-02 03:28:15","bc01a2b6f61d06f6604adb8657495020","99.173.54.245","Mozilla/5.0 (X11; CrOS x86_64 14541.0.0) AppleWebKit/537.36 (KHTML, like Gecko) Chrome/129.0.0.0 Safari/537.36","WebKit","Chrome","129.0.0.0","ChromeOS","14541.0.0","https://app.prolific.com/","en-US,en;q=0.9","677a8053e35cb9c094676a79","679edb085803f58d6bbd31ca","679ee644f90c6b60a3a4cd3a","","4927","<p>Welcome to the learning phase! <br><br> You will learn by six examples. The following learning trials will not be used to calculate your performance. <br><br> Press Enter to continue.<p/>","enter","","",""
"","","","","","html-keyboard-response","27","118848","0.0-7.0","22","1","2025-02-02 03:28:15","bc01a2b6f61d06f6604adb8657495020","99.173.54.245","Mozilla/5.0 (X11; CrOS x86_64 14541.0.0) AppleWebKit/537.36 (KHTML, like Gecko) Chrome/129.0.0.0 Safari/537.36","WebKit","Chrome","129.0.0.0","ChromeOS","14541.0.0","https://app.prolific.com/","en-US,en;q=0.9","677a8053e35cb9c094676a79","679edb085803f58d6bbd31ca","679ee644f90c6b60a3a4cd3a","","2997","[""Example 1<br><br>You will watch Omnge Sort in action. Try to identify any patterns in the comparisons made by this method. <br><br>Press Enter to continue.""]","enter","","",""
"","","","","","html-keyboard-response","28","119356","0.0-8.0","22","1","2025-02-02 03:28:15","bc01a2b6f61d06f6604adb8657495020","99.173.54.245","Mozilla/5.0 (X11; CrOS x86_64 14541.0.0) AppleWebKit/537.36 (KHTML, like Gecko) Chrome/129.0.0.0 Safari/537.36","WebKit","Chrome","129.0.0.0","ChromeOS","14541.0.0","https://app.prolific.com/","en-US,en;q=0.9","677a8053e35cb9c094676a79","679edb085803f58d6bbd31ca","679ee644f90c6b60a3a4cd3a","","null","<img id='selected' src='G_5.jpg' height='90'> <img src='G_3.jpg' height='90'> <img src='G_1.jpg' height='90'> <img src='G_7.jpg' height='90'> <img src='G_9.jpg' height='90'>","null","Animation0","",""
"","","","","","html-keyboard-response","29","119862","0.0-9.0","22","1","2025-02-02 03:28:15","bc01a2b6f61d06f6604adb8657495020","99.173.54.245","Mozilla/5.0 (X11; CrOS x86_64 14541.0.0) AppleWebKit/537.36 (KHTML, like Gecko) Chrome/129.0.0.0 Safari/537.36","WebKit","Chrome","129.0.0.0","ChromeOS","14541.0.0","https://app.prolific.com/","en-US,en;q=0.9","677a8053e35cb9c094676a79","679edb085803f58d6bbd31ca","679ee644f90c6b60a3a4cd3a","","null","<img id='selected' src='G_5.jpg' height='90'> <img id='selected' src='G_3.jpg' height='90'> <img src='G_1.jpg' height='90'> <img src='G_7.jpg' height='90'> <img src='G_9.jpg' height='90'>","null","Animation0","",""
"","","","","","html-keyboard-response","30","120369","0.0-10.0","22","1","2025-02-02 03:28:15","bc01a2b6f61d06f6604adb8657495020","99.173.54.245","Mozilla/5.0 (X11; CrOS x86_64 14541.0.0) AppleWebKit/537.36 (KHTML, like Gecko) Chrome/129.0.0.0 Safari/537.36","WebKit","Chrome","129.0.0.0","ChromeOS","14541.0.0","https://app.prolific.com/","en-US,en;q=0.9","677a8053e35cb9c094676a79","679edb085803f58d6bbd31ca","679ee644f90c6b60a3a4cd3a","","null","<img id='swapped' src='G_3.jpg' height='90'> <img id='swapped' src='G_5.jpg' height='90'> <img src='G_1.jpg' height='90'> <img src='G_7.jpg' height='90'> <img src='G_9.jpg' height='90'>","null","Animation0","",""
"","","","","","html-keyboard-response","31","120676","0.0-11.0","22","1","2025-02-02 03:28:15","bc01a2b6f61d06f6604adb8657495020","99.173.54.245","Mozilla/5.0 (X11; CrOS x86_64 14541.0.0) AppleWebKit/537.36 (KHTML, like Gecko) Chrome/129.0.0.0 Safari/537.36","WebKit","Chrome","129.0.0.0","ChromeOS","14541.0.0","https://app.prolific.com/","en-US,en;q=0.9","677a8053e35cb9c094676a79","679edb085803f58d6bbd31ca","679ee644f90c6b60a3a4cd3a","","null","<img  src='G_3.jpg' height='90'> <img  src='G_5.jpg' height='90'> <img src='G_1.jpg' height='90'> <img src='G_7.jpg' height='90'> <img src='G_9.jpg' height='90'>","null","Animation0","",""
"","","","","","html-keyboard-response","32","121181","0.0-12.0","22","1","2025-02-02 03:28:15","bc01a2b6f61d06f6604adb8657495020","99.173.54.245","Mozilla/5.0 (X11; CrOS x86_64 14541.0.0) AppleWebKit/537.36 (KHTML, like Gecko) Chrome/129.0.0.0 Safari/537.36","WebKit","Chrome","129.0.0.0","ChromeOS","14541.0.0","https://app.prolific.com/","en-US,en;q=0.9","677a8053e35cb9c094676a79","679edb085803f58d6bbd31ca","679ee644f90c6b60a3a4cd3a","","null","<img  src='G_3.jpg' height='90'> <img id='selected'  src='G_5.jpg' height='90'> <img src='G_1.jpg' height='90'> <img src='G_7.jpg' height='90'> <img src='G_9.jpg' height='90'>","null","Animation0","",""
"","","","","","html-keyboard-response","33","121685","0.0-13.0","22","1","2025-02-02 03:28:15","bc01a2b6f61d06f6604adb8657495020","99.173.54.245","Mozilla/5.0 (X11; CrOS x86_64 14541.0.0) AppleWebKit/537.36 (KHTML, like Gecko) Chrome/129.0.0.0 Safari/537.36","WebKit","Chrome","129.0.0.0","ChromeOS","14541.0.0","https://app.prolific.com/","en-US,en;q=0.9","677a8053e35cb9c094676a79","679edb085803f58d6bbd31ca","679ee644f90c6b60a3a4cd3a","","null","<img  src='G_3.jpg' height='90'> <img id='selected'  src='G_5.jpg' height='90'> <img id='selected' src='G_1.jpg' height='90'> <img src='G_7.jpg' height='90'> <img src='G_9.jpg' height='90'>","null","Animation0","",""
"","","","","","html-keyboard-response","34","122191","0.0-14.0","22","1","2025-02-02 03:28:15","bc01a2b6f61d06f6604adb8657495020","99.173.54.245","Mozilla/5.0 (X11; CrOS x86_64 14541.0.0) AppleWebKit/537.36 (KHTML, like Gecko) Chrome/129.0.0.0 Safari/537.36","WebKit","Chrome","129.0.0.0","ChromeOS","14541.0.0","https://app.prolific.com/","en-US,en;q=0.9","677a8053e35cb9c094676a79","679edb085803f58d6bbd31ca","679ee644f90c6b60a3a4cd3a","","null","<img  src='G_3.jpg' height='90'> <img id='selected'  src='G_5.jpg' height='90'> <img id='selected' src='G_1.jpg' height='90'> <img src='G_7.jpg' height='90'> <img src='G_9.jpg' height='90'>","null","Animation0","",""
"","","","","","html-keyboard-response","35","122497","0.0-15.0","22","1","2025-02-02 03:28:15","bc01a2b6f61d06f6604adb8657495020","99.173.54.245","Mozilla/5.0 (X11; CrOS x86_64 14541.0.0) AppleWebKit/537.36 (KHTML, like Gecko) Chrome/129.0.0.0 Safari/537.36","WebKit","Chrome","129.0.0.0","ChromeOS","14541.0.0","https://app.prolific.com/","en-US,en;q=0.9","677a8053e35cb9c094676a79","679edb085803f58d6bbd31ca","679ee644f90c6b60a3a4cd3a","","null","<img  src='G_3.jpg' height='90'> <img   src='G_5.jpg' height='90'> <img  src='G_1.jpg' height='90'> <img src='G_7.jpg' height='90'> <img src='G_9.jpg' height='90'>","null","Animation0","",""
"","","","","","html-keyboard-response","36","123005","0.0-16.0","22","1","2025-02-02 03:28:15","bc01a2b6f61d06f6604adb8657495020","99.173.54.245","Mozilla/5.0 (X11; CrOS x86_64 14541.0.0) AppleWebKit/537.36 (KHTML, like Gecko) Chrome/129.0.0.0 Safari/537.36","WebKit","Chrome","129.0.0.0","ChromeOS","14541.0.0","https://app.prolific.com/","en-US,en;q=0.9","677a8053e35cb9c094676a79","679edb085803f58d6bbd31ca","679ee644f90c6b60a3a4cd3a","","null","<img  src='G_3.jpg' height='90'> <img   src='G_5.jpg' height='90'> <img id='selected'  src='G_1.jpg' height='90'> <img src='G_7.jpg' height='90'> <img src='G_9.jpg' height='90'>","null","Animation0","",""
"","","","","","html-keyboard-response","37","123511","0.0-17.0","22","1","2025-02-02 03:28:15","bc01a2b6f61d06f6604adb8657495020","99.173.54.245","Mozilla/5.0 (X11; CrOS x86_64 14541.0.0) AppleWebKit/537.36 (KHTML, like Gecko) Chrome/129.0.0.0 Safari/537.36","WebKit","Chrome","129.0.0.0","ChromeOS","14541.0.0","https://app.prolific.com/","en-US,en;q=0.9","677a8053e35cb9c094676a79","679edb085803f58d6bbd31ca","679ee644f90c6b60a3a4cd3a","","null","<img  src='G_3.jpg' height='90'> <img   src='G_5.jpg' height='90'> <img id='selected'  src='G_1.jpg' height='90'> <img id='selected' src='G_7.jpg' height='90'> <img src='G_9.jpg' height='90'>","null","Animation0","",""
"","","","","","html-keyboard-response","38","124018","0.0-18.0","22","1","2025-02-02 03:28:15","bc01a2b6f61d06f6604adb8657495020","99.173.54.245","Mozilla/5.0 (X11; CrOS x86_64 14541.0.0) AppleWebKit/537.36 (KHTML, like Gecko) Chrome/129.0.0.0 Safari/537.36","WebKit","Chrome","129.0.0.0","ChromeOS","14541.0.0","https://app.prolific.com/","en-US,en;q=0.9","677a8053e35cb9c094676a79","679edb085803f58d6bbd31ca","679ee644f90c6b60a3a4cd3a","","null","<img  src='G_3.jpg' height='90'> <img   src='G_5.jpg' height='90'> <img id='selected'  src='G_1.jpg' height='90'> <img id='selected' src='G_7.jpg' height='90'> <img src='G_9.jpg' height='90'>","null","Animation0","",""
"","","","","","html-keyboard-response","39","124325","0.0-19.0","22","1","2025-02-02 03:28:15","bc01a2b6f61d06f6604adb8657495020","99.173.54.245","Mozilla/5.0 (X11; CrOS x86_64 14541.0.0) AppleWebKit/537.36 (KHTML, like Gecko) Chrome/129.0.0.0 Safari/537.36","WebKit","Chrome","129.0.0.0","ChromeOS","14541.0.0","https://app.prolific.com/","en-US,en;q=0.9","677a8053e35cb9c094676a79","679edb085803f58d6bbd31ca","679ee644f90c6b60a3a4cd3a","","null","<img  src='G_3.jpg' height='90'> <img   src='G_5.jpg' height='90'> <img   src='G_1.jpg' height='90'> <img  src='G_7.jpg' height='90'> <img src='G_9.jpg' height='90'>","null","Animation0","",""
"","","","","","html-keyboard-response","40","124831","0.0-20.0","22","1","2025-02-02 03:28:15","bc01a2b6f61d06f6604adb8657495020","99.173.54.245","Mozilla/5.0 (X11; CrOS x86_64 14541.0.0) AppleWebKit/537.36 (KHTML, like Gecko) Chrome/129.0.0.0 Safari/537.36","WebKit","Chrome","129.0.0.0","ChromeOS","14541.0.0","https://app.prolific.com/","en-US,en;q=0.9","677a8053e35cb9c094676a79","679edb085803f58d6bbd31ca","679ee644f90c6b60a3a4cd3a","","null","<img  src='G_3.jpg' height='90'> <img   src='G_5.jpg' height='90'> <img   src='G_1.jpg' height='90'> <img id='selected'  src='G_7.jpg' height='90'> <img src='G_9.jpg' height='90'>","null","Animation0","",""
"","","","","","html-keyboard-response","41","125338","0.0-21.0","22","1","2025-02-02 03:28:15","bc01a2b6f61d06f6604adb8657495020","99.173.54.245","Mozilla/5.0 (X11; CrOS x86_64 14541.0.0) AppleWebKit/537.36 (KHTML, like Gecko) Chrome/129.0.0.0 Safari/537.36","WebKit","Chrome","129.0.0.0","ChromeOS","14541.0.0","https://app.prolific.com/","en-US,en;q=0.9","677a8053e35cb9c094676a79","679edb085803f58d6bbd31ca","679ee644f90c6b60a3a4cd3a","","null","<img  src='G_3.jpg' height='90'> <img   src='G_5.jpg' height='90'> <img   src='G_1.jpg' height='90'> <img id='selected'  src='G_7.jpg' height='90'> <img id='selected' src='G_9.jpg' height='90'>","null","Animation0","",""
"","","","","","html-keyboard-response","42","125841","0.0-22.0","22","1","2025-02-02 03:28:15","bc01a2b6f61d06f6604adb8657495020","99.173.54.245","Mozilla/5.0 (X11; CrOS x86_64 14541.0.0) AppleWebKit/537.36 (KHTML, like Gecko) Chrome/129.0.0.0 Safari/537.36","WebKit","Chrome","129.0.0.0","ChromeOS","14541.0.0","https://app.prolific.com/","en-US,en;q=0.9","677a8053e35cb9c094676a79","679edb085803f58d6bbd31ca","679ee644f90c6b60a3a4cd3a","","null","<img  src='G_3.jpg' height='90'> <img   src='G_5.jpg' height='90'> <img   src='G_1.jpg' height='90'> <img id='selected'  src='G_7.jpg' height='90'> <img id='selected' src='G_9.jpg' height='90'>","null","Animation0","",""
"","","","","","html-keyboard-response","43","126145","0.0-23.0","22","1","2025-02-02 03:28:15","bc01a2b6f61d06f6604adb8657495020","99.173.54.245","Mozilla/5.0 (X11; CrOS x86_64 14541.0.0) AppleWebKit/537.36 (KHTML, like Gecko) Chrome/129.0.0.0 Safari/537.36","WebKit","Chrome","129.0.0.0","ChromeOS","14541.0.0","https://app.prolific.com/","en-US,en;q=0.9","677a8053e35cb9c094676a79","679edb085803f58d6bbd31ca","679ee644f90c6b60a3a4cd3a","","null","<img  src='G_3.jpg' height='90'> <img   src='G_5.jpg' height='90'> <img   src='G_1.jpg' height='90'> <img   src='G_7.jpg' height='90'> <img  src='G_9.jpg' height='90'>","null","Animation0","",""
"","","","","","html-keyboard-response","44","129671","0.0-24.0","22","1","2025-02-02 03:28:15","bc01a2b6f61d06f6604adb8657495020","99.173.54.245","Mozilla/5.0 (X11; CrOS x86_64 14541.0.0) AppleWebKit/537.36 (KHTML, like Gecko) Chrome/129.0.0.0 Safari/537.36","WebKit","Chrome","129.0.0.0","ChromeOS","14541.0.0","https://app.prolific.com/","en-US,en;q=0.9","677a8053e35cb9c094676a79","679edb085803f58d6bbd31ca","679ee644f90c6b60a3a4cd3a","","3521","[""Did you notice any patterns? <br><br>Press Enter to watch that example again and follow the steps of Omgne Sort.""]","enter","","",""
"","","","","","html-button-response","45","130078","0.0-25.0","22","1","2025-02-02 03:28:15","bc01a2b6f61d06f6604adb8657495020","99.173.54.245","Mozilla/5.0 (X11; CrOS x86_64 14541.0.0) AppleWebKit/537.36 (KHTML, like Gecko) Chrome/129.0.0.0 Safari/537.36","WebKit","Chrome","129.0.0.0","ChromeOS","14541.0.0","https://app.prolific.com/","en-US,en;q=0.9","677a8053e35cb9c094676a79","679edb085803f58d6bbd31ca","679ee644f90c6b60a3a4cd3a","","null","<img id='selected' src='G_5.jpg' height='90'> <img src='G_3.jpg' height='90'> <img src='G_1.jpg' height='90'> <img src='G_7.jpg' height='90'> <img src='G_9.jpg' height='90'>","null","Learning example 0","",""
"","","","","","html-button-response","46","130388","0.0-26.0","22","1","2025-02-02 03:28:15","bc01a2b6f61d06f6604adb8657495020","99.173.54.245","Mozilla/5.0 (X11; CrOS x86_64 14541.0.0) AppleWebKit/537.36 (KHTML, like Gecko) Chrome/129.0.0.0 Safari/537.36","WebKit","Chrome","129.0.0.0","ChromeOS","14541.0.0","https://app.prolific.com/","en-US,en;q=0.9","677a8053e35cb9c094676a79","679edb085803f58d6bbd31ca","679ee644f90c6b60a3a4cd3a","","null","<img id='selected' src='G_5.jpg' height='90'> <img id='selected' src='G_3.jpg' height='90'> <img src='G_1.jpg' height='90'> <img src='G_7.jpg' height='90'> <img src='G_9.jpg' height='90'>","null","Learning example 0","",""
"","","","","","html-button-response","47","130697","0.0-27.0","22","1","2025-02-02 03:28:15","bc01a2b6f61d06f6604adb8657495020","99.173.54.245","Mozilla/5.0 (X11; CrOS x86_64 14541.0.0) AppleWebKit/537.36 (KHTML, like Gecko) Chrome/129.0.0.0 Safari/537.36","WebKit","Chrome","129.0.0.0","ChromeOS","14541.0.0","https://app.prolific.com/","en-US,en;q=0.9","677a8053e35cb9c094676a79","679edb085803f58d6bbd31ca","679ee644f90c6b60a3a4cd3a","","null","<img id='swapped' src='G_3.jpg' height='90'> <img id='swapped' src='G_5.jpg' height='90'> <img src='G_1.jpg' height='90'> <img src='G_7.jpg' height='90'> <img src='G_9.jpg' height='90'>","null","Learning example 0","",""
"","","","","","html-button-response","48","136188","0.0-28.0-0.0-0.0","22","1","2025-02-02 03:28:15","bc01a2b6f61d06f6604adb8657495020","99.173.54.245","Mozilla/5.0 (X11; CrOS x86_64 14541.0.0) AppleWebKit/537.36 (KHTML, like Gecko) Chrome/129.0.0.0 Safari/537.36","WebKit","Chrome","129.0.0.0","ChromeOS","14541.0.0","https://app.prolific.com/","en-US,en;q=0.9","677a8053e35cb9c094676a79","679edb085803f58d6bbd31ca","679ee644f90c6b60a3a4cd3a","","5478","<img id='swapped' src='G_3.jpg' height='90'> <img id='swapped' src='G_5.jpg' height='90'> <img src='G_1.jpg' height='90'> <img src='G_7.jpg' height='90'> <img src='G_9.jpg' height='90'>","0","Learning example 0","",""
"","","","","","html-button-response","49","137079","0.0-28.1-0.1-0.1","22","1","2025-02-02 03:28:15","bc01a2b6f61d06f6604adb8657495020","99.173.54.245","Mozilla/5.0 (X11; CrOS x86_64 14541.0.0) AppleWebKit/537.36 (KHTML, like Gecko) Chrome/129.0.0.0 Safari/537.36","WebKit","Chrome","129.0.0.0","ChromeOS","14541.0.0","https://app.prolific.com/","en-US,en;q=0.9","677a8053e35cb9c094676a79","679edb085803f58d6bbd31ca","679ee644f90c6b60a3a4cd3a","","881","<img id='swapped' src='G_3.jpg' height='90'> <img id='swapped' src='G_5.jpg' height='90'> <img src='G_1.jpg' height='90'> <img src='G_7.jpg' height='90'> <img src='G_9.jpg' height='90'>","1","Learning example 0","",""
"","","","","","html-button-response","50","137289","0.0-29.0","22","1","2025-02-02 03:28:15","bc01a2b6f61d06f6604adb8657495020","99.173.54.245","Mozilla/5.0 (X11; CrOS x86_64 14541.0.0) AppleWebKit/537.36 (KHTML, like Gecko) Chrome/129.0.0.0 Safari/537.36","WebKit","Chrome","129.0.0.0","ChromeOS","14541.0.0","https://app.prolific.com/","en-US,en;q=0.9","677a8053e35cb9c094676a79","679edb085803f58d6bbd31ca","679ee644f90c6b60a3a4cd3a","","null","<img  src='G_3.jpg' height='90'> <img  src='G_5.jpg' height='90'> <img src='G_1.jpg' height='90'> <img src='G_7.jpg' height='90'> <img src='G_9.jpg' height='90'>","null","Learning example 0","",""
"","","","","","html-button-response","51","137699","0.0-30.0","22","1","2025-02-02 03:28:15","bc01a2b6f61d06f6604adb8657495020","99.173.54.245","Mozilla/5.0 (X11; CrOS x86_64 14541.0.0) AppleWebKit/537.36 (KHTML, like Gecko) Chrome/129.0.0.0 Safari/537.36","WebKit","Chrome","129.0.0.0","ChromeOS","14541.0.0","https://app.prolific.com/","en-US,en;q=0.9","677a8053e35cb9c094676a79","679edb085803f58d6bbd31ca","679ee644f90c6b60a3a4cd3a","","null","<img  src='G_3.jpg' height='90'> <img id='selected'  src='G_5.jpg' height='90'> <img src='G_1.jpg' height='90'> <img src='G_7.jpg' height='90'> <img src='G_9.jpg' height='90'>","null","Learning example 0","",""
"","","","","","html-button-response","52","138008","0.0-31.0","22","1","2025-02-02 03:28:15","bc01a2b6f61d06f6604adb8657495020","99.173.54.245","Mozilla/5.0 (X11; CrOS x86_64 14541.0.0) AppleWebKit/537.36 (KHTML, like Gecko) Chrome/129.0.0.0 Safari/537.36","WebKit","Chrome","129.0.0.0","ChromeOS","14541.0.0","https://app.prolific.com/","en-US,en;q=0.9","677a8053e35cb9c094676a79","679edb085803f58d6bbd31ca","679ee644f90c6b60a3a4cd3a","","null","<img  src='G_3.jpg' height='90'> <img id='selected'  src='G_5.jpg' height='90'> <img id='selected' src='G_1.jpg' height='90'> <img src='G_7.jpg' height='90'> <img src='G_9.jpg' height='90'>","null","Learning example 0","",""
"","","","","","html-button-response","53","138313","0.0-32.0","22","1","2025-02-02 03:28:15","bc01a2b6f61d06f6604adb8657495020","99.173.54.245","Mozilla/5.0 (X11; CrOS x86_64 14541.0.0) AppleWebKit/537.36 (KHTML, like Gecko) Chrome/129.0.0.0 Safari/537.36","WebKit","Chrome","129.0.0.0","ChromeOS","14541.0.0","https://app.prolific.com/","en-US,en;q=0.9","677a8053e35cb9c094676a79","679edb085803f58d6bbd31ca","679ee644f90c6b60a3a4cd3a","","null","<img  src='G_3.jpg' height='90'> <img id='selected'  src='G_5.jpg' height='90'> <img id='selected' src='G_1.jpg' height='90'> <img src='G_7.jpg' height='90'> <img src='G_9.jpg' height='90'>","null","Learning example 0","",""
"","","","","","html-button-response","54","139486","0.0-33.0-0.0-0.0","22","1","2025-02-02 03:28:15","bc01a2b6f61d06f6604adb8657495020","99.173.54.245","Mozilla/5.0 (X11; CrOS x86_64 14541.0.0) AppleWebKit/537.36 (KHTML, like Gecko) Chrome/129.0.0.0 Safari/537.36","WebKit","Chrome","129.0.0.0","ChromeOS","14541.0.0","https://app.prolific.com/","en-US,en;q=0.9","677a8053e35cb9c094676a79","679edb085803f58d6bbd31ca","679ee644f90c6b60a3a4cd3a","","1163","<img  src='G_3.jpg' height='90'> <img id='selected'  src='G_5.jpg' height='90'> <img id='selected' src='G_1.jpg' height='90'> <img src='G_7.jpg' height='90'> <img src='G_9.jpg' height='90'>","1","Learning example 0","",""
"","","","","","html-button-response","55","140271","0.0-33.1-0.1-0.1","22","1","2025-02-02 03:28:15","bc01a2b6f61d06f6604adb8657495020","99.173.54.245","Mozilla/5.0 (X11; CrOS x86_64 14541.0.0) AppleWebKit/537.36 (KHTML, like Gecko) Chrome/129.0.0.0 Safari/537.36","WebKit","Chrome","129.0.0.0","ChromeOS","14541.0.0","https://app.prolific.com/","en-US,en;q=0.9","677a8053e35cb9c094676a79","679edb085803f58d6bbd31ca","679ee644f90c6b60a3a4cd3a","","775","<img  src='G_3.jpg' height='90'> <img id='selected'  src='G_5.jpg' height='90'> <img id='selected' src='G_1.jpg' height='90'> <img src='G_7.jpg' height='90'> <img src='G_9.jpg' height='90'>","2","Learning example 0","",""
"","","","","","html-button-response","56","140481","0.0-34.0","22","1","2025-02-02 03:28:15","bc01a2b6f61d06f6604adb8657495020","99.173.54.245","Mozilla/5.0 (X11; CrOS x86_64 14541.0.0) AppleWebKit/537.36 (KHTML, like Gecko) Chrome/129.0.0.0 Safari/537.36","WebKit","Chrome","129.0.0.0","ChromeOS","14541.0.0","https://app.prolific.com/","en-US,en;q=0.9","677a8053e35cb9c094676a79","679edb085803f58d6bbd31ca","679ee644f90c6b60a3a4cd3a","","null","<img  src='G_3.jpg' height='90'> <img   src='G_5.jpg' height='90'> <img  src='G_1.jpg' height='90'> <img src='G_7.jpg' height='90'> <img src='G_9.jpg' height='90'>","null","Learning example 0","",""
"","","","","","html-button-response","57","140890","0.0-35.0","22","1","2025-02-02 03:28:15","bc01a2b6f61d06f6604adb8657495020","99.173.54.245","Mozilla/5.0 (X11; CrOS x86_64 14541.0.0) AppleWebKit/537.36 (KHTML, like Gecko) Chrome/129.0.0.0 Safari/537.36","WebKit","Chrome","129.0.0.0","ChromeOS","14541.0.0","https://app.prolific.com/","en-US,en;q=0.9","677a8053e35cb9c094676a79","679edb085803f58d6bbd31ca","679ee644f90c6b60a3a4cd3a","","null","<img  src='G_3.jpg' height='90'> <img   src='G_5.jpg' height='90'> <img id='selected'  src='G_1.jpg' height='90'> <img src='G_7.jpg' height='90'> <img src='G_9.jpg' height='90'>","null","Learning example 0","",""
"","","","","","html-button-response","58","141200","0.0-36.0","22","1","2025-02-02 03:28:15","bc01a2b6f61d06f6604adb8657495020","99.173.54.245","Mozilla/5.0 (X11; CrOS x86_64 14541.0.0) AppleWebKit/537.36 (KHTML, like Gecko) Chrome/129.0.0.0 Safari/537.36","WebKit","Chrome","129.0.0.0","ChromeOS","14541.0.0","https://app.prolific.com/","en-US,en;q=0.9","677a8053e35cb9c094676a79","679edb085803f58d6bbd31ca","679ee644f90c6b60a3a4cd3a","","null","<img  src='G_3.jpg' height='90'> <img   src='G_5.jpg' height='90'> <img id='selected'  src='G_1.jpg' height='90'> <img id='selected' src='G_7.jpg' height='90'> <img src='G_9.jpg' height='90'>","null","Learning example 0","",""
"","","","","","html-button-response","59","141510","0.0-37.0","22","1","2025-02-02 03:28:15","bc01a2b6f61d06f6604adb8657495020","99.173.54.245","Mozilla/5.0 (X11; CrOS x86_64 14541.0.0) AppleWebKit/537.36 (KHTML, like Gecko) Chrome/129.0.0.0 Safari/537.36","WebKit","Chrome","129.0.0.0","ChromeOS","14541.0.0","https://app.prolific.com/","en-US,en;q=0.9","677a8053e35cb9c094676a79","679edb085803f58d6bbd31ca","679ee644f90c6b60a3a4cd3a","","null","<img  src='G_3.jpg' height='90'> <img   src='G_5.jpg' height='90'> <img id='selected'  src='G_1.jpg' height='90'> <img id='selected' src='G_7.jpg' height='90'> <img src='G_9.jpg' height='90'>","null","Learning example 0","",""
"","","","","","html-button-response","60","141744","0.0-38.0-0.0-0.0","22","1","2025-02-02 03:28:15","bc01a2b6f61d06f6604adb8657495020","99.173.54.245","Mozilla/5.0 (X11; CrOS x86_64 14541.0.0) AppleWebKit/537.36 (KHTML, like Gecko) Chrome/129.0.0.0 Safari/537.36","WebKit","Chrome","129.0.0.0","ChromeOS","14541.0.0","https://app.prolific.com/","en-US,en;q=0.9","677a8053e35cb9c094676a79","679edb085803f58d6bbd31ca","679ee644f90c6b60a3a4cd3a","","223","<img  src='G_3.jpg' height='90'> <img   src='G_5.jpg' height='90'> <img id='selected'  src='G_1.jpg' height='90'> <img id='selected' src='G_7.jpg' height='90'> <img src='G_9.jpg' height='90'>","2","Learning example 0","",""
"","","","","","html-button-response","61","142448","0.0-38.1-0.1-0.1","22","1","2025-02-02 03:28:15","bc01a2b6f61d06f6604adb8657495020","99.173.54.245","Mozilla/5.0 (X11; CrOS x86_64 14541.0.0) AppleWebKit/537.36 (KHTML, like Gecko) Chrome/129.0.0.0 Safari/537.36","WebKit","Chrome","129.0.0.0","ChromeOS","14541.0.0","https://app.prolific.com/","en-US,en;q=0.9","677a8053e35cb9c094676a79","679edb085803f58d6bbd31ca","679ee644f90c6b60a3a4cd3a","","696","<img  src='G_3.jpg' height='90'> <img   src='G_5.jpg' height='90'> <img id='selected'  src='G_1.jpg' height='90'> <img id='selected' src='G_7.jpg' height='90'> <img src='G_9.jpg' height='90'>","3","Learning example 0","",""
"","","","","","html-button-response","62","142653","0.0-39.0","22","1","2025-02-02 03:28:15","bc01a2b6f61d06f6604adb8657495020","99.173.54.245","Mozilla/5.0 (X11; CrOS x86_64 14541.0.0) AppleWebKit/537.36 (KHTML, like Gecko) Chrome/129.0.0.0 Safari/537.36","WebKit","Chrome","129.0.0.0","ChromeOS","14541.0.0","https://app.prolific.com/","en-US,en;q=0.9","677a8053e35cb9c094676a79","679edb085803f58d6bbd31ca","679ee644f90c6b60a3a4cd3a","","null","<img  src='G_3.jpg' height='90'> <img   src='G_5.jpg' height='90'> <img   src='G_1.jpg' height='90'> <img  src='G_7.jpg' height='90'> <img src='G_9.jpg' height='90'>","null","Learning example 0","",""
"","","","","","html-button-response","63","143063","0.0-40.0","22","1","2025-02-02 03:28:15","bc01a2b6f61d06f6604adb8657495020","99.173.54.245","Mozilla/5.0 (X11; CrOS x86_64 14541.0.0) AppleWebKit/537.36 (KHTML, like Gecko) Chrome/129.0.0.0 Safari/537.36","WebKit","Chrome","129.0.0.0","ChromeOS","14541.0.0","https://app.prolific.com/","en-US,en;q=0.9","677a8053e35cb9c094676a79","679edb085803f58d6bbd31ca","679ee644f90c6b60a3a4cd3a","","null","<img  src='G_3.jpg' height='90'> <img   src='G_5.jpg' height='90'> <img   src='G_1.jpg' height='90'> <img id='selected'  src='G_7.jpg' height='90'> <img src='G_9.jpg' height='90'>","null","Learning example 0","",""
"","","","","","html-button-response","64","143372","0.0-41.0","22","1","2025-02-02 03:28:15","bc01a2b6f61d06f6604adb8657495020","99.173.54.245","Mozilla/5.0 (X11; CrOS x86_64 14541.0.0) AppleWebKit/537.36 (KHTML, like Gecko) Chrome/129.0.0.0 Safari/537.36","WebKit","Chrome","129.0.0.0","ChromeOS","14541.0.0","https://app.prolific.com/","en-US,en;q=0.9","677a8053e35cb9c094676a79","679edb085803f58d6bbd31ca","679ee644f90c6b60a3a4cd3a","","null","<img  src='G_3.jpg' height='90'> <img   src='G_5.jpg' height='90'> <img   src='G_1.jpg' height='90'> <img id='selected'  src='G_7.jpg' height='90'> <img id='selected' src='G_9.jpg' height='90'>","null","Learning example 0","",""
"","","","","","html-button-response","65","143683","0.0-42.0","22","1","2025-02-02 03:28:15","bc01a2b6f61d06f6604adb8657495020","99.173.54.245","Mozilla/5.0 (X11; CrOS x86_64 14541.0.0) AppleWebKit/537.36 (KHTML, like Gecko) Chrome/129.0.0.0 Safari/537.36","WebKit","Chrome","129.0.0.0","ChromeOS","14541.0.0","https://app.prolific.com/","en-US,en;q=0.9","677a8053e35cb9c094676a79","679edb085803f58d6bbd31ca","679ee644f90c6b60a3a4cd3a","","null","<img  src='G_3.jpg' height='90'> <img   src='G_5.jpg' height='90'> <img   src='G_1.jpg' height='90'> <img id='selected'  src='G_7.jpg' height='90'> <img id='selected' src='G_9.jpg' height='90'>","null","Learning example 0","",""
"","","","","","html-button-response","66","143728","0.0-43.0-0.0-0.0","22","1","2025-02-02 03:28:15","bc01a2b6f61d06f6604adb8657495020","99.173.54.245","Mozilla/5.0 (X11; CrOS x86_64 14541.0.0) AppleWebKit/537.36 (KHTML, like Gecko) Chrome/129.0.0.0 Safari/537.36","WebKit","Chrome","129.0.0.0","ChromeOS","14541.0.0","https://app.prolific.com/","en-US,en;q=0.9","677a8053e35cb9c094676a79","679edb085803f58d6bbd31ca","679ee644f90c6b60a3a4cd3a","","34","<img  src='G_3.jpg' height='90'> <img   src='G_5.jpg' height='90'> <img   src='G_1.jpg' height='90'> <img id='selected'  src='G_7.jpg' height='90'> <img id='selected' src='G_9.jpg' height='90'>","3","Learning example 0","",""
"","","","","","html-button-response","67","144418","0.0-43.1-0.1-0.1","22","1","2025-02-02 03:28:15","bc01a2b6f61d06f6604adb8657495020","99.173.54.245","Mozilla/5.0 (X11; CrOS x86_64 14541.0.0) AppleWebKit/537.36 (KHTML, like Gecko) Chrome/129.0.0.0 Safari/537.36","WebKit","Chrome","129.0.0.0","ChromeOS","14541.0.0","https://app.prolific.com/","en-US,en;q=0.9","677a8053e35cb9c094676a79","679edb085803f58d6bbd31ca","679ee644f90c6b60a3a4cd3a","","681","<img  src='G_3.jpg' height='90'> <img   src='G_5.jpg' height='90'> <img   src='G_1.jpg' height='90'> <img id='selected'  src='G_7.jpg' height='90'> <img id='selected' src='G_9.jpg' height='90'>","4","Learning example 0","",""
"","","","","","html-button-response","68","144628","0.0-44.0","22","1","2025-02-02 03:28:15","bc01a2b6f61d06f6604adb8657495020","99.173.54.245","Mozilla/5.0 (X11; CrOS x86_64 14541.0.0) AppleWebKit/537.36 (KHTML, like Gecko) Chrome/129.0.0.0 Safari/537.36","WebKit","Chrome","129.0.0.0","ChromeOS","14541.0.0","https://app.prolific.com/","en-US,en;q=0.9","677a8053e35cb9c094676a79","679edb085803f58d6bbd31ca","679ee644f90c6b60a3a4cd3a","","null","<img  src='G_3.jpg' height='90'> <img   src='G_5.jpg' height='90'> <img   src='G_1.jpg' height='90'> <img   src='G_7.jpg' height='90'> <img  src='G_9.jpg' height='90'>","null","Learning example 0","",""
"","","","","","html-keyboard-response","69","151323","0.0-45.0","22","1","2025-02-02 03:28:15","bc01a2b6f61d06f6604adb8657495020","99.173.54.245","Mozilla/5.0 (X11; CrOS x86_64 14541.0.0) AppleWebKit/537.36 (KHTML, like Gecko) Chrome/129.0.0.0 Safari/537.36","WebKit","Chrome","129.0.0.0","ChromeOS","14541.0.0","https://app.prolific.com/","en-US,en;q=0.9","677a8053e35cb9c094676a79","679edb085803f58d6bbd31ca","679ee644f90c6b60a3a4cd3a","","6689","[""Final order was 1,2,3,4,5. The initial order was 2,1,3,4,5.<br>It took 1 swaps to sort it correctly with Omgne Sort. <br><br>Press Enter to continue.""]","enter","","",""
"","","","","","html-keyboard-response","70","154324","0.0-46.0","22","1","2025-02-02 03:28:15","bc01a2b6f61d06f6604adb8657495020","99.173.54.245","Mozilla/5.0 (X11; CrOS x86_64 14541.0.0) AppleWebKit/537.36 (KHTML, like Gecko) Chrome/129.0.0.0 Safari/537.36","WebKit","Chrome","129.0.0.0","ChromeOS","14541.0.0","https://app.prolific.com/","en-US,en;q=0.9","677a8053e35cb9c094676a79","679edb085803f58d6bbd31ca","679ee644f90c6b60a3a4cd3a","","2995","[""Example 2<br><br>You will watch Omnge Sort in action. Try to identify any patterns in the comparisons made by this method. <br><br>Press Enter to continue.""]","enter","","",""
"","","","","","html-keyboard-response","71","154835","0.0-47.0","22","1","2025-02-02 03:28:15","bc01a2b6f61d06f6604adb8657495020","99.173.54.245","Mozilla/5.0 (X11; CrOS x86_64 14541.0.0) AppleWebKit/537.36 (KHTML, like Gecko) Chrome/129.0.0.0 Safari/537.36","WebKit","Chrome","129.0.0.0","ChromeOS","14541.0.0","https://app.prolific.com/","en-US,en;q=0.9","677a8053e35cb9c094676a79","679edb085803f58d6bbd31ca","679ee644f90c6b60a3a4cd3a","","null","<img id='selected' src='G_3.jpg' height='90'> <img src='G_4.jpg' height='90'> <img src='G_5.jpg' height='90'> <img src='G_8.jpg' height='90'> <img src='G_6.jpg' height='90'> <img src='G_7.jpg' height='90'> <img src='G_2.jpg' height='90'> <img src='G_1.jpg' height='90'>","null","Animation1","",""
"","","","","","html-keyboard-response","72","155343","0.0-48.0","22","1","2025-02-02 03:28:15","bc01a2b6f61d06f6604adb8657495020","99.173.54.245","Mozilla/5.0 (X11; CrOS x86_64 14541.0.0) AppleWebKit/537.36 (KHTML, like Gecko) Chrome/129.0.0.0 Safari/537.36","WebKit","Chrome","129.0.0.0","ChromeOS","14541.0.0","https://app.prolific.com/","en-US,en;q=0.9","677a8053e35cb9c094676a79","679edb085803f58d6bbd31ca","679ee644f90c6b60a3a4cd3a","","null","<img id='selected' src='G_3.jpg' height='90'> <img id='selected' src='G_4.jpg' height='90'> <img src='G_5.jpg' height='90'> <img src='G_8.jpg' height='90'> <img src='G_6.jpg' height='90'> <img src='G_7.jpg' height='90'> <img src='G_2.jpg' height='90'> <img src='G_1.jpg' height='90'>","null","Animation1","",""
"","","","","","html-keyboard-response","73","155849","0.0-49.0","22","1","2025-02-02 03:28:15","bc01a2b6f61d06f6604adb8657495020","99.173.54.245","Mozilla/5.0 (X11; CrOS x86_64 14541.0.0) AppleWebKit/537.36 (KHTML, like Gecko) Chrome/129.0.0.0 Safari/537.36","WebKit","Chrome","129.0.0.0","ChromeOS","14541.0.0","https://app.prolific.com/","en-US,en;q=0.9","677a8053e35cb9c094676a79","679edb085803f58d6bbd31ca","679ee644f90c6b60a3a4cd3a","","null","<img id='selected' src='G_3.jpg' height='90'> <img id='selected' src='G_4.jpg' height='90'> <img src='G_5.jpg' height='90'> <img src='G_8.jpg' height='90'> <img src='G_6.jpg' height='90'> <img src='G_7.jpg' height='90'> <img src='G_2.jpg' height='90'> <img src='G_1.jpg' height='90'>","null","Animation1","",""
"","","","","","html-keyboard-response","74","156160","0.0-50.0","22","1","2025-02-02 03:28:15","bc01a2b6f61d06f6604adb8657495020","99.173.54.245","Mozilla/5.0 (X11; CrOS x86_64 14541.0.0) AppleWebKit/537.36 (KHTML, like Gecko) Chrome/129.0.0.0 Safari/537.36","WebKit","Chrome","129.0.0.0","ChromeOS","14541.0.0","https://app.prolific.com/","en-US,en;q=0.9","677a8053e35cb9c094676a79","679edb085803f58d6bbd31ca","679ee644f90c6b60a3a4cd3a","","null","<img  src='G_3.jpg' height='90'> <img  src='G_4.jpg' height='90'> <img src='G_5.jpg' height='90'> <img src='G_8.jpg' height='90'> <img src='G_6.jpg' height='90'> <img src='G_7.jpg' height='90'> <img src='G_2.jpg' height='90'> <img src='G_1.jpg' height='90'>","null","Animation1","",""
"","","","","","html-keyboard-response","75","156669","0.0-51.0","22","1","2025-02-02 03:28:15","bc01a2b6f61d06f6604adb8657495020","99.173.54.245","Mozilla/5.0 (X11; CrOS x86_64 14541.0.0) AppleWebKit/537.36 (KHTML, like Gecko) Chrome/129.0.0.0 Safari/537.36","WebKit","Chrome","129.0.0.0","ChromeOS","14541.0.0","https://app.prolific.com/","en-US,en;q=0.9","677a8053e35cb9c094676a79","679edb085803f58d6bbd31ca","679ee644f90c6b60a3a4cd3a","","null","<img  src='G_3.jpg' height='90'> <img id='selected'  src='G_4.jpg' height='90'> <img src='G_5.jpg' height='90'> <img src='G_8.jpg' height='90'> <img src='G_6.jpg' height='90'> <img src='G_7.jpg' height='90'> <img src='G_2.jpg' height='90'> <img src='G_1.jpg' height='90'>","null","Animation1","",""
"","","","","","html-keyboard-response","76","157179","0.0-52.0","22","1","2025-02-02 03:28:15","bc01a2b6f61d06f6604adb8657495020","99.173.54.245","Mozilla/5.0 (X11; CrOS x86_64 14541.0.0) AppleWebKit/537.36 (KHTML, like Gecko) Chrome/129.0.0.0 Safari/537.36","WebKit","Chrome","129.0.0.0","ChromeOS","14541.0.0","https://app.prolific.com/","en-US,en;q=0.9","677a8053e35cb9c094676a79","679edb085803f58d6bbd31ca","679ee644f90c6b60a3a4cd3a","","null","<img  src='G_3.jpg' height='90'> <img id='selected'  src='G_4.jpg' height='90'> <img id='selected' src='G_5.jpg' height='90'> <img src='G_8.jpg' height='90'> <img src='G_6.jpg' height='90'> <img src='G_7.jpg' height='90'> <img src='G_2.jpg' height='90'> <img src='G_1.jpg' height='90'>","null","Animation1","",""
"","","","","","html-keyboard-response","77","157689","0.0-53.0","22","1","2025-02-02 03:28:15","bc01a2b6f61d06f6604adb8657495020","99.173.54.245","Mozilla/5.0 (X11; CrOS x86_64 14541.0.0) AppleWebKit/537.36 (KHTML, like Gecko) Chrome/129.0.0.0 Safari/537.36","WebKit","Chrome","129.0.0.0","ChromeOS","14541.0.0","https://app.prolific.com/","en-US,en;q=0.9","677a8053e35cb9c094676a79","679edb085803f58d6bbd31ca","679ee644f90c6b60a3a4cd3a","","null","<img  src='G_3.jpg' height='90'> <img id='swapped' src='G_5.jpg' height='90'> <img id='swapped'  src='G_4.jpg' height='90'> <img src='G_8.jpg' height='90'> <img src='G_6.jpg' height='90'> <img src='G_7.jpg' height='90'> <img src='G_2.jpg' height='90'> <img src='G_1.jpg' height='90'>","null","Animation1","",""
"","","","","","html-keyboard-response","78","157999","0.0-54.0","22","1","2025-02-02 03:28:15","bc01a2b6f61d06f6604adb8657495020","99.173.54.245","Mozilla/5.0 (X11; CrOS x86_64 14541.0.0) AppleWebKit/537.36 (KHTML, like Gecko) Chrome/129.0.0.0 Safari/537.36","WebKit","Chrome","129.0.0.0","ChromeOS","14541.0.0","https://app.prolific.com/","en-US,en;q=0.9","677a8053e35cb9c094676a79","679edb085803f58d6bbd31ca","679ee644f90c6b60a3a4cd3a","","null","<img  src='G_3.jpg' height='90'> <img  src='G_5.jpg' height='90'> <img   src='G_4.jpg' height='90'> <img src='G_8.jpg' height='90'> <img src='G_6.jpg' height='90'> <img src='G_7.jpg' height='90'> <img src='G_2.jpg' height='90'> <img src='G_1.jpg' height='90'>","null","Animation1","",""
"","","","","","html-keyboard-response","79","158509","0.0-55.0","22","1","2025-02-02 03:28:15","bc01a2b6f61d06f6604adb8657495020","99.173.54.245","Mozilla/5.0 (X11; CrOS x86_64 14541.0.0) AppleWebKit/537.36 (KHTML, like Gecko) Chrome/129.0.0.0 Safari/537.36","WebKit","Chrome","129.0.0.0","ChromeOS","14541.0.0","https://app.prolific.com/","en-US,en;q=0.9","677a8053e35cb9c094676a79","679edb085803f58d6bbd31ca","679ee644f90c6b60a3a4cd3a","","null","<img id='selected'  src='G_3.jpg' height='90'> <img  src='G_5.jpg' height='90'> <img   src='G_4.jpg' height='90'> <img src='G_8.jpg' height='90'> <img src='G_6.jpg' height='90'> <img src='G_7.jpg' height='90'> <img src='G_2.jpg' height='90'> <img src='G_1.jpg' height='90'>","null","Animation1","",""
"","","","","","html-keyboard-response","80","159019","0.0-56.0","22","1","2025-02-02 03:28:15","bc01a2b6f61d06f6604adb8657495020","99.173.54.245","Mozilla/5.0 (X11; CrOS x86_64 14541.0.0) AppleWebKit/537.36 (KHTML, like Gecko) Chrome/129.0.0.0 Safari/537.36","WebKit","Chrome","129.0.0.0","ChromeOS","14541.0.0","https://app.prolific.com/","en-US,en;q=0.9","677a8053e35cb9c094676a79","679edb085803f58d6bbd31ca","679ee644f90c6b60a3a4cd3a","","null","<img id='selected'  src='G_3.jpg' height='90'> <img id='selected'  src='G_5.jpg' height='90'> <img   src='G_4.jpg' height='90'> <img src='G_8.jpg' height='90'> <img src='G_6.jpg' height='90'> <img src='G_7.jpg' height='90'> <img src='G_2.jpg' height='90'> <img src='G_1.jpg' height='90'>","null","Animation1","",""
"","","","","","html-keyboard-response","81","159528","0.0-57.0","22","1","2025-02-02 03:28:15","bc01a2b6f61d06f6604adb8657495020","99.173.54.245","Mozilla/5.0 (X11; CrOS x86_64 14541.0.0) AppleWebKit/537.36 (KHTML, like Gecko) Chrome/129.0.0.0 Safari/537.36","WebKit","Chrome","129.0.0.0","ChromeOS","14541.0.0","https://app.prolific.com/","en-US,en;q=0.9","677a8053e35cb9c094676a79","679edb085803f58d6bbd31ca","679ee644f90c6b60a3a4cd3a","","null","<img id='swapped'  src='G_5.jpg' height='90'> <img id='swapped'  src='G_3.jpg' height='90'> <img   src='G_4.jpg' height='90'> <img src='G_8.jpg' height='90'> <img src='G_6.jpg' height='90'> <img src='G_7.jpg' height='90'> <img src='G_2.jpg' height='90'> <img src='G_1.jpg' height='90'>","null","Animation1","",""
"","","","","","html-keyboard-response","82","159833","0.0-58.0","22","1","2025-02-02 03:28:15","bc01a2b6f61d06f6604adb8657495020","99.173.54.245","Mozilla/5.0 (X11; CrOS x86_64 14541.0.0) AppleWebKit/537.36 (KHTML, like Gecko) Chrome/129.0.0.0 Safari/537.36","WebKit","Chrome","129.0.0.0","ChromeOS","14541.0.0","https://app.prolific.com/","en-US,en;q=0.9","677a8053e35cb9c094676a79","679edb085803f58d6bbd31ca","679ee644f90c6b60a3a4cd3a","","null","<img   src='G_5.jpg' height='90'> <img   src='G_3.jpg' height='90'> <img   src='G_4.jpg' height='90'> <img src='G_8.jpg' height='90'> <img src='G_6.jpg' height='90'> <img src='G_7.jpg' height='90'> <img src='G_2.jpg' height='90'> <img src='G_1.jpg' height='90'>","null","Animation1","",""
"","","","","","html-keyboard-response","83","160343","0.0-59.0","22","1","2025-02-02 03:28:15","bc01a2b6f61d06f6604adb8657495020","99.173.54.245","Mozilla/5.0 (X11; CrOS x86_64 14541.0.0) AppleWebKit/537.36 (KHTML, like Gecko) Chrome/129.0.0.0 Safari/537.36","WebKit","Chrome","129.0.0.0","ChromeOS","14541.0.0","https://app.prolific.com/","en-US,en;q=0.9","677a8053e35cb9c094676a79","679edb085803f58d6bbd31ca","679ee644f90c6b60a3a4cd3a","","null","<img   src='G_5.jpg' height='90'> <img   src='G_3.jpg' height='90'> <img id='selected'   src='G_4.jpg' height='90'> <img src='G_8.jpg' height='90'> <img src='G_6.jpg' height='90'> <img src='G_7.jpg' height='90'> <img src='G_2.jpg' height='90'> <img src='G_1.jpg' height='90'>","null","Animation1","",""
"","","","","","html-keyboard-response","84","160853","0.0-60.0","22","1","2025-02-02 03:28:15","bc01a2b6f61d06f6604adb8657495020","99.173.54.245","Mozilla/5.0 (X11; CrOS x86_64 14541.0.0) AppleWebKit/537.36 (KHTML, like Gecko) Chrome/129.0.0.0 Safari/537.36","WebKit","Chrome","129.0.0.0","ChromeOS","14541.0.0","https://app.prolific.com/","en-US,en;q=0.9","677a8053e35cb9c094676a79","679edb085803f58d6bbd31ca","679ee644f90c6b60a3a4cd3a","","null","<img   src='G_5.jpg' height='90'> <img   src='G_3.jpg' height='90'> <img id='selected'   src='G_4.jpg' height='90'> <img id='selected' src='G_8.jpg' height='90'> <img src='G_6.jpg' height='90'> <img src='G_7.jpg' height='90'> <img src='G_2.jpg' height='90'> <img src='G_1.jpg' height='90'>","null","Animation1","",""
"","","","","","html-keyboard-response","85","161364","0.0-61.0","22","1","2025-02-02 03:28:15","bc01a2b6f61d06f6604adb8657495020","99.173.54.245","Mozilla/5.0 (X11; CrOS x86_64 14541.0.0) AppleWebKit/537.36 (KHTML, like Gecko) Chrome/129.0.0.0 Safari/537.36","WebKit","Chrome","129.0.0.0","ChromeOS","14541.0.0","https://app.prolific.com/","en-US,en;q=0.9","677a8053e35cb9c094676a79","679edb085803f58d6bbd31ca","679ee644f90c6b60a3a4cd3a","","null","<img   src='G_5.jpg' height='90'> <img   src='G_3.jpg' height='90'> <img id='swapped' src='G_8.jpg' height='90'> <img id='swapped'   src='G_4.jpg' height='90'> <img src='G_6.jpg' height='90'> <img src='G_7.jpg' height='90'> <img src='G_2.jpg' height='90'> <img src='G_1.jpg' height='90'>","null","Animation1","",""
"","","","","","html-keyboard-response","86","161675","0.0-62.0","22","1","2025-02-02 03:28:15","bc01a2b6f61d06f6604adb8657495020","99.173.54.245","Mozilla/5.0 (X11; CrOS x86_64 14541.0.0) AppleWebKit/537.36 (KHTML, like Gecko) Chrome/129.0.0.0 Safari/537.36","WebKit","Chrome","129.0.0.0","ChromeOS","14541.0.0","https://app.prolific.com/","en-US,en;q=0.9","677a8053e35cb9c094676a79","679edb085803f58d6bbd31ca","679ee644f90c6b60a3a4cd3a","","null","<img   src='G_5.jpg' height='90'> <img   src='G_3.jpg' height='90'> <img  src='G_8.jpg' height='90'> <img    src='G_4.jpg' height='90'> <img src='G_6.jpg' height='90'> <img src='G_7.jpg' height='90'> <img src='G_2.jpg' height='90'> <img src='G_1.jpg' height='90'>","null","Animation1","",""
"","","","","","html-keyboard-response","87","162186","0.0-63.0","22","1","2025-02-02 03:28:15","bc01a2b6f61d06f6604adb8657495020","99.173.54.245","Mozilla/5.0 (X11; CrOS x86_64 14541.0.0) AppleWebKit/537.36 (KHTML, like Gecko) Chrome/129.0.0.0 Safari/537.36","WebKit","Chrome","129.0.0.0","ChromeOS","14541.0.0","https://app.prolific.com/","en-US,en;q=0.9","677a8053e35cb9c094676a79","679edb085803f58d6bbd31ca","679ee644f90c6b60a3a4cd3a","","null","<img   src='G_5.jpg' height='90'> <img id='selected'   src='G_3.jpg' height='90'> <img  src='G_8.jpg' height='90'> <img    src='G_4.jpg' height='90'> <img src='G_6.jpg' height='90'> <img src='G_7.jpg' height='90'> <img src='G_2.jpg' height='90'> <img src='G_1.jpg' height='90'>","null","Animation1","",""
"","","","","","html-keyboard-response","88","162696","0.0-64.0","22","1","2025-02-02 03:28:15","bc01a2b6f61d06f6604adb8657495020","99.173.54.245","Mozilla/5.0 (X11; CrOS x86_64 14541.0.0) AppleWebKit/537.36 (KHTML, like Gecko) Chrome/129.0.0.0 Safari/537.36","WebKit","Chrome","129.0.0.0","ChromeOS","14541.0.0","https://app.prolific.com/","en-US,en;q=0.9","677a8053e35cb9c094676a79","679edb085803f58d6bbd31ca","679ee644f90c6b60a3a4cd3a","","null","<img   src='G_5.jpg' height='90'> <img id='selected'   src='G_3.jpg' height='90'> <img id='selected'  src='G_8.jpg' height='90'> <img    src='G_4.jpg' height='90'> <img src='G_6.jpg' height='90'> <img src='G_7.jpg' height='90'> <img src='G_2.jpg' height='90'> <img src='G_1.jpg' height='90'>","null","Animation1","",""
"","","","","","html-keyboard-response","89","163208","0.0-65.0","22","1","2025-02-02 03:28:15","bc01a2b6f61d06f6604adb8657495020","99.173.54.245","Mozilla/5.0 (X11; CrOS x86_64 14541.0.0) AppleWebKit/537.36 (KHTML, like Gecko) Chrome/129.0.0.0 Safari/537.36","WebKit","Chrome","129.0.0.0","ChromeOS","14541.0.0","https://app.prolific.com/","en-US,en;q=0.9","677a8053e35cb9c094676a79","679edb085803f58d6bbd31ca","679ee644f90c6b60a3a4cd3a","","null","<img   src='G_5.jpg' height='90'> <img id='swapped'  src='G_8.jpg' height='90'> <img id='swapped'   src='G_3.jpg' height='90'> <img    src='G_4.jpg' height='90'> <img src='G_6.jpg' height='90'> <img src='G_7.jpg' height='90'> <img src='G_2.jpg' height='90'> <img src='G_1.jpg' height='90'>","null","Animation1","",""
"","","","","","html-keyboard-response","90","163518","0.0-66.0","22","1","2025-02-02 03:28:15","bc01a2b6f61d06f6604adb8657495020","99.173.54.245","Mozilla/5.0 (X11; CrOS x86_64 14541.0.0) AppleWebKit/537.36 (KHTML, like Gecko) Chrome/129.0.0.0 Safari/537.36","WebKit","Chrome","129.0.0.0","ChromeOS","14541.0.0","https://app.prolific.com/","en-US,en;q=0.9","677a8053e35cb9c094676a79","679edb085803f58d6bbd31ca","679ee644f90c6b60a3a4cd3a","","null","<img   src='G_5.jpg' height='90'> <img   src='G_8.jpg' height='90'> <img    src='G_3.jpg' height='90'> <img    src='G_4.jpg' height='90'> <img src='G_6.jpg' height='90'> <img src='G_7.jpg' height='90'> <img src='G_2.jpg' height='90'> <img src='G_1.jpg' height='90'>","null","Animation1","",""
"","","","","","html-keyboard-response","91","164030","0.0-67.0","22","1","2025-02-02 03:28:15","bc01a2b6f61d06f6604adb8657495020","99.173.54.245","Mozilla/5.0 (X11; CrOS x86_64 14541.0.0) AppleWebKit/537.36 (KHTML, like Gecko) Chrome/129.0.0.0 Safari/537.36","WebKit","Chrome","129.0.0.0","ChromeOS","14541.0.0","https://app.prolific.com/","en-US,en;q=0.9","677a8053e35cb9c094676a79","679edb085803f58d6bbd31ca","679ee644f90c6b60a3a4cd3a","","null","<img id='selected'   src='G_5.jpg' height='90'> <img   src='G_8.jpg' height='90'> <img    src='G_3.jpg' height='90'> <img    src='G_4.jpg' height='90'> <img src='G_6.jpg' height='90'> <img src='G_7.jpg' height='90'> <img src='G_2.jpg' height='90'> <img src='G_1.jpg' height='90'>","null","Animation1","",""
"","","","","","html-keyboard-response","92","164539","0.0-68.0","22","1","2025-02-02 03:28:15","bc01a2b6f61d06f6604adb8657495020","99.173.54.245","Mozilla/5.0 (X11; CrOS x86_64 14541.0.0) AppleWebKit/537.36 (KHTML, like Gecko) Chrome/129.0.0.0 Safari/537.36","WebKit","Chrome","129.0.0.0","ChromeOS","14541.0.0","https://app.prolific.com/","en-US,en;q=0.9","677a8053e35cb9c094676a79","679edb085803f58d6bbd31ca","679ee644f90c6b60a3a4cd3a","","null","<img id='selected'   src='G_5.jpg' height='90'> <img id='selected'   src='G_8.jpg' height='90'> <img    src='G_3.jpg' height='90'> <img    src='G_4.jpg' height='90'> <img src='G_6.jpg' height='90'> <img src='G_7.jpg' height='90'> <img src='G_2.jpg' height='90'> <img src='G_1.jpg' height='90'>","null","Animation1","",""
"","","","","","html-keyboard-response","93","165044","0.0-69.0","22","1","2025-02-02 03:28:15","bc01a2b6f61d06f6604adb8657495020","99.173.54.245","Mozilla/5.0 (X11; CrOS x86_64 14541.0.0) AppleWebKit/537.36 (KHTML, like Gecko) Chrome/129.0.0.0 Safari/537.36","WebKit","Chrome","129.0.0.0","ChromeOS","14541.0.0","https://app.prolific.com/","en-US,en;q=0.9","677a8053e35cb9c094676a79","679edb085803f58d6bbd31ca","679ee644f90c6b60a3a4cd3a","","null","<img id='swapped'   src='G_8.jpg' height='90'> <img id='swapped'   src='G_5.jpg' height='90'> <img    src='G_3.jpg' height='90'> <img    src='G_4.jpg' height='90'> <img src='G_6.jpg' height='90'> <img src='G_7.jpg' height='90'> <img src='G_2.jpg' height='90'> <img src='G_1.jpg' height='90'>","null","Animation1","",""
"","","","","","html-keyboard-response","94","165355","0.0-70.0","22","1","2025-02-02 03:28:15","bc01a2b6f61d06f6604adb8657495020","99.173.54.245","Mozilla/5.0 (X11; CrOS x86_64 14541.0.0) AppleWebKit/537.36 (KHTML, like Gecko) Chrome/129.0.0.0 Safari/537.36","WebKit","Chrome","129.0.0.0","ChromeOS","14541.0.0","https://app.prolific.com/","en-US,en;q=0.9","677a8053e35cb9c094676a79","679edb085803f58d6bbd31ca","679ee644f90c6b60a3a4cd3a","","null","<img    src='G_8.jpg' height='90'> <img    src='G_5.jpg' height='90'> <img    src='G_3.jpg' height='90'> <img    src='G_4.jpg' height='90'> <img src='G_6.jpg' height='90'> <img src='G_7.jpg' height='90'> <img src='G_2.jpg' height='90'> <img src='G_1.jpg' height='90'>","null","Animation1","",""
"","","","","","html-keyboard-response","95","165867","0.0-71.0","22","1","2025-02-02 03:28:15","bc01a2b6f61d06f6604adb8657495020","99.173.54.245","Mozilla/5.0 (X11; CrOS x86_64 14541.0.0) AppleWebKit/537.36 (KHTML, like Gecko) Chrome/129.0.0.0 Safari/537.36","WebKit","Chrome","129.0.0.0","ChromeOS","14541.0.0","https://app.prolific.com/","en-US,en;q=0.9","677a8053e35cb9c094676a79","679edb085803f58d6bbd31ca","679ee644f90c6b60a3a4cd3a","","null","<img    src='G_8.jpg' height='90'> <img    src='G_5.jpg' height='90'> <img    src='G_3.jpg' height='90'> <img id='selected'    src='G_4.jpg' height='90'> <img src='G_6.jpg' height='90'> <img src='G_7.jpg' height='90'> <img src='G_2.jpg' height='90'> <img src='G_1.jpg' height='90'>","null","Animation1","",""
"","","","","","html-keyboard-response","96","166378","0.0-72.0","22","1","2025-02-02 03:28:15","bc01a2b6f61d06f6604adb8657495020","99.173.54.245","Mozilla/5.0 (X11; CrOS x86_64 14541.0.0) AppleWebKit/537.36 (KHTML, like Gecko) Chrome/129.0.0.0 Safari/537.36","WebKit","Chrome","129.0.0.0","ChromeOS","14541.0.0","https://app.prolific.com/","en-US,en;q=0.9","677a8053e35cb9c094676a79","679edb085803f58d6bbd31ca","679ee644f90c6b60a3a4cd3a","","null","<img    src='G_8.jpg' height='90'> <img    src='G_5.jpg' height='90'> <img    src='G_3.jpg' height='90'> <img id='selected'    src='G_4.jpg' height='90'> <img id='selected' src='G_6.jpg' height='90'> <img src='G_7.jpg' height='90'> <img src='G_2.jpg' height='90'> <img src='G_1.jpg' height='90'>","null","Animation1","",""
"","","","","","html-keyboard-response","97","166891","0.0-73.0","22","1","2025-02-02 03:28:15","bc01a2b6f61d06f6604adb8657495020","99.173.54.245","Mozilla/5.0 (X11; CrOS x86_64 14541.0.0) AppleWebKit/537.36 (KHTML, like Gecko) Chrome/129.0.0.0 Safari/537.36","WebKit","Chrome","129.0.0.0","ChromeOS","14541.0.0","https://app.prolific.com/","en-US,en;q=0.9","677a8053e35cb9c094676a79","679edb085803f58d6bbd31ca","679ee644f90c6b60a3a4cd3a","","null","<img    src='G_8.jpg' height='90'> <img    src='G_5.jpg' height='90'> <img    src='G_3.jpg' height='90'> <img id='swapped' src='G_6.jpg' height='90'> <img id='swapped'    src='G_4.jpg' height='90'> <img src='G_7.jpg' height='90'> <img src='G_2.jpg' height='90'> <img src='G_1.jpg' height='90'>","null","Animation1","",""
"","","","","","html-keyboard-response","98","167203","0.0-74.0","22","1","2025-02-02 03:28:15","bc01a2b6f61d06f6604adb8657495020","99.173.54.245","Mozilla/5.0 (X11; CrOS x86_64 14541.0.0) AppleWebKit/537.36 (KHTML, like Gecko) Chrome/129.0.0.0 Safari/537.36","WebKit","Chrome","129.0.0.0","ChromeOS","14541.0.0","https://app.prolific.com/","en-US,en;q=0.9","677a8053e35cb9c094676a79","679edb085803f58d6bbd31ca","679ee644f90c6b60a3a4cd3a","","null","<img    src='G_8.jpg' height='90'> <img    src='G_5.jpg' height='90'> <img    src='G_3.jpg' height='90'> <img  src='G_6.jpg' height='90'> <img     src='G_4.jpg' height='90'> <img src='G_7.jpg' height='90'> <img src='G_2.jpg' height='90'> <img src='G_1.jpg' height='90'>","null","Animation1","",""
"","","","","","html-keyboard-response","99","167717","0.0-75.0","22","1","2025-02-02 03:28:15","bc01a2b6f61d06f6604adb8657495020","99.173.54.245","Mozilla/5.0 (X11; CrOS x86_64 14541.0.0) AppleWebKit/537.36 (KHTML, like Gecko) Chrome/129.0.0.0 Safari/537.36","WebKit","Chrome","129.0.0.0","ChromeOS","14541.0.0","https://app.prolific.com/","en-US,en;q=0.9","677a8053e35cb9c094676a79","679edb085803f58d6bbd31ca","679ee644f90c6b60a3a4cd3a","","null","<img    src='G_8.jpg' height='90'> <img    src='G_5.jpg' height='90'> <img id='selected'    src='G_3.jpg' height='90'> <img  src='G_6.jpg' height='90'> <img     src='G_4.jpg' height='90'> <img src='G_7.jpg' height='90'> <img src='G_2.jpg' height='90'> <img src='G_1.jpg' height='90'>","null","Animation1","",""
"","","","","","html-keyboard-response","100","168231","0.0-76.0","22","1","2025-02-02 03:28:15","bc01a2b6f61d06f6604adb8657495020","99.173.54.245","Mozilla/5.0 (X11; CrOS x86_64 14541.0.0) AppleWebKit/537.36 (KHTML, like Gecko) Chrome/129.0.0.0 Safari/537.36","WebKit","Chrome","129.0.0.0","ChromeOS","14541.0.0","https://app.prolific.com/","en-US,en;q=0.9","677a8053e35cb9c094676a79","679edb085803f58d6bbd31ca","679ee644f90c6b60a3a4cd3a","","null","<img    src='G_8.jpg' height='90'> <img    src='G_5.jpg' height='90'> <img id='selected'    src='G_3.jpg' height='90'> <img id='selected'  src='G_6.jpg' height='90'> <img     src='G_4.jpg' height='90'> <img src='G_7.jpg' height='90'> <img src='G_2.jpg' height='90'> <img src='G_1.jpg' height='90'>","null","Animation1","",""
"","","","","","html-keyboard-response","101","168737","0.0-77.0","22","1","2025-02-02 03:28:15","bc01a2b6f61d06f6604adb8657495020","99.173.54.245","Mozilla/5.0 (X11; CrOS x86_64 14541.0.0) AppleWebKit/537.36 (KHTML, like Gecko) Chrome/129.0.0.0 Safari/537.36","WebKit","Chrome","129.0.0.0","ChromeOS","14541.0.0","https://app.prolific.com/","en-US,en;q=0.9","677a8053e35cb9c094676a79","679edb085803f58d6bbd31ca","679ee644f90c6b60a3a4cd3a","","null","<img    src='G_8.jpg' height='90'> <img    src='G_5.jpg' height='90'> <img id='swapped'  src='G_6.jpg' height='90'> <img id='swapped'    src='G_3.jpg' height='90'> <img     src='G_4.jpg' height='90'> <img src='G_7.jpg' height='90'> <img src='G_2.jpg' height='90'> <img src='G_1.jpg' height='90'>","null","Animation1","",""
"","","","","","html-keyboard-response","102","169049","0.0-78.0","22","1","2025-02-02 03:28:15","bc01a2b6f61d06f6604adb8657495020","99.173.54.245","Mozilla/5.0 (X11; CrOS x86_64 14541.0.0) AppleWebKit/537.36 (KHTML, like Gecko) Chrome/129.0.0.0 Safari/537.36","WebKit","Chrome","129.0.0.0","ChromeOS","14541.0.0","https://app.prolific.com/","en-US,en;q=0.9","677a8053e35cb9c094676a79","679edb085803f58d6bbd31ca","679ee644f90c6b60a3a4cd3a","","null","<img    src='G_8.jpg' height='90'> <img    src='G_5.jpg' height='90'> <img   src='G_6.jpg' height='90'> <img     src='G_3.jpg' height='90'> <img     src='G_4.jpg' height='90'> <img src='G_7.jpg' height='90'> <img src='G_2.jpg' height='90'> <img src='G_1.jpg' height='90'>","null","Animation1","",""
"","","","","","html-keyboard-response","103","169560","0.0-79.0","22","1","2025-02-02 03:28:15","bc01a2b6f61d06f6604adb8657495020","99.173.54.245","Mozilla/5.0 (X11; CrOS x86_64 14541.0.0) AppleWebKit/537.36 (KHTML, like Gecko) Chrome/129.0.0.0 Safari/537.36","WebKit","Chrome","129.0.0.0","ChromeOS","14541.0.0","https://app.prolific.com/","en-US,en;q=0.9","677a8053e35cb9c094676a79","679edb085803f58d6bbd31ca","679ee644f90c6b60a3a4cd3a","","null","<img    src='G_8.jpg' height='90'> <img id='selected'    src='G_5.jpg' height='90'> <img   src='G_6.jpg' height='90'> <img     src='G_3.jpg' height='90'> <img     src='G_4.jpg' height='90'> <img src='G_7.jpg' height='90'> <img src='G_2.jpg' height='90'> <img src='G_1.jpg' height='90'>","null","Animation1","",""
"","","","","","html-keyboard-response","104","170072","0.0-80.0","22","1","2025-02-02 03:28:15","bc01a2b6f61d06f6604adb8657495020","99.173.54.245","Mozilla/5.0 (X11; CrOS x86_64 14541.0.0) AppleWebKit/537.36 (KHTML, like Gecko) Chrome/129.0.0.0 Safari/537.36","WebKit","Chrome","129.0.0.0","ChromeOS","14541.0.0","https://app.prolific.com/","en-US,en;q=0.9","677a8053e35cb9c094676a79","679edb085803f58d6bbd31ca","679ee644f90c6b60a3a4cd3a","","null","<img    src='G_8.jpg' height='90'> <img id='selected'    src='G_5.jpg' height='90'> <img id='selected'   src='G_6.jpg' height='90'> <img     src='G_3.jpg' height='90'> <img     src='G_4.jpg' height='90'> <img src='G_7.jpg' height='90'> <img src='G_2.jpg' height='90'> <img src='G_1.jpg' height='90'>","null","Animation1","",""
"","","","","","html-keyboard-response","105","170583","0.0-81.0","22","1","2025-02-02 03:28:15","bc01a2b6f61d06f6604adb8657495020","99.173.54.245","Mozilla/5.0 (X11; CrOS x86_64 14541.0.0) AppleWebKit/537.36 (KHTML, like Gecko) Chrome/129.0.0.0 Safari/537.36","WebKit","Chrome","129.0.0.0","ChromeOS","14541.0.0","https://app.prolific.com/","en-US,en;q=0.9","677a8053e35cb9c094676a79","679edb085803f58d6bbd31ca","679ee644f90c6b60a3a4cd3a","","null","<img    src='G_8.jpg' height='90'> <img id='swapped'   src='G_6.jpg' height='90'> <img id='swapped'    src='G_5.jpg' height='90'> <img     src='G_3.jpg' height='90'> <img     src='G_4.jpg' height='90'> <img src='G_7.jpg' height='90'> <img src='G_2.jpg' height='90'> <img src='G_1.jpg' height='90'>","null","Animation1","",""
"","","","","","html-keyboard-response","106","170894","0.0-82.0","22","1","2025-02-02 03:28:15","bc01a2b6f61d06f6604adb8657495020","99.173.54.245","Mozilla/5.0 (X11; CrOS x86_64 14541.0.0) AppleWebKit/537.36 (KHTML, like Gecko) Chrome/129.0.0.0 Safari/537.36","WebKit","Chrome","129.0.0.0","ChromeOS","14541.0.0","https://app.prolific.com/","en-US,en;q=0.9","677a8053e35cb9c094676a79","679edb085803f58d6bbd31ca","679ee644f90c6b60a3a4cd3a","","null","<img    src='G_8.jpg' height='90'> <img    src='G_6.jpg' height='90'> <img     src='G_5.jpg' height='90'> <img     src='G_3.jpg' height='90'> <img     src='G_4.jpg' height='90'> <img src='G_7.jpg' height='90'> <img src='G_2.jpg' height='90'> <img src='G_1.jpg' height='90'>","null","Animation1","",""
"","","","","","html-keyboard-response","107","171406","0.0-83.0","22","1","2025-02-02 03:28:15","bc01a2b6f61d06f6604adb8657495020","99.173.54.245","Mozilla/5.0 (X11; CrOS x86_64 14541.0.0) AppleWebKit/537.36 (KHTML, like Gecko) Chrome/129.0.0.0 Safari/537.36","WebKit","Chrome","129.0.0.0","ChromeOS","14541.0.0","https://app.prolific.com/","en-US,en;q=0.9","677a8053e35cb9c094676a79","679edb085803f58d6bbd31ca","679ee644f90c6b60a3a4cd3a","","null","<img id='selected'    src='G_8.jpg' height='90'> <img    src='G_6.jpg' height='90'> <img     src='G_5.jpg' height='90'> <img     src='G_3.jpg' height='90'> <img     src='G_4.jpg' height='90'> <img src='G_7.jpg' height='90'> <img src='G_2.jpg' height='90'> <img src='G_1.jpg' height='90'>","null","Animation1","",""
"","","","","","html-keyboard-response","108","171912","0.0-84.0","22","1","2025-02-02 03:28:15","bc01a2b6f61d06f6604adb8657495020","99.173.54.245","Mozilla/5.0 (X11; CrOS x86_64 14541.0.0) AppleWebKit/537.36 (KHTML, like Gecko) Chrome/129.0.0.0 Safari/537.36","WebKit","Chrome","129.0.0.0","ChromeOS","14541.0.0","https://app.prolific.com/","en-US,en;q=0.9","677a8053e35cb9c094676a79","679edb085803f58d6bbd31ca","679ee644f90c6b60a3a4cd3a","","null","<img id='selected'    src='G_8.jpg' height='90'> <img id='selected'    src='G_6.jpg' height='90'> <img     src='G_5.jpg' height='90'> <img     src='G_3.jpg' height='90'> <img     src='G_4.jpg' height='90'> <img src='G_7.jpg' height='90'> <img src='G_2.jpg' height='90'> <img src='G_1.jpg' height='90'>","null","Animation1","",""
"","","","","","html-keyboard-response","109","172424","0.0-85.0","22","1","2025-02-02 03:28:15","bc01a2b6f61d06f6604adb8657495020","99.173.54.245","Mozilla/5.0 (X11; CrOS x86_64 14541.0.0) AppleWebKit/537.36 (KHTML, like Gecko) Chrome/129.0.0.0 Safari/537.36","WebKit","Chrome","129.0.0.0","ChromeOS","14541.0.0","https://app.prolific.com/","en-US,en;q=0.9","677a8053e35cb9c094676a79","679edb085803f58d6bbd31ca","679ee644f90c6b60a3a4cd3a","","null","<img id='selected'    src='G_8.jpg' height='90'> <img id='selected'    src='G_6.jpg' height='90'> <img     src='G_5.jpg' height='90'> <img     src='G_3.jpg' height='90'> <img     src='G_4.jpg' height='90'> <img src='G_7.jpg' height='90'> <img src='G_2.jpg' height='90'> <img src='G_1.jpg' height='90'>","null","Animation1","",""
"","","","","","html-keyboard-response","110","172730","0.0-86.0","22","1","2025-02-02 03:28:15","bc01a2b6f61d06f6604adb8657495020","99.173.54.245","Mozilla/5.0 (X11; CrOS x86_64 14541.0.0) AppleWebKit/537.36 (KHTML, like Gecko) Chrome/129.0.0.0 Safari/537.36","WebKit","Chrome","129.0.0.0","ChromeOS","14541.0.0","https://app.prolific.com/","en-US,en;q=0.9","677a8053e35cb9c094676a79","679edb085803f58d6bbd31ca","679ee644f90c6b60a3a4cd3a","","null","<img     src='G_8.jpg' height='90'> <img     src='G_6.jpg' height='90'> <img     src='G_5.jpg' height='90'> <img     src='G_3.jpg' height='90'> <img     src='G_4.jpg' height='90'> <img src='G_7.jpg' height='90'> <img src='G_2.jpg' height='90'> <img src='G_1.jpg' height='90'>","null","Animation1","",""
"","","","","","html-keyboard-response","111","173244","0.0-87.0","22","1","2025-02-02 03:28:15","bc01a2b6f61d06f6604adb8657495020","99.173.54.245","Mozilla/5.0 (X11; CrOS x86_64 14541.0.0) AppleWebKit/537.36 (KHTML, like Gecko) Chrome/129.0.0.0 Safari/537.36","WebKit","Chrome","129.0.0.0","ChromeOS","14541.0.0","https://app.prolific.com/","en-US,en;q=0.9","677a8053e35cb9c094676a79","679edb085803f58d6bbd31ca","679ee644f90c6b60a3a4cd3a","","null","<img     src='G_8.jpg' height='90'> <img     src='G_6.jpg' height='90'> <img     src='G_5.jpg' height='90'> <img     src='G_3.jpg' height='90'> <img id='selected'     src='G_4.jpg' height='90'> <img src='G_7.jpg' height='90'> <img src='G_2.jpg' height='90'> <img src='G_1.jpg' height='90'>","null","Animation1","",""
"","","","","","html-keyboard-response","112","173755","0.0-88.0","22","1","2025-02-02 03:28:15","bc01a2b6f61d06f6604adb8657495020","99.173.54.245","Mozilla/5.0 (X11; CrOS x86_64 14541.0.0) AppleWebKit/537.36 (KHTML, like Gecko) Chrome/129.0.0.0 Safari/537.36","WebKit","Chrome","129.0.0.0","ChromeOS","14541.0.0","https://app.prolific.com/","en-US,en;q=0.9","677a8053e35cb9c094676a79","679edb085803f58d6bbd31ca","679ee644f90c6b60a3a4cd3a","","null","<img     src='G_8.jpg' height='90'> <img     src='G_6.jpg' height='90'> <img     src='G_5.jpg' height='90'> <img     src='G_3.jpg' height='90'> <img id='selected'     src='G_4.jpg' height='90'> <img id='selected' src='G_7.jpg' height='90'> <img src='G_2.jpg' height='90'> <img src='G_1.jpg' height='90'>","null","Animation1","",""
"","","","","","html-keyboard-response","113","174268","0.0-89.0","22","1","2025-02-02 03:28:15","bc01a2b6f61d06f6604adb8657495020","99.173.54.245","Mozilla/5.0 (X11; CrOS x86_64 14541.0.0) AppleWebKit/537.36 (KHTML, like Gecko) Chrome/129.0.0.0 Safari/537.36","WebKit","Chrome","129.0.0.0","ChromeOS","14541.0.0","https://app.prolific.com/","en-US,en;q=0.9","677a8053e35cb9c094676a79","679edb085803f58d6bbd31ca","679ee644f90c6b60a3a4cd3a","","null","<img     src='G_8.jpg' height='90'> <img     src='G_6.jpg' height='90'> <img     src='G_5.jpg' height='90'> <img     src='G_3.jpg' height='90'> <img id='swapped' src='G_7.jpg' height='90'> <img id='swapped'     src='G_4.jpg' height='90'> <img src='G_2.jpg' height='90'> <img src='G_1.jpg' height='90'>","null","Animation1","",""
"","","","","","html-keyboard-response","114","174581","0.0-90.0","22","1","2025-02-02 03:28:15","bc01a2b6f61d06f6604adb8657495020","99.173.54.245","Mozilla/5.0 (X11; CrOS x86_64 14541.0.0) AppleWebKit/537.36 (KHTML, like Gecko) Chrome/129.0.0.0 Safari/537.36","WebKit","Chrome","129.0.0.0","ChromeOS","14541.0.0","https://app.prolific.com/","en-US,en;q=0.9","677a8053e35cb9c094676a79","679edb085803f58d6bbd31ca","679ee644f90c6b60a3a4cd3a","","null","<img     src='G_8.jpg' height='90'> <img     src='G_6.jpg' height='90'> <img     src='G_5.jpg' height='90'> <img     src='G_3.jpg' height='90'> <img  src='G_7.jpg' height='90'> <img      src='G_4.jpg' height='90'> <img src='G_2.jpg' height='90'> <img src='G_1.jpg' height='90'>","null","Animation1","",""
"","","","","","html-keyboard-response","115","175095","0.0-91.0","22","1","2025-02-02 03:28:15","bc01a2b6f61d06f6604adb8657495020","99.173.54.245","Mozilla/5.0 (X11; CrOS x86_64 14541.0.0) AppleWebKit/537.36 (KHTML, like Gecko) Chrome/129.0.0.0 Safari/537.36","WebKit","Chrome","129.0.0.0","ChromeOS","14541.0.0","https://app.prolific.com/","en-US,en;q=0.9","677a8053e35cb9c094676a79","679edb085803f58d6bbd31ca","679ee644f90c6b60a3a4cd3a","","null","<img     src='G_8.jpg' height='90'> <img     src='G_6.jpg' height='90'> <img     src='G_5.jpg' height='90'> <img id='selected'     src='G_3.jpg' height='90'> <img  src='G_7.jpg' height='90'> <img      src='G_4.jpg' height='90'> <img src='G_2.jpg' height='90'> <img src='G_1.jpg' height='90'>","null","Animation1","",""
"","","","","","html-keyboard-response","116","175607","0.0-92.0","22","1","2025-02-02 03:28:15","bc01a2b6f61d06f6604adb8657495020","99.173.54.245","Mozilla/5.0 (X11; CrOS x86_64 14541.0.0) AppleWebKit/537.36 (KHTML, like Gecko) Chrome/129.0.0.0 Safari/537.36","WebKit","Chrome","129.0.0.0","ChromeOS","14541.0.0","https://app.prolific.com/","en-US,en;q=0.9","677a8053e35cb9c094676a79","679edb085803f58d6bbd31ca","679ee644f90c6b60a3a4cd3a","","null","<img     src='G_8.jpg' height='90'> <img     src='G_6.jpg' height='90'> <img     src='G_5.jpg' height='90'> <img id='selected'     src='G_3.jpg' height='90'> <img id='selected'  src='G_7.jpg' height='90'> <img      src='G_4.jpg' height='90'> <img src='G_2.jpg' height='90'> <img src='G_1.jpg' height='90'>","null","Animation1","",""
"","","","","","html-keyboard-response","117","176119","0.0-93.0","22","1","2025-02-02 03:28:15","bc01a2b6f61d06f6604adb8657495020","99.173.54.245","Mozilla/5.0 (X11; CrOS x86_64 14541.0.0) AppleWebKit/537.36 (KHTML, like Gecko) Chrome/129.0.0.0 Safari/537.36","WebKit","Chrome","129.0.0.0","ChromeOS","14541.0.0","https://app.prolific.com/","en-US,en;q=0.9","677a8053e35cb9c094676a79","679edb085803f58d6bbd31ca","679ee644f90c6b60a3a4cd3a","","null","<img     src='G_8.jpg' height='90'> <img     src='G_6.jpg' height='90'> <img     src='G_5.jpg' height='90'> <img id='selected'     src='G_3.jpg' height='90'> <img id='selected'  src='G_7.jpg' height='90'> <img      src='G_4.jpg' height='90'> <img src='G_2.jpg' height='90'> <img src='G_1.jpg' height='90'>","null","Animation1","",""
"","","","","","html-keyboard-response","118","176430","0.0-94.0","22","1","2025-02-02 03:28:15","bc01a2b6f61d06f6604adb8657495020","99.173.54.245","Mozilla/5.0 (X11; CrOS x86_64 14541.0.0) AppleWebKit/537.36 (KHTML, like Gecko) Chrome/129.0.0.0 Safari/537.36","WebKit","Chrome","129.0.0.0","ChromeOS","14541.0.0","https://app.prolific.com/","en-US,en;q=0.9","677a8053e35cb9c094676a79","679edb085803f58d6bbd31ca","679ee644f90c6b60a3a4cd3a","","null","<img     src='G_8.jpg' height='90'> <img     src='G_6.jpg' height='90'> <img     src='G_5.jpg' height='90'> <img      src='G_3.jpg' height='90'> <img   src='G_7.jpg' height='90'> <img      src='G_4.jpg' height='90'> <img src='G_2.jpg' height='90'> <img src='G_1.jpg' height='90'>","null","Animation1","",""
"","","","","","html-keyboard-response","119","176941","0.0-95.0","22","1","2025-02-02 03:28:15","bc01a2b6f61d06f6604adb8657495020","99.173.54.245","Mozilla/5.0 (X11; CrOS x86_64 14541.0.0) AppleWebKit/537.36 (KHTML, like Gecko) Chrome/129.0.0.0 Safari/537.36","WebKit","Chrome","129.0.0.0","ChromeOS","14541.0.0","https://app.prolific.com/","en-US,en;q=0.9","677a8053e35cb9c094676a79","679edb085803f58d6bbd31ca","679ee644f90c6b60a3a4cd3a","","null","<img     src='G_8.jpg' height='90'> <img     src='G_6.jpg' height='90'> <img     src='G_5.jpg' height='90'> <img      src='G_3.jpg' height='90'> <img   src='G_7.jpg' height='90'> <img id='selected'      src='G_4.jpg' height='90'> <img src='G_2.jpg' height='90'> <img src='G_1.jpg' height='90'>","null","Animation1","",""
"","","","","","html-keyboard-response","120","177455","0.0-96.0","22","1","2025-02-02 03:28:15","bc01a2b6f61d06f6604adb8657495020","99.173.54.245","Mozilla/5.0 (X11; CrOS x86_64 14541.0.0) AppleWebKit/537.36 (KHTML, like Gecko) Chrome/129.0.0.0 Safari/537.36","WebKit","Chrome","129.0.0.0","ChromeOS","14541.0.0","https://app.prolific.com/","en-US,en;q=0.9","677a8053e35cb9c094676a79","679edb085803f58d6bbd31ca","679ee644f90c6b60a3a4cd3a","","null","<img     src='G_8.jpg' height='90'> <img     src='G_6.jpg' height='90'> <img     src='G_5.jpg' height='90'> <img      src='G_3.jpg' height='90'> <img   src='G_7.jpg' height='90'> <img id='selected'      src='G_4.jpg' height='90'> <img id='selected' src='G_2.jpg' height='90'> <img src='G_1.jpg' height='90'>","null","Animation1","",""
"","","","","","html-keyboard-response","121","177968","0.0-97.0","22","1","2025-02-02 03:28:15","bc01a2b6f61d06f6604adb8657495020","99.173.54.245","Mozilla/5.0 (X11; CrOS x86_64 14541.0.0) AppleWebKit/537.36 (KHTML, like Gecko) Chrome/129.0.0.0 Safari/537.36","WebKit","Chrome","129.0.0.0","ChromeOS","14541.0.0","https://app.prolific.com/","en-US,en;q=0.9","677a8053e35cb9c094676a79","679edb085803f58d6bbd31ca","679ee644f90c6b60a3a4cd3a","","null","<img     src='G_8.jpg' height='90'> <img     src='G_6.jpg' height='90'> <img     src='G_5.jpg' height='90'> <img      src='G_3.jpg' height='90'> <img   src='G_7.jpg' height='90'> <img id='selected'      src='G_4.jpg' height='90'> <img id='selected' src='G_2.jpg' height='90'> <img src='G_1.jpg' height='90'>","null","Animation1","",""
"","","","","","html-keyboard-response","122","178281","0.0-98.0","22","1","2025-02-02 03:28:15","bc01a2b6f61d06f6604adb8657495020","99.173.54.245","Mozilla/5.0 (X11; CrOS x86_64 14541.0.0) AppleWebKit/537.36 (KHTML, like Gecko) Chrome/129.0.0.0 Safari/537.36","WebKit","Chrome","129.0.0.0","ChromeOS","14541.0.0","https://app.prolific.com/","en-US,en;q=0.9","677a8053e35cb9c094676a79","679edb085803f58d6bbd31ca","679ee644f90c6b60a3a4cd3a","","null","<img     src='G_8.jpg' height='90'> <img     src='G_6.jpg' height='90'> <img     src='G_5.jpg' height='90'> <img      src='G_3.jpg' height='90'> <img   src='G_7.jpg' height='90'> <img       src='G_4.jpg' height='90'> <img  src='G_2.jpg' height='90'> <img src='G_1.jpg' height='90'>","null","Animation1","",""
"","","","","","html-keyboard-response","123","178795","0.0-99.0","22","1","2025-02-02 03:28:15","bc01a2b6f61d06f6604adb8657495020","99.173.54.245","Mozilla/5.0 (X11; CrOS x86_64 14541.0.0) AppleWebKit/537.36 (KHTML, like Gecko) Chrome/129.0.0.0 Safari/537.36","WebKit","Chrome","129.0.0.0","ChromeOS","14541.0.0","https://app.prolific.com/","en-US,en;q=0.9","677a8053e35cb9c094676a79","679edb085803f58d6bbd31ca","679ee644f90c6b60a3a4cd3a","","null","<img     src='G_8.jpg' height='90'> <img     src='G_6.jpg' height='90'> <img     src='G_5.jpg' height='90'> <img      src='G_3.jpg' height='90'> <img   src='G_7.jpg' height='90'> <img       src='G_4.jpg' height='90'> <img id='selected'  src='G_2.jpg' height='90'> <img src='G_1.jpg' height='90'>","null","Animation1","",""
"","","","","","html-keyboard-response","124","179309","0.0-100.0","22","1","2025-02-02 03:28:15","bc01a2b6f61d06f6604adb8657495020","99.173.54.245","Mozilla/5.0 (X11; CrOS x86_64 14541.0.0) AppleWebKit/537.36 (KHTML, like Gecko) Chrome/129.0.0.0 Safari/537.36","WebKit","Chrome","129.0.0.0","ChromeOS","14541.0.0","https://app.prolific.com/","en-US,en;q=0.9","677a8053e35cb9c094676a79","679edb085803f58d6bbd31ca","679ee644f90c6b60a3a4cd3a","","null","<img     src='G_8.jpg' height='90'> <img     src='G_6.jpg' height='90'> <img     src='G_5.jpg' height='90'> <img      src='G_3.jpg' height='90'> <img   src='G_7.jpg' height='90'> <img       src='G_4.jpg' height='90'> <img id='selected'  src='G_2.jpg' height='90'> <img id='selected' src='G_1.jpg' height='90'>","null","Animation1","",""
"","","","","","html-keyboard-response","125","179821","0.0-101.0","22","1","2025-02-02 03:28:15","bc01a2b6f61d06f6604adb8657495020","99.173.54.245","Mozilla/5.0 (X11; CrOS x86_64 14541.0.0) AppleWebKit/537.36 (KHTML, like Gecko) Chrome/129.0.0.0 Safari/537.36","WebKit","Chrome","129.0.0.0","ChromeOS","14541.0.0","https://app.prolific.com/","en-US,en;q=0.9","677a8053e35cb9c094676a79","679edb085803f58d6bbd31ca","679ee644f90c6b60a3a4cd3a","","null","<img     src='G_8.jpg' height='90'> <img     src='G_6.jpg' height='90'> <img     src='G_5.jpg' height='90'> <img      src='G_3.jpg' height='90'> <img   src='G_7.jpg' height='90'> <img       src='G_4.jpg' height='90'> <img id='swapped' src='G_1.jpg' height='90'> <img id='swapped'  src='G_2.jpg' height='90'>","null","Animation1","",""
"","","","","","html-keyboard-response","126","180132","0.0-102.0","22","1","2025-02-02 03:28:15","bc01a2b6f61d06f6604adb8657495020","99.173.54.245","Mozilla/5.0 (X11; CrOS x86_64 14541.0.0) AppleWebKit/537.36 (KHTML, like Gecko) Chrome/129.0.0.0 Safari/537.36","WebKit","Chrome","129.0.0.0","ChromeOS","14541.0.0","https://app.prolific.com/","en-US,en;q=0.9","677a8053e35cb9c094676a79","679edb085803f58d6bbd31ca","679ee644f90c6b60a3a4cd3a","","null","<img     src='G_8.jpg' height='90'> <img     src='G_6.jpg' height='90'> <img     src='G_5.jpg' height='90'> <img      src='G_3.jpg' height='90'> <img   src='G_7.jpg' height='90'> <img       src='G_4.jpg' height='90'> <img  src='G_1.jpg' height='90'> <img   src='G_2.jpg' height='90'>","null","Animation1","",""
"","","","","","html-keyboard-response","127","180645","0.0-103.0","22","1","2025-02-02 03:28:15","bc01a2b6f61d06f6604adb8657495020","99.173.54.245","Mozilla/5.0 (X11; CrOS x86_64 14541.0.0) AppleWebKit/537.36 (KHTML, like Gecko) Chrome/129.0.0.0 Safari/537.36","WebKit","Chrome","129.0.0.0","ChromeOS","14541.0.0","https://app.prolific.com/","en-US,en;q=0.9","677a8053e35cb9c094676a79","679edb085803f58d6bbd31ca","679ee644f90c6b60a3a4cd3a","","null","<img     src='G_8.jpg' height='90'> <img     src='G_6.jpg' height='90'> <img     src='G_5.jpg' height='90'> <img      src='G_3.jpg' height='90'> <img   src='G_7.jpg' height='90'> <img id='selected'       src='G_4.jpg' height='90'> <img  src='G_1.jpg' height='90'> <img   src='G_2.jpg' height='90'>","null","Animation1","",""
"","","","","","html-keyboard-response","128","181156","0.0-104.0","22","1","2025-02-02 03:28:15","bc01a2b6f61d06f6604adb8657495020","99.173.54.245","Mozilla/5.0 (X11; CrOS x86_64 14541.0.0) AppleWebKit/537.36 (KHTML, like Gecko) Chrome/129.0.0.0 Safari/537.36","WebKit","Chrome","129.0.0.0","ChromeOS","14541.0.0","https://app.prolific.com/","en-US,en;q=0.9","677a8053e35cb9c094676a79","679edb085803f58d6bbd31ca","679ee644f90c6b60a3a4cd3a","","null","<img     src='G_8.jpg' height='90'> <img     src='G_6.jpg' height='90'> <img     src='G_5.jpg' height='90'> <img      src='G_3.jpg' height='90'> <img   src='G_7.jpg' height='90'> <img id='selected'       src='G_4.jpg' height='90'> <img id='selected'  src='G_1.jpg' height='90'> <img   src='G_2.jpg' height='90'>","null","Animation1","",""
"","","","","","html-keyboard-response","129","181670","0.0-105.0","22","1","2025-02-02 03:28:15","bc01a2b6f61d06f6604adb8657495020","99.173.54.245","Mozilla/5.0 (X11; CrOS x86_64 14541.0.0) AppleWebKit/537.36 (KHTML, like Gecko) Chrome/129.0.0.0 Safari/537.36","WebKit","Chrome","129.0.0.0","ChromeOS","14541.0.0","https://app.prolific.com/","en-US,en;q=0.9","677a8053e35cb9c094676a79","679edb085803f58d6bbd31ca","679ee644f90c6b60a3a4cd3a","","null","<img     src='G_8.jpg' height='90'> <img     src='G_6.jpg' height='90'> <img     src='G_5.jpg' height='90'> <img      src='G_3.jpg' height='90'> <img   src='G_7.jpg' height='90'> <img id='selected'       src='G_4.jpg' height='90'> <img id='selected'  src='G_1.jpg' height='90'> <img   src='G_2.jpg' height='90'>","null","Animation1","",""
"","","","","","html-keyboard-response","130","181983","0.0-106.0","22","1","2025-02-02 03:28:15","bc01a2b6f61d06f6604adb8657495020","99.173.54.245","Mozilla/5.0 (X11; CrOS x86_64 14541.0.0) AppleWebKit/537.36 (KHTML, like Gecko) Chrome/129.0.0.0 Safari/537.36","WebKit","Chrome","129.0.0.0","ChromeOS","14541.0.0","https://app.prolific.com/","en-US,en;q=0.9","677a8053e35cb9c094676a79","679edb085803f58d6bbd31ca","679ee644f90c6b60a3a4cd3a","","null","<img     src='G_8.jpg' height='90'> <img     src='G_6.jpg' height='90'> <img     src='G_5.jpg' height='90'> <img      src='G_3.jpg' height='90'> <img   src='G_7.jpg' height='90'> <img        src='G_4.jpg' height='90'> <img   src='G_1.jpg' height='90'> <img   src='G_2.jpg' height='90'>","null","Animation1","",""
"","","","","","html-keyboard-response","131","184530","0.0-107.0","22","1","2025-02-02 03:28:15","bc01a2b6f61d06f6604adb8657495020","99.173.54.245","Mozilla/5.0 (X11; CrOS x86_64 14541.0.0) AppleWebKit/537.36 (KHTML, like Gecko) Chrome/129.0.0.0 Safari/537.36","WebKit","Chrome","129.0.0.0","ChromeOS","14541.0.0","https://app.prolific.com/","en-US,en;q=0.9","677a8053e35cb9c094676a79","679edb085803f58d6bbd31ca","679ee644f90c6b60a3a4cd3a","","2534","[""Did you notice any patterns? <br><br>Press Enter to watch that example again and follow the steps of Omgne Sort.""]","enter","","",""
"","","","","","html-button-response","132","184939","0.0-108.0","22","1","2025-02-02 03:28:15","bc01a2b6f61d06f6604adb8657495020","99.173.54.245","Mozilla/5.0 (X11; CrOS x86_64 14541.0.0) AppleWebKit/537.36 (KHTML, like Gecko) Chrome/129.0.0.0 Safari/537.36","WebKit","Chrome","129.0.0.0","ChromeOS","14541.0.0","https://app.prolific.com/","en-US,en;q=0.9","677a8053e35cb9c094676a79","679edb085803f58d6bbd31ca","679ee644f90c6b60a3a4cd3a","","null","<img id='selected' src='G_3.jpg' height='90'> <img src='G_4.jpg' height='90'> <img src='G_5.jpg' height='90'> <img src='G_8.jpg' height='90'> <img src='G_6.jpg' height='90'> <img src='G_7.jpg' height='90'> <img src='G_2.jpg' height='90'> <img src='G_1.jpg' height='90'>","null","Learning example 1","",""
"","","","","","html-button-response","133","185255","0.0-109.0","22","1","2025-02-02 03:28:15","bc01a2b6f61d06f6604adb8657495020","99.173.54.245","Mozilla/5.0 (X11; CrOS x86_64 14541.0.0) AppleWebKit/537.36 (KHTML, like Gecko) Chrome/129.0.0.0 Safari/537.36","WebKit","Chrome","129.0.0.0","ChromeOS","14541.0.0","https://app.prolific.com/","en-US,en;q=0.9","677a8053e35cb9c094676a79","679edb085803f58d6bbd31ca","679ee644f90c6b60a3a4cd3a","","null","<img id='selected' src='G_3.jpg' height='90'> <img id='selected' src='G_4.jpg' height='90'> <img src='G_5.jpg' height='90'> <img src='G_8.jpg' height='90'> <img src='G_6.jpg' height='90'> <img src='G_7.jpg' height='90'> <img src='G_2.jpg' height='90'> <img src='G_1.jpg' height='90'>","null","Learning example 1","",""
"","","","","","html-button-response","134","185563","0.0-110.0","22","1","2025-02-02 03:28:15","bc01a2b6f61d06f6604adb8657495020","99.173.54.245","Mozilla/5.0 (X11; CrOS x86_64 14541.0.0) AppleWebKit/537.36 (KHTML, like Gecko) Chrome/129.0.0.0 Safari/537.36","WebKit","Chrome","129.0.0.0","ChromeOS","14541.0.0","https://app.prolific.com/","en-US,en;q=0.9","677a8053e35cb9c094676a79","679edb085803f58d6bbd31ca","679ee644f90c6b60a3a4cd3a","","null","<img id='selected' src='G_3.jpg' height='90'> <img id='selected' src='G_4.jpg' height='90'> <img src='G_5.jpg' height='90'> <img src='G_8.jpg' height='90'> <img src='G_6.jpg' height='90'> <img src='G_7.jpg' height='90'> <img src='G_2.jpg' height='90'> <img src='G_1.jpg' height='90'>","null","Learning example 1","",""
"","","","","","html-button-response","135","186496","0.0-111.0-0.0-0.0","22","1","2025-02-02 03:28:15","bc01a2b6f61d06f6604adb8657495020","99.173.54.245","Mozilla/5.0 (X11; CrOS x86_64 14541.0.0) AppleWebKit/537.36 (KHTML, like Gecko) Chrome/129.0.0.0 Safari/537.36","WebKit","Chrome","129.0.0.0","ChromeOS","14541.0.0","https://app.prolific.com/","en-US,en;q=0.9","677a8053e35cb9c094676a79","679edb085803f58d6bbd31ca","679ee644f90c6b60a3a4cd3a","","915","<img id='selected' src='G_3.jpg' height='90'> <img id='selected' src='G_4.jpg' height='90'> <img src='G_5.jpg' height='90'> <img src='G_8.jpg' height='90'> <img src='G_6.jpg' height='90'> <img src='G_7.jpg' height='90'> <img src='G_2.jpg' height='90'> <img src='G_1.jpg' height='90'>","0","Learning example 1","",""
"","","","","","html-button-response","136","187213","0.0-111.1-0.1-0.1","22","1","2025-02-02 03:28:15","bc01a2b6f61d06f6604adb8657495020","99.173.54.245","Mozilla/5.0 (X11; CrOS x86_64 14541.0.0) AppleWebKit/537.36 (KHTML, like Gecko) Chrome/129.0.0.0 Safari/537.36","WebKit","Chrome","129.0.0.0","ChromeOS","14541.0.0","https://app.prolific.com/","en-US,en;q=0.9","677a8053e35cb9c094676a79","679edb085803f58d6bbd31ca","679ee644f90c6b60a3a4cd3a","","702","<img id='selected' src='G_3.jpg' height='90'> <img id='selected' src='G_4.jpg' height='90'> <img src='G_5.jpg' height='90'> <img src='G_8.jpg' height='90'> <img src='G_6.jpg' height='90'> <img src='G_7.jpg' height='90'> <img src='G_2.jpg' height='90'> <img src='G_1.jpg' height='90'>","1","Learning example 1","",""
"","","","","","html-button-response","137","187427","0.0-112.0","22","1","2025-02-02 03:28:15","bc01a2b6f61d06f6604adb8657495020","99.173.54.245","Mozilla/5.0 (X11; CrOS x86_64 14541.0.0) AppleWebKit/537.36 (KHTML, like Gecko) Chrome/129.0.0.0 Safari/537.36","WebKit","Chrome","129.0.0.0","ChromeOS","14541.0.0","https://app.prolific.com/","en-US,en;q=0.9","677a8053e35cb9c094676a79","679edb085803f58d6bbd31ca","679ee644f90c6b60a3a4cd3a","","null","<img  src='G_3.jpg' height='90'> <img  src='G_4.jpg' height='90'> <img src='G_5.jpg' height='90'> <img src='G_8.jpg' height='90'> <img src='G_6.jpg' height='90'> <img src='G_7.jpg' height='90'> <img src='G_2.jpg' height='90'> <img src='G_1.jpg' height='90'>","null","Learning example 1","",""
"","","","","","html-button-response","138","187843","0.0-113.0","22","1","2025-02-02 03:28:15","bc01a2b6f61d06f6604adb8657495020","99.173.54.245","Mozilla/5.0 (X11; CrOS x86_64 14541.0.0) AppleWebKit/537.36 (KHTML, like Gecko) Chrome/129.0.0.0 Safari/537.36","WebKit","Chrome","129.0.0.0","ChromeOS","14541.0.0","https://app.prolific.com/","en-US,en;q=0.9","677a8053e35cb9c094676a79","679edb085803f58d6bbd31ca","679ee644f90c6b60a3a4cd3a","","null","<img  src='G_3.jpg' height='90'> <img id='selected'  src='G_4.jpg' height='90'> <img src='G_5.jpg' height='90'> <img src='G_8.jpg' height='90'> <img src='G_6.jpg' height='90'> <img src='G_7.jpg' height='90'> <img src='G_2.jpg' height='90'> <img src='G_1.jpg' height='90'>","null","Learning example 1","",""
"","","","","","html-button-response","139","188161","0.0-114.0","22","1","2025-02-02 03:28:15","bc01a2b6f61d06f6604adb8657495020","99.173.54.245","Mozilla/5.0 (X11; CrOS x86_64 14541.0.0) AppleWebKit/537.36 (KHTML, like Gecko) Chrome/129.0.0.0 Safari/537.36","WebKit","Chrome","129.0.0.0","ChromeOS","14541.0.0","https://app.prolific.com/","en-US,en;q=0.9","677a8053e35cb9c094676a79","679edb085803f58d6bbd31ca","679ee644f90c6b60a3a4cd3a","","null","<img  src='G_3.jpg' height='90'> <img id='selected'  src='G_4.jpg' height='90'> <img id='selected' src='G_5.jpg' height='90'> <img src='G_8.jpg' height='90'> <img src='G_6.jpg' height='90'> <img src='G_7.jpg' height='90'> <img src='G_2.jpg' height='90'> <img src='G_1.jpg' height='90'>","null","Learning example 1","",""
"","","","","","html-button-response","140","188230","0.0-115.0","22","1","2025-02-02 03:28:15","bc01a2b6f61d06f6604adb8657495020","99.173.54.245","Mozilla/5.0 (X11; CrOS x86_64 14541.0.0) AppleWebKit/537.36 (KHTML, like Gecko) Chrome/129.0.0.0 Safari/537.36","WebKit","Chrome","129.0.0.0","ChromeOS","14541.0.0","https://app.prolific.com/","en-US,en;q=0.9","677a8053e35cb9c094676a79","679edb085803f58d6bbd31ca","679ee644f90c6b60a3a4cd3a","","50","<img  src='G_3.jpg' height='90'> <img id='swapped' src='G_5.jpg' height='90'> <img id='swapped'  src='G_4.jpg' height='90'> <img src='G_8.jpg' height='90'> <img src='G_6.jpg' height='90'> <img src='G_7.jpg' height='90'> <img src='G_2.jpg' height='90'> <img src='G_1.jpg' height='90'>","1","Learning example 1","",""
"","","","","","html-button-response","141","190314","0.0-116.0-0.0-0.0","22","1","2025-02-02 03:28:15","bc01a2b6f61d06f6604adb8657495020","99.173.54.245","Mozilla/5.0 (X11; CrOS x86_64 14541.0.0) AppleWebKit/537.36 (KHTML, like Gecko) Chrome/129.0.0.0 Safari/537.36","WebKit","Chrome","129.0.0.0","ChromeOS","14541.0.0","https://app.prolific.com/","en-US,en;q=0.9","677a8053e35cb9c094676a79","679edb085803f58d6bbd31ca","679ee644f90c6b60a3a4cd3a","","2072","<img  src='G_3.jpg' height='90'> <img id='swapped' src='G_5.jpg' height='90'> <img id='swapped'  src='G_4.jpg' height='90'> <img src='G_8.jpg' height='90'> <img src='G_6.jpg' height='90'> <img src='G_7.jpg' height='90'> <img src='G_2.jpg' height='90'> <img src='G_1.jpg' height='90'>","1","Learning example 1","",""
"","","","","","html-button-response","142","191021","0.0-116.1-0.1-0.1","22","1","2025-02-02 03:28:15","bc01a2b6f61d06f6604adb8657495020","99.173.54.245","Mozilla/5.0 (X11; CrOS x86_64 14541.0.0) AppleWebKit/537.36 (KHTML, like Gecko) Chrome/129.0.0.0 Safari/537.36","WebKit","Chrome","129.0.0.0","ChromeOS","14541.0.0","https://app.prolific.com/","en-US,en;q=0.9","677a8053e35cb9c094676a79","679edb085803f58d6bbd31ca","679ee644f90c6b60a3a4cd3a","","691","<img  src='G_3.jpg' height='90'> <img id='swapped' src='G_5.jpg' height='90'> <img id='swapped'  src='G_4.jpg' height='90'> <img src='G_8.jpg' height='90'> <img src='G_6.jpg' height='90'> <img src='G_7.jpg' height='90'> <img src='G_2.jpg' height='90'> <img src='G_1.jpg' height='90'>","2","Learning example 1","",""
"","","","","","html-button-response","143","191235","0.0-117.0","22","1","2025-02-02 03:28:15","bc01a2b6f61d06f6604adb8657495020","99.173.54.245","Mozilla/5.0 (X11; CrOS x86_64 14541.0.0) AppleWebKit/537.36 (KHTML, like Gecko) Chrome/129.0.0.0 Safari/537.36","WebKit","Chrome","129.0.0.0","ChromeOS","14541.0.0","https://app.prolific.com/","en-US,en;q=0.9","677a8053e35cb9c094676a79","679edb085803f58d6bbd31ca","679ee644f90c6b60a3a4cd3a","","null","<img  src='G_3.jpg' height='90'> <img  src='G_5.jpg' height='90'> <img   src='G_4.jpg' height='90'> <img src='G_8.jpg' height='90'> <img src='G_6.jpg' height='90'> <img src='G_7.jpg' height='90'> <img src='G_2.jpg' height='90'> <img src='G_1.jpg' height='90'>","null","Learning example 1","",""
"","","","","","html-button-response","144","191653","0.0-118.0","22","1","2025-02-02 03:28:15","bc01a2b6f61d06f6604adb8657495020","99.173.54.245","Mozilla/5.0 (X11; CrOS x86_64 14541.0.0) AppleWebKit/537.36 (KHTML, like Gecko) Chrome/129.0.0.0 Safari/537.36","WebKit","Chrome","129.0.0.0","ChromeOS","14541.0.0","https://app.prolific.com/","en-US,en;q=0.9","677a8053e35cb9c094676a79","679edb085803f58d6bbd31ca","679ee644f90c6b60a3a4cd3a","","null","<img id='selected'  src='G_3.jpg' height='90'> <img  src='G_5.jpg' height='90'> <img   src='G_4.jpg' height='90'> <img src='G_8.jpg' height='90'> <img src='G_6.jpg' height='90'> <img src='G_7.jpg' height='90'> <img src='G_2.jpg' height='90'> <img src='G_1.jpg' height='90'>","null","Learning example 1","",""
