"success","timeout","failed_images","failed_audio","failed_video","trial_type","trial_index","time_elapsed","internal_node_id","run_id","condition","recorded_at","source_code_version","ip","user_agent","device","browser","browser_version","platform","platform_version","referer","accept_language","PROLIFIC_PID","STUDY_ID","SESSION_ID","view_history","rt","stimulus","response","phase","question_order","presented_choices"
"true","false","[]","[]","[]","preload","0","184","0.0-0.0","23","1","2025-02-02 03:29:41","bc01a2b6f61d06f6604adb8657495020","65.128.101.158","Mozilla/5.0 (Windows NT 10.0; Win64; x64; rv:134.0) Gecko/20100101 Firefox/134.0","","Firefox","134.0","Windows","10.0","https://app.prolific.com/","en-US,en;q=0.5","6685bda9fe63421c0f632414","679edb085803f58d6bbd31ca","679ee1811e5ee26e9178f22b","","","","","","",""
"","","","","","instructions","1","4606","0.0-1.0","23","1","2025-02-02 03:29:41","bc01a2b6f61d06f6604adb8657495020","65.128.101.158","Mozilla/5.0 (Windows NT 10.0; Win64; x64; rv:134.0) Gecko/20100101 Firefox/134.0","","Firefox","134.0","Windows","10.0","https://app.prolific.com/","en-US,en;q=0.5","6685bda9fe63421c0f632414","679edb085803f58d6bbd31ca","679ee1811e5ee26e9178f22b","[{""page_index"":0,""viewing_time"":4420}]","4420","","","","",""
"","","","","","html-keyboard-response","2","5118","0.0-2.0","23","1","2025-02-02 03:29:41","bc01a2b6f61d06f6604adb8657495020","65.128.101.158","Mozilla/5.0 (Windows NT 10.0; Win64; x64; rv:134.0) Gecko/20100101 Firefox/134.0","","Firefox","134.0","Windows","10.0","https://app.prolific.com/","en-US,en;q=0.5","6685bda9fe63421c0f632414","679edb085803f58d6bbd31ca","679ee1811e5ee26e9178f22b","","null","<p> + <p/>","null","","",""
"","","","","","instructions","3","41496","0.0-3.0","23","1","2025-02-02 03:29:41","bc01a2b6f61d06f6604adb8657495020","65.128.101.158","Mozilla/5.0 (Windows NT 10.0; Win64; x64; rv:134.0) Gecko/20100101 Firefox/134.0","","Firefox","134.0","Windows","10.0","https://app.prolific.com/","en-US,en;q=0.5","6685bda9fe63421c0f632414","679edb085803f58d6bbd31ca","679ee1811e5ee26e9178f22b","[{""page_index"":0,""viewing_time"":1575},{""page_index"":1,""viewing_time"":30468},{""page_index"":2,""viewing_time"":1518},{""page_index"":3,""viewing_time"":1057},{""page_index"":4,""viewing_time"":1757}]","36375","","","","",""
"","","","","","html-button-response","4","44524","0.0-4.0-0.0-0.0","23","1","2025-02-02 03:29:41","bc01a2b6f61d06f6604adb8657495020","65.128.101.158","Mozilla/5.0 (Windows NT 10.0; Win64; x64; rv:134.0) Gecko/20100101 Firefox/134.0","","Firefox","134.0","Windows","10.0","https://app.prolific.com/","en-US,en;q=0.5","6685bda9fe63421c0f632414","679edb085803f58d6bbd31ca","679ee1811e5ee26e9178f22b","","3026","","0","Intro Trial","",""
"","","","","","html-button-response","5","44944","0.0-4.1-0.1-0.1","23","1","2025-02-02 03:29:41","bc01a2b6f61d06f6604adb8657495020","65.128.101.158","Mozilla/5.0 (Windows NT 10.0; Win64; x64; rv:134.0) Gecko/20100101 Firefox/134.0","","Firefox","134.0","Windows","10.0","https://app.prolific.com/","en-US,en;q=0.5","6685bda9fe63421c0f632414","679edb085803f58d6bbd31ca","679ee1811e5ee26e9178f22b","","417","","1","Intro Trial","",""
"","","","","","html-button-response","6","46446","0.0-4.2-0.2-0.2","23","1","2025-02-02 03:29:41","bc01a2b6f61d06f6604adb8657495020","65.128.101.158","Mozilla/5.0 (Windows NT 10.0; Win64; x64; rv:134.0) Gecko/20100101 Firefox/134.0","","Firefox","134.0","Windows","10.0","https://app.prolific.com/","en-US,en;q=0.5","6685bda9fe63421c0f632414","679edb085803f58d6bbd31ca","679ee1811e5ee26e9178f22b","","1501","","1","Intro Trial","",""
"","","","","","html-button-response","7","46782","0.0-4.3-0.3-0.3","23","1","2025-02-02 03:29:41","bc01a2b6f61d06f6604adb8657495020","65.128.101.158","Mozilla/5.0 (Windows NT 10.0; Win64; x64; rv:134.0) Gecko/20100101 Firefox/134.0","","Firefox","134.0","Windows","10.0","https://app.prolific.com/","en-US,en;q=0.5","6685bda9fe63421c0f632414","679edb085803f58d6bbd31ca","679ee1811e5ee26e9178f22b","","333","","2","Intro Trial","",""
"","","","","","html-button-response","8","47373","0.0-4.4-0.4-0.4","23","1","2025-02-02 03:29:41","bc01a2b6f61d06f6604adb8657495020","65.128.101.158","Mozilla/5.0 (Windows NT 10.0; Win64; x64; rv:134.0) Gecko/20100101 Firefox/134.0","","Firefox","134.0","Windows","10.0","https://app.prolific.com/","en-US,en;q=0.5","6685bda9fe63421c0f632414","679edb085803f58d6bbd31ca","679ee1811e5ee26e9178f22b","","589","","0","Intro Trial","",""
"","","","","","html-button-response","9","47738","0.0-4.5-0.5-0.5","23","1","2025-02-02 03:29:41","bc01a2b6f61d06f6604adb8657495020","65.128.101.158","Mozilla/5.0 (Windows NT 10.0; Win64; x64; rv:134.0) Gecko/20100101 Firefox/134.0","","Firefox","134.0","Windows","10.0","https://app.prolific.com/","en-US,en;q=0.5","6685bda9fe63421c0f632414","679edb085803f58d6bbd31ca","679ee1811e5ee26e9178f22b","","364","","1","Intro Trial","",""
"","","","","","html-button-response","10","48339","0.0-4.6-0.6-0.6","23","1","2025-02-02 03:29:41","bc01a2b6f61d06f6604adb8657495020","65.128.101.158","Mozilla/5.0 (Windows NT 10.0; Win64; x64; rv:134.0) Gecko/20100101 Firefox/134.0","","Firefox","134.0","Windows","10.0","https://app.prolific.com/","en-US,en;q=0.5","6685bda9fe63421c0f632414","679edb085803f58d6bbd31ca","679ee1811e5ee26e9178f22b","","599","","2","Intro Trial","",""
"","","","","","html-button-response","11","48728","0.0-4.7-0.7-0.7","23","1","2025-02-02 03:29:41","bc01a2b6f61d06f6604adb8657495020","65.128.101.158","Mozilla/5.0 (Windows NT 10.0; Win64; x64; rv:134.0) Gecko/20100101 Firefox/134.0","","Firefox","134.0","Windows","10.0","https://app.prolific.com/","en-US,en;q=0.5","6685bda9fe63421c0f632414","679edb085803f58d6bbd31ca","679ee1811e5ee26e9178f22b","","386","","3","Intro Trial","",""
"","","","","","html-button-response","12","49708","0.0-4.8-0.8-0.8","23","1","2025-02-02 03:29:41","bc01a2b6f61d06f6604adb8657495020","65.128.101.158","Mozilla/5.0 (Windows NT 10.0; Win64; x64; rv:134.0) Gecko/20100101 Firefox/134.0","","Firefox","134.0","Windows","10.0","https://app.prolific.com/","en-US,en;q=0.5","6685bda9fe63421c0f632414","679edb085803f58d6bbd31ca","679ee1811e5ee26e9178f22b","","977","","3","Intro Trial","",""
"","","","","","html-button-response","13","50058","0.0-4.9-0.9-0.9","23","1","2025-02-02 03:29:41","bc01a2b6f61d06f6604adb8657495020","65.128.101.158","Mozilla/5.0 (Windows NT 10.0; Win64; x64; rv:134.0) Gecko/20100101 Firefox/134.0","","Firefox","134.0","Windows","10.0","https://app.prolific.com/","en-US,en;q=0.5","6685bda9fe63421c0f632414","679edb085803f58d6bbd31ca","679ee1811e5ee26e9178f22b","","347","","4","Intro Trial","",""
"","","","","","html-button-response","14","51235","0.0-4.10-0.10-0.10","23","1","2025-02-02 03:29:41","bc01a2b6f61d06f6604adb8657495020","65.128.101.158","Mozilla/5.0 (Windows NT 10.0; Win64; x64; rv:134.0) Gecko/20100101 Firefox/134.0","","Firefox","134.0","Windows","10.0","https://app.prolific.com/","en-US,en;q=0.5","6685bda9fe63421c0f632414","679edb085803f58d6bbd31ca","679ee1811e5ee26e9178f22b","","1174","","2","Intro Trial","",""
"","","","","","html-button-response","15","51633","0.0-4.11-0.11-0.11","23","1","2025-02-02 03:29:41","bc01a2b6f61d06f6604adb8657495020","65.128.101.158","Mozilla/5.0 (Windows NT 10.0; Win64; x64; rv:134.0) Gecko/20100101 Firefox/134.0","","Firefox","134.0","Windows","10.0","https://app.prolific.com/","en-US,en;q=0.5","6685bda9fe63421c0f632414","679edb085803f58d6bbd31ca","679ee1811e5ee26e9178f22b","","397","","3","Intro Trial","",""
"","","","","","html-button-response","16","52348","0.0-4.12-0.12-0.12","23","1","2025-02-02 03:29:41","bc01a2b6f61d06f6604adb8657495020","65.128.101.158","Mozilla/5.0 (Windows NT 10.0; Win64; x64; rv:134.0) Gecko/20100101 Firefox/134.0","","Firefox","134.0","Windows","10.0","https://app.prolific.com/","en-US,en;q=0.5","6685bda9fe63421c0f632414","679edb085803f58d6bbd31ca","679ee1811e5ee26e9178f22b","","712","","1","Intro Trial","",""
"","","","","","html-button-response","17","52715","0.0-4.13-0.13-0.13","23","1","2025-02-02 03:29:41","bc01a2b6f61d06f6604adb8657495020","65.128.101.158","Mozilla/5.0 (Windows NT 10.0; Win64; x64; rv:134.0) Gecko/20100101 Firefox/134.0","","Firefox","134.0","Windows","10.0","https://app.prolific.com/","en-US,en;q=0.5","6685bda9fe63421c0f632414","679edb085803f58d6bbd31ca","679ee1811e5ee26e9178f22b","","366","","2","Intro Trial","",""
"","","","","","html-button-response","18","53522","0.0-4.14-0.14-0.14","23","1","2025-02-02 03:29:41","bc01a2b6f61d06f6604adb8657495020","65.128.101.158","Mozilla/5.0 (Windows NT 10.0; Win64; x64; rv:134.0) Gecko/20100101 Firefox/134.0","","Firefox","134.0","Windows","10.0","https://app.prolific.com/","en-US,en;q=0.5","6685bda9fe63421c0f632414","679edb085803f58d6bbd31ca","679ee1811e5ee26e9178f22b","","806","","0","Intro Trial","",""
"","","","","","html-button-response","19","53850","0.0-4.15-0.15-0.15","23","1","2025-02-02 03:29:41","bc01a2b6f61d06f6604adb8657495020","65.128.101.158","Mozilla/5.0 (Windows NT 10.0; Win64; x64; rv:134.0) Gecko/20100101 Firefox/134.0","","Firefox","134.0","Windows","10.0","https://app.prolific.com/","en-US,en;q=0.5","6685bda9fe63421c0f632414","679edb085803f58d6bbd31ca","679ee1811e5ee26e9178f22b","","325","","1","Intro Trial","",""
"","","","","","html-button-response","20","54932","0.0-4.16-0.16-0.16","23","1","2025-02-02 03:29:41","bc01a2b6f61d06f6604adb8657495020","65.128.101.158","Mozilla/5.0 (Windows NT 10.0; Win64; x64; rv:134.0) Gecko/20100101 Firefox/134.0","","Firefox","134.0","Windows","10.0","https://app.prolific.com/","en-US,en;q=0.5","6685bda9fe63421c0f632414","679edb085803f58d6bbd31ca","679ee1811e5ee26e9178f22b","","1080","","5","Intro Trial","",""
"","","","","","html-keyboard-response","21","58286","0.0-5.0","23","1","2025-02-02 03:29:41","bc01a2b6f61d06f6604adb8657495020","65.128.101.158","Mozilla/5.0 (Windows NT 10.0; Win64; x64; rv:134.0) Gecko/20100101 Firefox/134.0","","Firefox","134.0","Windows","10.0","https://app.prolific.com/","en-US,en;q=0.5","6685bda9fe63421c0f632414","679edb085803f58d6bbd31ca","679ee1811e5ee26e9178f22b","","3352","[""You sorted correctly by using the balance 8 times. <br><br> <img src='G_5.jpg' height='90'><img src='G_2.jpg' height='90'><img src='G_3.jpg' height='90'><img src='G_1.jpg' height='90'><img src='G_4.jpg' height='90'><br><br> Your final order is 1,2,3,4,5<br><br><br>Omgne Sort in this game will allow you to sort correctly by using the balance 8 times. Press Enter to learn it!""]","enter","","",""
"","","","","","html-keyboard-response","22","59796","0.0-6.0","23","1","2025-02-02 03:29:41","bc01a2b6f61d06f6604adb8657495020","65.128.101.158","Mozilla/5.0 (Windows NT 10.0; Win64; x64; rv:134.0) Gecko/20100101 Firefox/134.0","","Firefox","134.0","Windows","10.0","https://app.prolific.com/","en-US,en;q=0.5","6685bda9fe63421c0f632414","679edb085803f58d6bbd31ca","679ee1811e5ee26e9178f22b","","1509","<p>Welcome to the learning phase! <br><br> You will learn by six examples. The following learning trials will not be used to calculate your performance. <br><br> Press Enter to continue.<p/>","enter","","",""
"","","","","","html-keyboard-response","23","60627","0.0-7.0","23","1","2025-02-02 03:29:41","bc01a2b6f61d06f6604adb8657495020","65.128.101.158","Mozilla/5.0 (Windows NT 10.0; Win64; x64; rv:134.0) Gecko/20100101 Firefox/134.0","","Firefox","134.0","Windows","10.0","https://app.prolific.com/","en-US,en;q=0.5","6685bda9fe63421c0f632414","679edb085803f58d6bbd31ca","679ee1811e5ee26e9178f22b","","832","[""Example 1<br><br>You will watch Omnge Sort in action. Try to identify any patterns in the comparisons made by this method. <br><br>Press Enter to continue.""]","enter","","",""
"","","","","","html-keyboard-response","24","61131","0.0-8.0","23","1","2025-02-02 03:29:41","bc01a2b6f61d06f6604adb8657495020","65.128.101.158","Mozilla/5.0 (Windows NT 10.0; Win64; x64; rv:134.0) Gecko/20100101 Firefox/134.0","","Firefox","134.0","Windows","10.0","https://app.prolific.com/","en-US,en;q=0.5","6685bda9fe63421c0f632414","679edb085803f58d6bbd31ca","679ee1811e5ee26e9178f22b","","null","<img id='selected' src='G_7.jpg' height='90'> <img src='G_9.jpg' height='90'> <img src='G_1.jpg' height='90'> <img src='G_3.jpg' height='90'> <img src='G_5.jpg' height='90'>","null","Animation0","",""
"","","","","","html-keyboard-response","25","61634","0.0-9.0","23","1","2025-02-02 03:29:41","bc01a2b6f61d06f6604adb8657495020","65.128.101.158","Mozilla/5.0 (Windows NT 10.0; Win64; x64; rv:134.0) Gecko/20100101 Firefox/134.0","","Firefox","134.0","Windows","10.0","https://app.prolific.com/","en-US,en;q=0.5","6685bda9fe63421c0f632414","679edb085803f58d6bbd31ca","679ee1811e5ee26e9178f22b","","null","<img id='selected' src='G_7.jpg' height='90'> <img id='selected' src='G_9.jpg' height='90'> <img src='G_1.jpg' height='90'> <img src='G_3.jpg' height='90'> <img src='G_5.jpg' height='90'>","null","Animation0","",""
"","","","","","html-keyboard-response","26","62149","0.0-10.0","23","1","2025-02-02 03:29:41","bc01a2b6f61d06f6604adb8657495020","65.128.101.158","Mozilla/5.0 (Windows NT 10.0; Win64; x64; rv:134.0) Gecko/20100101 Firefox/134.0","","Firefox","134.0","Windows","10.0","https://app.prolific.com/","en-US,en;q=0.5","6685bda9fe63421c0f632414","679edb085803f58d6bbd31ca","679ee1811e5ee26e9178f22b","","null","<img id='swapped' src='G_9.jpg' height='90'> <img id='swapped' src='G_7.jpg' height='90'> <img src='G_1.jpg' height='90'> <img src='G_3.jpg' height='90'> <img src='G_5.jpg' height='90'>","null","Animation0","",""
"","","","","","html-keyboard-response","27","62462","0.0-11.0","23","1","2025-02-02 03:29:41","bc01a2b6f61d06f6604adb8657495020","65.128.101.158","Mozilla/5.0 (Windows NT 10.0; Win64; x64; rv:134.0) Gecko/20100101 Firefox/134.0","","Firefox","134.0","Windows","10.0","https://app.prolific.com/","en-US,en;q=0.5","6685bda9fe63421c0f632414","679edb085803f58d6bbd31ca","679ee1811e5ee26e9178f22b","","null","<img  src='G_9.jpg' height='90'> <img  src='G_7.jpg' height='90'> <img src='G_1.jpg' height='90'> <img src='G_3.jpg' height='90'> <img src='G_5.jpg' height='90'>","null","Animation0","",""
"","","","","","html-keyboard-response","28","62977","0.0-12.0","23","1","2025-02-02 03:29:41","bc01a2b6f61d06f6604adb8657495020","65.128.101.158","Mozilla/5.0 (Windows NT 10.0; Win64; x64; rv:134.0) Gecko/20100101 Firefox/134.0","","Firefox","134.0","Windows","10.0","https://app.prolific.com/","en-US,en;q=0.5","6685bda9fe63421c0f632414","679edb085803f58d6bbd31ca","679ee1811e5ee26e9178f22b","","null","<img  src='G_9.jpg' height='90'> <img id='selected'  src='G_7.jpg' height='90'> <img src='G_1.jpg' height='90'> <img src='G_3.jpg' height='90'> <img src='G_5.jpg' height='90'>","null","Animation0","",""
"","","","","","html-keyboard-response","29","63490","0.0-13.0","23","1","2025-02-02 03:29:41","bc01a2b6f61d06f6604adb8657495020","65.128.101.158","Mozilla/5.0 (Windows NT 10.0; Win64; x64; rv:134.0) Gecko/20100101 Firefox/134.0","","Firefox","134.0","Windows","10.0","https://app.prolific.com/","en-US,en;q=0.5","6685bda9fe63421c0f632414","679edb085803f58d6bbd31ca","679ee1811e5ee26e9178f22b","","null","<img  src='G_9.jpg' height='90'> <img id='selected'  src='G_7.jpg' height='90'> <img id='selected' src='G_1.jpg' height='90'> <img src='G_3.jpg' height='90'> <img src='G_5.jpg' height='90'>","null","Animation0","",""
"","","","","","html-keyboard-response","30","64007","0.0-14.0","23","1","2025-02-02 03:29:41","bc01a2b6f61d06f6604adb8657495020","65.128.101.158","Mozilla/5.0 (Windows NT 10.0; Win64; x64; rv:134.0) Gecko/20100101 Firefox/134.0","","Firefox","134.0","Windows","10.0","https://app.prolific.com/","en-US,en;q=0.5","6685bda9fe63421c0f632414","679edb085803f58d6bbd31ca","679ee1811e5ee26e9178f22b","","null","<img  src='G_9.jpg' height='90'> <img id='selected'  src='G_7.jpg' height='90'> <img id='selected' src='G_1.jpg' height='90'> <img src='G_3.jpg' height='90'> <img src='G_5.jpg' height='90'>","null","Animation0","",""
"","","","","","html-keyboard-response","31","64319","0.0-15.0","23","1","2025-02-02 03:29:41","bc01a2b6f61d06f6604adb8657495020","65.128.101.158","Mozilla/5.0 (Windows NT 10.0; Win64; x64; rv:134.0) Gecko/20100101 Firefox/134.0","","Firefox","134.0","Windows","10.0","https://app.prolific.com/","en-US,en;q=0.5","6685bda9fe63421c0f632414","679edb085803f58d6bbd31ca","679ee1811e5ee26e9178f22b","","null","<img  src='G_9.jpg' height='90'> <img   src='G_7.jpg' height='90'> <img  src='G_1.jpg' height='90'> <img src='G_3.jpg' height='90'> <img src='G_5.jpg' height='90'>","null","Animation0","",""
"","","","","","html-keyboard-response","32","64837","0.0-16.0","23","1","2025-02-02 03:29:41","bc01a2b6f61d06f6604adb8657495020","65.128.101.158","Mozilla/5.0 (Windows NT 10.0; Win64; x64; rv:134.0) Gecko/20100101 Firefox/134.0","","Firefox","134.0","Windows","10.0","https://app.prolific.com/","en-US,en;q=0.5","6685bda9fe63421c0f632414","679edb085803f58d6bbd31ca","679ee1811e5ee26e9178f22b","","null","<img  src='G_9.jpg' height='90'> <img   src='G_7.jpg' height='90'> <img id='selected'  src='G_1.jpg' height='90'> <img src='G_3.jpg' height='90'> <img src='G_5.jpg' height='90'>","null","Animation0","",""
"","","","","","html-keyboard-response","33","65353","0.0-17.0","23","1","2025-02-02 03:29:41","bc01a2b6f61d06f6604adb8657495020","65.128.101.158","Mozilla/5.0 (Windows NT 10.0; Win64; x64; rv:134.0) Gecko/20100101 Firefox/134.0","","Firefox","134.0","Windows","10.0","https://app.prolific.com/","en-US,en;q=0.5","6685bda9fe63421c0f632414","679edb085803f58d6bbd31ca","679ee1811e5ee26e9178f22b","","null","<img  src='G_9.jpg' height='90'> <img   src='G_7.jpg' height='90'> <img id='selected'  src='G_1.jpg' height='90'> <img id='selected' src='G_3.jpg' height='90'> <img src='G_5.jpg' height='90'>","null","Animation0","",""
"","","","","","html-keyboard-response","34","65868","0.0-18.0","23","1","2025-02-02 03:29:41","bc01a2b6f61d06f6604adb8657495020","65.128.101.158","Mozilla/5.0 (Windows NT 10.0; Win64; x64; rv:134.0) Gecko/20100101 Firefox/134.0","","Firefox","134.0","Windows","10.0","https://app.prolific.com/","en-US,en;q=0.5","6685bda9fe63421c0f632414","679edb085803f58d6bbd31ca","679ee1811e5ee26e9178f22b","","null","<img  src='G_9.jpg' height='90'> <img   src='G_7.jpg' height='90'> <img id='selected'  src='G_1.jpg' height='90'> <img id='selected' src='G_3.jpg' height='90'> <img src='G_5.jpg' height='90'>","null","Animation0","",""
"","","","","","html-keyboard-response","35","66184","0.0-19.0","23","1","2025-02-02 03:29:41","bc01a2b6f61d06f6604adb8657495020","65.128.101.158","Mozilla/5.0 (Windows NT 10.0; Win64; x64; rv:134.0) Gecko/20100101 Firefox/134.0","","Firefox","134.0","Windows","10.0","https://app.prolific.com/","en-US,en;q=0.5","6685bda9fe63421c0f632414","679edb085803f58d6bbd31ca","679ee1811e5ee26e9178f22b","","null","<img  src='G_9.jpg' height='90'> <img   src='G_7.jpg' height='90'> <img   src='G_1.jpg' height='90'> <img  src='G_3.jpg' height='90'> <img src='G_5.jpg' height='90'>","null","Animation0","",""
"","","","","","html-keyboard-response","36","66701","0.0-20.0","23","1","2025-02-02 03:29:41","bc01a2b6f61d06f6604adb8657495020","65.128.101.158","Mozilla/5.0 (Windows NT 10.0; Win64; x64; rv:134.0) Gecko/20100101 Firefox/134.0","","Firefox","134.0","Windows","10.0","https://app.prolific.com/","en-US,en;q=0.5","6685bda9fe63421c0f632414","679edb085803f58d6bbd31ca","679ee1811e5ee26e9178f22b","","null","<img  src='G_9.jpg' height='90'> <img   src='G_7.jpg' height='90'> <img   src='G_1.jpg' height='90'> <img id='selected'  src='G_3.jpg' height='90'> <img src='G_5.jpg' height='90'>","null","Animation0","",""
"","","","","","html-keyboard-response","37","67208","0.0-21.0","23","1","2025-02-02 03:29:41","bc01a2b6f61d06f6604adb8657495020","65.128.101.158","Mozilla/5.0 (Windows NT 10.0; Win64; x64; rv:134.0) Gecko/20100101 Firefox/134.0","","Firefox","134.0","Windows","10.0","https://app.prolific.com/","en-US,en;q=0.5","6685bda9fe63421c0f632414","679edb085803f58d6bbd31ca","679ee1811e5ee26e9178f22b","","null","<img  src='G_9.jpg' height='90'> <img   src='G_7.jpg' height='90'> <img   src='G_1.jpg' height='90'> <img id='selected'  src='G_3.jpg' height='90'> <img id='selected' src='G_5.jpg' height='90'>","null","Animation0","",""
"","","","","","html-keyboard-response","38","67727","0.0-22.0","23","1","2025-02-02 03:29:41","bc01a2b6f61d06f6604adb8657495020","65.128.101.158","Mozilla/5.0 (Windows NT 10.0; Win64; x64; rv:134.0) Gecko/20100101 Firefox/134.0","","Firefox","134.0","Windows","10.0","https://app.prolific.com/","en-US,en;q=0.5","6685bda9fe63421c0f632414","679edb085803f58d6bbd31ca","679ee1811e5ee26e9178f22b","","null","<img  src='G_9.jpg' height='90'> <img   src='G_7.jpg' height='90'> <img   src='G_1.jpg' height='90'> <img id='selected'  src='G_3.jpg' height='90'> <img id='selected' src='G_5.jpg' height='90'>","null","Animation0","",""
"","","","","","html-keyboard-response","39","68040","0.0-23.0","23","1","2025-02-02 03:29:41","bc01a2b6f61d06f6604adb8657495020","65.128.101.158","Mozilla/5.0 (Windows NT 10.0; Win64; x64; rv:134.0) Gecko/20100101 Firefox/134.0","","Firefox","134.0","Windows","10.0","https://app.prolific.com/","en-US,en;q=0.5","6685bda9fe63421c0f632414","679edb085803f58d6bbd31ca","679ee1811e5ee26e9178f22b","","null","<img  src='G_9.jpg' height='90'> <img   src='G_7.jpg' height='90'> <img   src='G_1.jpg' height='90'> <img   src='G_3.jpg' height='90'> <img  src='G_5.jpg' height='90'>","null","Animation0","",""
"","","","","","html-keyboard-response","40","70178","0.0-24.0","23","1","2025-02-02 03:29:41","bc01a2b6f61d06f6604adb8657495020","65.128.101.158","Mozilla/5.0 (Windows NT 10.0; Win64; x64; rv:134.0) Gecko/20100101 Firefox/134.0","","Firefox","134.0","Windows","10.0","https://app.prolific.com/","en-US,en;q=0.5","6685bda9fe63421c0f632414","679edb085803f58d6bbd31ca","679ee1811e5ee26e9178f22b","","2135","[""Did you notice any patterns? <br><br>Press Enter to watch that example again and follow the steps of Omgne Sort.""]","enter","","",""
"","","","","","html-button-response","41","70628","0.0-25.0","23","1","2025-02-02 03:29:41","bc01a2b6f61d06f6604adb8657495020","65.128.101.158","Mozilla/5.0 (Windows NT 10.0; Win64; x64; rv:134.0) Gecko/20100101 Firefox/134.0","","Firefox","134.0","Windows","10.0","https://app.prolific.com/","en-US,en;q=0.5","6685bda9fe63421c0f632414","679edb085803f58d6bbd31ca","679ee1811e5ee26e9178f22b","","null","<img id='selected' src='G_7.jpg' height='90'> <img src='G_9.jpg' height='90'> <img src='G_1.jpg' height='90'> <img src='G_3.jpg' height='90'> <img src='G_5.jpg' height='90'>","null","Learning example 0","",""
"","","","","","html-button-response","42","70940","0.0-26.0","23","1","2025-02-02 03:29:41","bc01a2b6f61d06f6604adb8657495020","65.128.101.158","Mozilla/5.0 (Windows NT 10.0; Win64; x64; rv:134.0) Gecko/20100101 Firefox/134.0","","Firefox","134.0","Windows","10.0","https://app.prolific.com/","en-US,en;q=0.5","6685bda9fe63421c0f632414","679edb085803f58d6bbd31ca","679ee1811e5ee26e9178f22b","","null","<img id='selected' src='G_7.jpg' height='90'> <img id='selected' src='G_9.jpg' height='90'> <img src='G_1.jpg' height='90'> <img src='G_3.jpg' height='90'> <img src='G_5.jpg' height='90'>","null","Learning example 0","",""
"","","","","","html-button-response","43","71103","0.0-27.0","23","1","2025-02-02 03:29:41","bc01a2b6f61d06f6604adb8657495020","65.128.101.158","Mozilla/5.0 (Windows NT 10.0; Win64; x64; rv:134.0) Gecko/20100101 Firefox/134.0","","Firefox","134.0","Windows","10.0","https://app.prolific.com/","en-US,en;q=0.5","6685bda9fe63421c0f632414","679edb085803f58d6bbd31ca","679ee1811e5ee26e9178f22b","","158","<img id='swapped' src='G_9.jpg' height='90'> <img id='swapped' src='G_7.jpg' height='90'> <img src='G_1.jpg' height='90'> <img src='G_3.jpg' height='90'> <img src='G_5.jpg' height='90'>","0","Learning example 0","",""
"","","","","","html-button-response","44","71740","0.0-28.0-0.0-0.0","23","1","2025-02-02 03:29:41","bc01a2b6f61d06f6604adb8657495020","65.128.101.158","Mozilla/5.0 (Windows NT 10.0; Win64; x64; rv:134.0) Gecko/20100101 Firefox/134.0","","Firefox","134.0","Windows","10.0","https://app.prolific.com/","en-US,en;q=0.5","6685bda9fe63421c0f632414","679edb085803f58d6bbd31ca","679ee1811e5ee26e9178f22b","","634","<img id='swapped' src='G_9.jpg' height='90'> <img id='swapped' src='G_7.jpg' height='90'> <img src='G_1.jpg' height='90'> <img src='G_3.jpg' height='90'> <img src='G_5.jpg' height='90'>","0","Learning example 0","",""
"","","","","","html-button-response","45","72139","0.0-28.1-0.1-0.1","23","1","2025-02-02 03:29:41","bc01a2b6f61d06f6604adb8657495020","65.128.101.158","Mozilla/5.0 (Windows NT 10.0; Win64; x64; rv:134.0) Gecko/20100101 Firefox/134.0","","Firefox","134.0","Windows","10.0","https://app.prolific.com/","en-US,en;q=0.5","6685bda9fe63421c0f632414","679edb085803f58d6bbd31ca","679ee1811e5ee26e9178f22b","","395","<img id='swapped' src='G_9.jpg' height='90'> <img id='swapped' src='G_7.jpg' height='90'> <img src='G_1.jpg' height='90'> <img src='G_3.jpg' height='90'> <img src='G_5.jpg' height='90'>","1","Learning example 0","",""
"","","","","","html-button-response","46","72356","0.0-29.0","23","1","2025-02-02 03:29:41","bc01a2b6f61d06f6604adb8657495020","65.128.101.158","Mozilla/5.0 (Windows NT 10.0; Win64; x64; rv:134.0) Gecko/20100101 Firefox/134.0","","Firefox","134.0","Windows","10.0","https://app.prolific.com/","en-US,en;q=0.5","6685bda9fe63421c0f632414","679edb085803f58d6bbd31ca","679ee1811e5ee26e9178f22b","","null","<img  src='G_9.jpg' height='90'> <img  src='G_7.jpg' height='90'> <img src='G_1.jpg' height='90'> <img src='G_3.jpg' height='90'> <img src='G_5.jpg' height='90'>","null","Learning example 0","",""
"","","","","","html-button-response","47","72764","0.0-30.0","23","1","2025-02-02 03:29:41","bc01a2b6f61d06f6604adb8657495020","65.128.101.158","Mozilla/5.0 (Windows NT 10.0; Win64; x64; rv:134.0) Gecko/20100101 Firefox/134.0","","Firefox","134.0","Windows","10.0","https://app.prolific.com/","en-US,en;q=0.5","6685bda9fe63421c0f632414","679edb085803f58d6bbd31ca","679ee1811e5ee26e9178f22b","","null","<img  src='G_9.jpg' height='90'> <img id='selected'  src='G_7.jpg' height='90'> <img src='G_1.jpg' height='90'> <img src='G_3.jpg' height='90'> <img src='G_5.jpg' height='90'>","null","Learning example 0","",""
"","","","","","html-button-response","48","73114","0.0-31.0","23","1","2025-02-02 03:29:41","bc01a2b6f61d06f6604adb8657495020","65.128.101.158","Mozilla/5.0 (Windows NT 10.0; Win64; x64; rv:134.0) Gecko/20100101 Firefox/134.0","","Firefox","134.0","Windows","10.0","https://app.prolific.com/","en-US,en;q=0.5","6685bda9fe63421c0f632414","679edb085803f58d6bbd31ca","679ee1811e5ee26e9178f22b","","null","<img  src='G_9.jpg' height='90'> <img id='selected'  src='G_7.jpg' height='90'> <img id='selected' src='G_1.jpg' height='90'> <img src='G_3.jpg' height='90'> <img src='G_5.jpg' height='90'>","null","Learning example 0","",""
"","","","","","html-button-response","49","73425","0.0-32.0","23","1","2025-02-02 03:29:41","bc01a2b6f61d06f6604adb8657495020","65.128.101.158","Mozilla/5.0 (Windows NT 10.0; Win64; x64; rv:134.0) Gecko/20100101 Firefox/134.0","","Firefox","134.0","Windows","10.0","https://app.prolific.com/","en-US,en;q=0.5","6685bda9fe63421c0f632414","679edb085803f58d6bbd31ca","679ee1811e5ee26e9178f22b","","null","<img  src='G_9.jpg' height='90'> <img id='selected'  src='G_7.jpg' height='90'> <img id='selected' src='G_1.jpg' height='90'> <img src='G_3.jpg' height='90'> <img src='G_5.jpg' height='90'>","null","Learning example 0","",""
"","","","","","html-button-response","50","73914","0.0-33.0-0.0-0.0","23","1","2025-02-02 03:29:41","bc01a2b6f61d06f6604adb8657495020","65.128.101.158","Mozilla/5.0 (Windows NT 10.0; Win64; x64; rv:134.0) Gecko/20100101 Firefox/134.0","","Firefox","134.0","Windows","10.0","https://app.prolific.com/","en-US,en;q=0.5","6685bda9fe63421c0f632414","679edb085803f58d6bbd31ca","679ee1811e5ee26e9178f22b","","486","<img  src='G_9.jpg' height='90'> <img id='selected'  src='G_7.jpg' height='90'> <img id='selected' src='G_1.jpg' height='90'> <img src='G_3.jpg' height='90'> <img src='G_5.jpg' height='90'>","1","Learning example 0","",""
"","","","","","html-button-response","51","74325","0.0-33.1-0.1-0.1","23","1","2025-02-02 03:29:41","bc01a2b6f61d06f6604adb8657495020","65.128.101.158","Mozilla/5.0 (Windows NT 10.0; Win64; x64; rv:134.0) Gecko/20100101 Firefox/134.0","","Firefox","134.0","Windows","10.0","https://app.prolific.com/","en-US,en;q=0.5","6685bda9fe63421c0f632414","679edb085803f58d6bbd31ca","679ee1811e5ee26e9178f22b","","408","<img  src='G_9.jpg' height='90'> <img id='selected'  src='G_7.jpg' height='90'> <img id='selected' src='G_1.jpg' height='90'> <img src='G_3.jpg' height='90'> <img src='G_5.jpg' height='90'>","2","Learning example 0","",""
"","","","","","html-button-response","52","74543","0.0-34.0","23","1","2025-02-02 03:29:41","bc01a2b6f61d06f6604adb8657495020","65.128.101.158","Mozilla/5.0 (Windows NT 10.0; Win64; x64; rv:134.0) Gecko/20100101 Firefox/134.0","","Firefox","134.0","Windows","10.0","https://app.prolific.com/","en-US,en;q=0.5","6685bda9fe63421c0f632414","679edb085803f58d6bbd31ca","679ee1811e5ee26e9178f22b","","null","<img  src='G_9.jpg' height='90'> <img   src='G_7.jpg' height='90'> <img  src='G_1.jpg' height='90'> <img src='G_3.jpg' height='90'> <img src='G_5.jpg' height='90'>","null","Learning example 0","",""
"","","","","","html-button-response","53","74946","0.0-35.0","23","1","2025-02-02 03:29:41","bc01a2b6f61d06f6604adb8657495020","65.128.101.158","Mozilla/5.0 (Windows NT 10.0; Win64; x64; rv:134.0) Gecko/20100101 Firefox/134.0","","Firefox","134.0","Windows","10.0","https://app.prolific.com/","en-US,en;q=0.5","6685bda9fe63421c0f632414","679edb085803f58d6bbd31ca","679ee1811e5ee26e9178f22b","","null","<img  src='G_9.jpg' height='90'> <img   src='G_7.jpg' height='90'> <img id='selected'  src='G_1.jpg' height='90'> <img src='G_3.jpg' height='90'> <img src='G_5.jpg' height='90'>","null","Learning example 0","",""
"","","","","","html-button-response","54","75260","0.0-36.0","23","1","2025-02-02 03:29:41","bc01a2b6f61d06f6604adb8657495020","65.128.101.158","Mozilla/5.0 (Windows NT 10.0; Win64; x64; rv:134.0) Gecko/20100101 Firefox/134.0","","Firefox","134.0","Windows","10.0","https://app.prolific.com/","en-US,en;q=0.5","6685bda9fe63421c0f632414","679edb085803f58d6bbd31ca","679ee1811e5ee26e9178f22b","","null","<img  src='G_9.jpg' height='90'> <img   src='G_7.jpg' height='90'> <img id='selected'  src='G_1.jpg' height='90'> <img id='selected' src='G_3.jpg' height='90'> <img src='G_5.jpg' height='90'>","null","Learning example 0","",""
"","","","","","html-button-response","55","75563","0.0-37.0","23","1","2025-02-02 03:29:41","bc01a2b6f61d06f6604adb8657495020","65.128.101.158","Mozilla/5.0 (Windows NT 10.0; Win64; x64; rv:134.0) Gecko/20100101 Firefox/134.0","","Firefox","134.0","Windows","10.0","https://app.prolific.com/","en-US,en;q=0.5","6685bda9fe63421c0f632414","679edb085803f58d6bbd31ca","679ee1811e5ee26e9178f22b","","296","<img  src='G_9.jpg' height='90'> <img   src='G_7.jpg' height='90'> <img id='selected'  src='G_1.jpg' height='90'> <img id='selected' src='G_3.jpg' height='90'> <img src='G_5.jpg' height='90'>","2","Learning example 0","",""
"","","","","","html-button-response","56","76125","0.0-38.0-0.0-0.0","23","1","2025-02-02 03:29:41","bc01a2b6f61d06f6604adb8657495020","65.128.101.158","Mozilla/5.0 (Windows NT 10.0; Win64; x64; rv:134.0) Gecko/20100101 Firefox/134.0","","Firefox","134.0","Windows","10.0","https://app.prolific.com/","en-US,en;q=0.5","6685bda9fe63421c0f632414","679edb085803f58d6bbd31ca","679ee1811e5ee26e9178f22b","","559","<img  src='G_9.jpg' height='90'> <img   src='G_7.jpg' height='90'> <img id='selected'  src='G_1.jpg' height='90'> <img id='selected' src='G_3.jpg' height='90'> <img src='G_5.jpg' height='90'>","2","Learning example 0","",""
"","","","","","html-button-response","57","76761","0.0-38.1-0.1-0.1","23","1","2025-02-02 03:29:41","bc01a2b6f61d06f6604adb8657495020","65.128.101.158","Mozilla/5.0 (Windows NT 10.0; Win64; x64; rv:134.0) Gecko/20100101 Firefox/134.0","","Firefox","134.0","Windows","10.0","https://app.prolific.com/","en-US,en;q=0.5","6685bda9fe63421c0f632414","679edb085803f58d6bbd31ca","679ee1811e5ee26e9178f22b","","633","<img  src='G_9.jpg' height='90'> <img   src='G_7.jpg' height='90'> <img id='selected'  src='G_1.jpg' height='90'> <img id='selected' src='G_3.jpg' height='90'> <img src='G_5.jpg' height='90'>","3","Learning example 0","",""
"","","","","","html-button-response","58","76968","0.0-39.0","23","1","2025-02-02 03:29:41","bc01a2b6f61d06f6604adb8657495020","65.128.101.158","Mozilla/5.0 (Windows NT 10.0; Win64; x64; rv:134.0) Gecko/20100101 Firefox/134.0","","Firefox","134.0","Windows","10.0","https://app.prolific.com/","en-US,en;q=0.5","6685bda9fe63421c0f632414","679edb085803f58d6bbd31ca","679ee1811e5ee26e9178f22b","","null","<img  src='G_9.jpg' height='90'> <img   src='G_7.jpg' height='90'> <img   src='G_1.jpg' height='90'> <img  src='G_3.jpg' height='90'> <img src='G_5.jpg' height='90'>","null","Learning example 0","",""
"","","","","","html-button-response","59","77389","0.0-40.0","23","1","2025-02-02 03:29:41","bc01a2b6f61d06f6604adb8657495020","65.128.101.158","Mozilla/5.0 (Windows NT 10.0; Win64; x64; rv:134.0) Gecko/20100101 Firefox/134.0","","Firefox","134.0","Windows","10.0","https://app.prolific.com/","en-US,en;q=0.5","6685bda9fe63421c0f632414","679edb085803f58d6bbd31ca","679ee1811e5ee26e9178f22b","","null","<img  src='G_9.jpg' height='90'> <img   src='G_7.jpg' height='90'> <img   src='G_1.jpg' height='90'> <img id='selected'  src='G_3.jpg' height='90'> <img src='G_5.jpg' height='90'>","null","Learning example 0","",""
"","","","","","html-button-response","60","77735","0.0-41.0","23","1","2025-02-02 03:29:41","bc01a2b6f61d06f6604adb8657495020","65.128.101.158","Mozilla/5.0 (Windows NT 10.0; Win64; x64; rv:134.0) Gecko/20100101 Firefox/134.0","","Firefox","134.0","Windows","10.0","https://app.prolific.com/","en-US,en;q=0.5","6685bda9fe63421c0f632414","679edb085803f58d6bbd31ca","679ee1811e5ee26e9178f22b","","null","<img  src='G_9.jpg' height='90'> <img   src='G_7.jpg' height='90'> <img   src='G_1.jpg' height='90'> <img id='selected'  src='G_3.jpg' height='90'> <img id='selected' src='G_5.jpg' height='90'>","null","Learning example 0","",""
"","","","","","html-button-response","61","78048","0.0-42.0","23","1","2025-02-02 03:29:41","bc01a2b6f61d06f6604adb8657495020","65.128.101.158","Mozilla/5.0 (Windows NT 10.0; Win64; x64; rv:134.0) Gecko/20100101 Firefox/134.0","","Firefox","134.0","Windows","10.0","https://app.prolific.com/","en-US,en;q=0.5","6685bda9fe63421c0f632414","679edb085803f58d6bbd31ca","679ee1811e5ee26e9178f22b","","308","<img  src='G_9.jpg' height='90'> <img   src='G_7.jpg' height='90'> <img   src='G_1.jpg' height='90'> <img id='selected'  src='G_3.jpg' height='90'> <img id='selected' src='G_5.jpg' height='90'>","3","Learning example 0","",""
"","","","","","html-button-response","62","78647","0.0-43.0-0.0-0.0","23","1","2025-02-02 03:29:41","bc01a2b6f61d06f6604adb8657495020","65.128.101.158","Mozilla/5.0 (Windows NT 10.0; Win64; x64; rv:134.0) Gecko/20100101 Firefox/134.0","","Firefox","134.0","Windows","10.0","https://app.prolific.com/","en-US,en;q=0.5","6685bda9fe63421c0f632414","679edb085803f58d6bbd31ca","679ee1811e5ee26e9178f22b","","595","<img  src='G_9.jpg' height='90'> <img   src='G_7.jpg' height='90'> <img   src='G_1.jpg' height='90'> <img id='selected'  src='G_3.jpg' height='90'> <img id='selected' src='G_5.jpg' height='90'>","3","Learning example 0","",""
"","","","","","html-button-response","63","79028","0.0-43.1-0.1-0.1","23","1","2025-02-02 03:29:41","bc01a2b6f61d06f6604adb8657495020","65.128.101.158","Mozilla/5.0 (Windows NT 10.0; Win64; x64; rv:134.0) Gecko/20100101 Firefox/134.0","","Firefox","134.0","Windows","10.0","https://app.prolific.com/","en-US,en;q=0.5","6685bda9fe63421c0f632414","679edb085803f58d6bbd31ca","679ee1811e5ee26e9178f22b","","379","<img  src='G_9.jpg' height='90'> <img   src='G_7.jpg' height='90'> <img   src='G_1.jpg' height='90'> <img id='selected'  src='G_3.jpg' height='90'> <img id='selected' src='G_5.jpg' height='90'>","4","Learning example 0","",""
"","","","","","html-button-response","64","79257","0.0-44.0","23","1","2025-02-02 03:29:41","bc01a2b6f61d06f6604adb8657495020","65.128.101.158","Mozilla/5.0 (Windows NT 10.0; Win64; x64; rv:134.0) Gecko/20100101 Firefox/134.0","","Firefox","134.0","Windows","10.0","https://app.prolific.com/","en-US,en;q=0.5","6685bda9fe63421c0f632414","679edb085803f58d6bbd31ca","679ee1811e5ee26e9178f22b","","null","<img  src='G_9.jpg' height='90'> <img   src='G_7.jpg' height='90'> <img   src='G_1.jpg' height='90'> <img   src='G_3.jpg' height='90'> <img  src='G_5.jpg' height='90'>","null","Learning example 0","",""
"","","","","","html-keyboard-response","65","79900","0.0-45.0","23","1","2025-02-02 03:29:41","bc01a2b6f61d06f6604adb8657495020","65.128.101.158","Mozilla/5.0 (Windows NT 10.0; Win64; x64; rv:134.0) Gecko/20100101 Firefox/134.0","","Firefox","134.0","Windows","10.0","https://app.prolific.com/","en-US,en;q=0.5","6685bda9fe63421c0f632414","679edb085803f58d6bbd31ca","679ee1811e5ee26e9178f22b","","634","[""Final order was 1,2,3,4,5. The initial order was 2,1,3,4,5.<br>It took 1 swaps to sort it correctly with Omgne Sort. <br><br>Press Enter to continue.""]","enter","","",""
"","","","","","html-keyboard-response","66","80474","0.0-46.0","23","1","2025-02-02 03:29:41","bc01a2b6f61d06f6604adb8657495020","65.128.101.158","Mozilla/5.0 (Windows NT 10.0; Win64; x64; rv:134.0) Gecko/20100101 Firefox/134.0","","Firefox","134.0","Windows","10.0","https://app.prolific.com/","en-US,en;q=0.5","6685bda9fe63421c0f632414","679edb085803f58d6bbd31ca","679ee1811e5ee26e9178f22b","","573","[""Example 2<br><br>You will watch Omnge Sort in action. Try to identify any patterns in the comparisons made by this method. <br><br>Press Enter to continue.""]","enter","","",""
"","","","","","html-keyboard-response","67","80985","0.0-47.0","23","1","2025-02-02 03:29:41","bc01a2b6f61d06f6604adb8657495020","65.128.101.158","Mozilla/5.0 (Windows NT 10.0; Win64; x64; rv:134.0) Gecko/20100101 Firefox/134.0","","Firefox","134.0","Windows","10.0","https://app.prolific.com/","en-US,en;q=0.5","6685bda9fe63421c0f632414","679edb085803f58d6bbd31ca","679ee1811e5ee26e9178f22b","","null","<img id='selected' src='G_8.jpg' height='90'> <img src='G_3.jpg' height='90'> <img src='G_2.jpg' height='90'> <img src='G_1.jpg' height='90'> <img src='G_5.jpg' height='90'> <img src='G_6.jpg' height='90'> <img src='G_4.jpg' height='90'> <img src='G_7.jpg' height='90'>","null","Animation1","",""
"","","","","","html-keyboard-response","68","81504","0.0-48.0","23","1","2025-02-02 03:29:41","bc01a2b6f61d06f6604adb8657495020","65.128.101.158","Mozilla/5.0 (Windows NT 10.0; Win64; x64; rv:134.0) Gecko/20100101 Firefox/134.0","","Firefox","134.0","Windows","10.0","https://app.prolific.com/","en-US,en;q=0.5","6685bda9fe63421c0f632414","679edb085803f58d6bbd31ca","679ee1811e5ee26e9178f22b","","null","<img id='selected' src='G_8.jpg' height='90'> <img id='selected' src='G_3.jpg' height='90'> <img src='G_2.jpg' height='90'> <img src='G_1.jpg' height='90'> <img src='G_5.jpg' height='90'> <img src='G_6.jpg' height='90'> <img src='G_4.jpg' height='90'> <img src='G_7.jpg' height='90'>","null","Animation1","",""
"","","","","","html-keyboard-response","69","82020","0.0-49.0","23","1","2025-02-02 03:29:41","bc01a2b6f61d06f6604adb8657495020","65.128.101.158","Mozilla/5.0 (Windows NT 10.0; Win64; x64; rv:134.0) Gecko/20100101 Firefox/134.0","","Firefox","134.0","Windows","10.0","https://app.prolific.com/","en-US,en;q=0.5","6685bda9fe63421c0f632414","679edb085803f58d6bbd31ca","679ee1811e5ee26e9178f22b","","null","<img id='selected' src='G_8.jpg' height='90'> <img id='selected' src='G_3.jpg' height='90'> <img src='G_2.jpg' height='90'> <img src='G_1.jpg' height='90'> <img src='G_5.jpg' height='90'> <img src='G_6.jpg' height='90'> <img src='G_4.jpg' height='90'> <img src='G_7.jpg' height='90'>","null","Animation1","",""
"","","","","","html-keyboard-response","70","82332","0.0-50.0","23","1","2025-02-02 03:29:41","bc01a2b6f61d06f6604adb8657495020","65.128.101.158","Mozilla/5.0 (Windows NT 10.0; Win64; x64; rv:134.0) Gecko/20100101 Firefox/134.0","","Firefox","134.0","Windows","10.0","https://app.prolific.com/","en-US,en;q=0.5","6685bda9fe63421c0f632414","679edb085803f58d6bbd31ca","679ee1811e5ee26e9178f22b","","null","<img  src='G_8.jpg' height='90'> <img  src='G_3.jpg' height='90'> <img src='G_2.jpg' height='90'> <img src='G_1.jpg' height='90'> <img src='G_5.jpg' height='90'> <img src='G_6.jpg' height='90'> <img src='G_4.jpg' height='90'> <img src='G_7.jpg' height='90'>","null","Animation1","",""
"","","","","","html-keyboard-response","71","82853","0.0-51.0","23","1","2025-02-02 03:29:41","bc01a2b6f61d06f6604adb8657495020","65.128.101.158","Mozilla/5.0 (Windows NT 10.0; Win64; x64; rv:134.0) Gecko/20100101 Firefox/134.0","","Firefox","134.0","Windows","10.0","https://app.prolific.com/","en-US,en;q=0.5","6685bda9fe63421c0f632414","679edb085803f58d6bbd31ca","679ee1811e5ee26e9178f22b","","null","<img  src='G_8.jpg' height='90'> <img id='selected'  src='G_3.jpg' height='90'> <img src='G_2.jpg' height='90'> <img src='G_1.jpg' height='90'> <img src='G_5.jpg' height='90'> <img src='G_6.jpg' height='90'> <img src='G_4.jpg' height='90'> <img src='G_7.jpg' height='90'>","null","Animation1","",""
"","","","","","html-keyboard-response","72","83367","0.0-52.0","23","1","2025-02-02 03:29:41","bc01a2b6f61d06f6604adb8657495020","65.128.101.158","Mozilla/5.0 (Windows NT 10.0; Win64; x64; rv:134.0) Gecko/20100101 Firefox/134.0","","Firefox","134.0","Windows","10.0","https://app.prolific.com/","en-US,en;q=0.5","6685bda9fe63421c0f632414","679edb085803f58d6bbd31ca","679ee1811e5ee26e9178f22b","","null","<img  src='G_8.jpg' height='90'> <img id='selected'  src='G_3.jpg' height='90'> <img id='selected' src='G_2.jpg' height='90'> <img src='G_1.jpg' height='90'> <img src='G_5.jpg' height='90'> <img src='G_6.jpg' height='90'> <img src='G_4.jpg' height='90'> <img src='G_7.jpg' height='90'>","null","Animation1","",""
"","","","","","html-keyboard-response","73","83885","0.0-53.0","23","1","2025-02-02 03:29:41","bc01a2b6f61d06f6604adb8657495020","65.128.101.158","Mozilla/5.0 (Windows NT 10.0; Win64; x64; rv:134.0) Gecko/20100101 Firefox/134.0","","Firefox","134.0","Windows","10.0","https://app.prolific.com/","en-US,en;q=0.5","6685bda9fe63421c0f632414","679edb085803f58d6bbd31ca","679ee1811e5ee26e9178f22b","","null","<img  src='G_8.jpg' height='90'> <img id='swapped' src='G_2.jpg' height='90'> <img id='swapped'  src='G_3.jpg' height='90'> <img src='G_1.jpg' height='90'> <img src='G_5.jpg' height='90'> <img src='G_6.jpg' height='90'> <img src='G_4.jpg' height='90'> <img src='G_7.jpg' height='90'>","null","Animation1","",""
"","","","","","html-keyboard-response","74","84196","0.0-54.0","23","1","2025-02-02 03:29:41","bc01a2b6f61d06f6604adb8657495020","65.128.101.158","Mozilla/5.0 (Windows NT 10.0; Win64; x64; rv:134.0) Gecko/20100101 Firefox/134.0","","Firefox","134.0","Windows","10.0","https://app.prolific.com/","en-US,en;q=0.5","6685bda9fe63421c0f632414","679edb085803f58d6bbd31ca","679ee1811e5ee26e9178f22b","","null","<img  src='G_8.jpg' height='90'> <img  src='G_2.jpg' height='90'> <img   src='G_3.jpg' height='90'> <img src='G_1.jpg' height='90'> <img src='G_5.jpg' height='90'> <img src='G_6.jpg' height='90'> <img src='G_4.jpg' height='90'> <img src='G_7.jpg' height='90'>","null","Animation1","",""
"","","","","","html-keyboard-response","75","84713","0.0-55.0","23","1","2025-02-02 03:29:41","bc01a2b6f61d06f6604adb8657495020","65.128.101.158","Mozilla/5.0 (Windows NT 10.0; Win64; x64; rv:134.0) Gecko/20100101 Firefox/134.0","","Firefox","134.0","Windows","10.0","https://app.prolific.com/","en-US,en;q=0.5","6685bda9fe63421c0f632414","679edb085803f58d6bbd31ca","679ee1811e5ee26e9178f22b","","null","<img id='selected'  src='G_8.jpg' height='90'> <img  src='G_2.jpg' height='90'> <img   src='G_3.jpg' height='90'> <img src='G_1.jpg' height='90'> <img src='G_5.jpg' height='90'> <img src='G_6.jpg' height='90'> <img src='G_4.jpg' height='90'> <img src='G_7.jpg' height='90'>","null","Animation1","",""
"","","","","","html-keyboard-response","76","85228","0.0-56.0","23","1","2025-02-02 03:29:41","bc01a2b6f61d06f6604adb8657495020","65.128.101.158","Mozilla/5.0 (Windows NT 10.0; Win64; x64; rv:134.0) Gecko/20100101 Firefox/134.0","","Firefox","134.0","Windows","10.0","https://app.prolific.com/","en-US,en;q=0.5","6685bda9fe63421c0f632414","679edb085803f58d6bbd31ca","679ee1811e5ee26e9178f22b","","null","<img id='selected'  src='G_8.jpg' height='90'> <img id='selected'  src='G_2.jpg' height='90'> <img   src='G_3.jpg' height='90'> <img src='G_1.jpg' height='90'> <img src='G_5.jpg' height='90'> <img src='G_6.jpg' height='90'> <img src='G_4.jpg' height='90'> <img src='G_7.jpg' height='90'>","null","Animation1","",""
"","","","","","html-keyboard-response","77","85746","0.0-57.0","23","1","2025-02-02 03:29:41","bc01a2b6f61d06f6604adb8657495020","65.128.101.158","Mozilla/5.0 (Windows NT 10.0; Win64; x64; rv:134.0) Gecko/20100101 Firefox/134.0","","Firefox","134.0","Windows","10.0","https://app.prolific.com/","en-US,en;q=0.5","6685bda9fe63421c0f632414","679edb085803f58d6bbd31ca","679ee1811e5ee26e9178f22b","","null","<img id='swapped'  src='G_2.jpg' height='90'> <img id='swapped'  src='G_8.jpg' height='90'> <img   src='G_3.jpg' height='90'> <img src='G_1.jpg' height='90'> <img src='G_5.jpg' height='90'> <img src='G_6.jpg' height='90'> <img src='G_4.jpg' height='90'> <img src='G_7.jpg' height='90'>","null","Animation1","",""
"","","","","","html-keyboard-response","78","86059","0.0-58.0","23","1","2025-02-02 03:29:41","bc01a2b6f61d06f6604adb8657495020","65.128.101.158","Mozilla/5.0 (Windows NT 10.0; Win64; x64; rv:134.0) Gecko/20100101 Firefox/134.0","","Firefox","134.0","Windows","10.0","https://app.prolific.com/","en-US,en;q=0.5","6685bda9fe63421c0f632414","679edb085803f58d6bbd31ca","679ee1811e5ee26e9178f22b","","null","<img   src='G_2.jpg' height='90'> <img   src='G_8.jpg' height='90'> <img   src='G_3.jpg' height='90'> <img src='G_1.jpg' height='90'> <img src='G_5.jpg' height='90'> <img src='G_6.jpg' height='90'> <img src='G_4.jpg' height='90'> <img src='G_7.jpg' height='90'>","null","Animation1","",""
"","","","","","html-keyboard-response","79","86578","0.0-59.0","23","1","2025-02-02 03:29:41","bc01a2b6f61d06f6604adb8657495020","65.128.101.158","Mozilla/5.0 (Windows NT 10.0; Win64; x64; rv:134.0) Gecko/20100101 Firefox/134.0","","Firefox","134.0","Windows","10.0","https://app.prolific.com/","en-US,en;q=0.5","6685bda9fe63421c0f632414","679edb085803f58d6bbd31ca","679ee1811e5ee26e9178f22b","","null","<img   src='G_2.jpg' height='90'> <img   src='G_8.jpg' height='90'> <img id='selected'   src='G_3.jpg' height='90'> <img src='G_1.jpg' height='90'> <img src='G_5.jpg' height='90'> <img src='G_6.jpg' height='90'> <img src='G_4.jpg' height='90'> <img src='G_7.jpg' height='90'>","null","Animation1","",""
"","","","","","html-keyboard-response","80","87083","0.0-60.0","23","1","2025-02-02 03:29:41","bc01a2b6f61d06f6604adb8657495020","65.128.101.158","Mozilla/5.0 (Windows NT 10.0; Win64; x64; rv:134.0) Gecko/20100101 Firefox/134.0","","Firefox","134.0","Windows","10.0","https://app.prolific.com/","en-US,en;q=0.5","6685bda9fe63421c0f632414","679edb085803f58d6bbd31ca","679ee1811e5ee26e9178f22b","","null","<img   src='G_2.jpg' height='90'> <img   src='G_8.jpg' height='90'> <img id='selected'   src='G_3.jpg' height='90'> <img id='selected' src='G_1.jpg' height='90'> <img src='G_5.jpg' height='90'> <img src='G_6.jpg' height='90'> <img src='G_4.jpg' height='90'> <img src='G_7.jpg' height='90'>","null","Animation1","",""
"","","","","","html-keyboard-response","81","87601","0.0-61.0","23","1","2025-02-02 03:29:41","bc01a2b6f61d06f6604adb8657495020","65.128.101.158","Mozilla/5.0 (Windows NT 10.0; Win64; x64; rv:134.0) Gecko/20100101 Firefox/134.0","","Firefox","134.0","Windows","10.0","https://app.prolific.com/","en-US,en;q=0.5","6685bda9fe63421c0f632414","679edb085803f58d6bbd31ca","679ee1811e5ee26e9178f22b","","null","<img   src='G_2.jpg' height='90'> <img   src='G_8.jpg' height='90'> <img id='swapped' src='G_1.jpg' height='90'> <img id='swapped'   src='G_3.jpg' height='90'> <img src='G_5.jpg' height='90'> <img src='G_6.jpg' height='90'> <img src='G_4.jpg' height='90'> <img src='G_7.jpg' height='90'>","null","Animation1","",""
"","","","","","html-keyboard-response","82","87913","0.0-62.0","23","1","2025-02-02 03:29:41","bc01a2b6f61d06f6604adb8657495020","65.128.101.158","Mozilla/5.0 (Windows NT 10.0; Win64; x64; rv:134.0) Gecko/20100101 Firefox/134.0","","Firefox","134.0","Windows","10.0","https://app.prolific.com/","en-US,en;q=0.5","6685bda9fe63421c0f632414","679edb085803f58d6bbd31ca","679ee1811e5ee26e9178f22b","","null","<img   src='G_2.jpg' height='90'> <img   src='G_8.jpg' height='90'> <img  src='G_1.jpg' height='90'> <img    src='G_3.jpg' height='90'> <img src='G_5.jpg' height='90'> <img src='G_6.jpg' height='90'> <img src='G_4.jpg' height='90'> <img src='G_7.jpg' height='90'>","null","Animation1","",""
"","","","","","html-keyboard-response","83","88428","0.0-63.0","23","1","2025-02-02 03:29:41","bc01a2b6f61d06f6604adb8657495020","65.128.101.158","Mozilla/5.0 (Windows NT 10.0; Win64; x64; rv:134.0) Gecko/20100101 Firefox/134.0","","Firefox","134.0","Windows","10.0","https://app.prolific.com/","en-US,en;q=0.5","6685bda9fe63421c0f632414","679edb085803f58d6bbd31ca","679ee1811e5ee26e9178f22b","","null","<img   src='G_2.jpg' height='90'> <img id='selected'   src='G_8.jpg' height='90'> <img  src='G_1.jpg' height='90'> <img    src='G_3.jpg' height='90'> <img src='G_5.jpg' height='90'> <img src='G_6.jpg' height='90'> <img src='G_4.jpg' height='90'> <img src='G_7.jpg' height='90'>","null","Animation1","",""
"","","","","","html-keyboard-response","84","88944","0.0-64.0","23","1","2025-02-02 03:29:41","bc01a2b6f61d06f6604adb8657495020","65.128.101.158","Mozilla/5.0 (Windows NT 10.0; Win64; x64; rv:134.0) Gecko/20100101 Firefox/134.0","","Firefox","134.0","Windows","10.0","https://app.prolific.com/","en-US,en;q=0.5","6685bda9fe63421c0f632414","679edb085803f58d6bbd31ca","679ee1811e5ee26e9178f22b","","null","<img   src='G_2.jpg' height='90'> <img id='selected'   src='G_8.jpg' height='90'> <img id='selected'  src='G_1.jpg' height='90'> <img    src='G_3.jpg' height='90'> <img src='G_5.jpg' height='90'> <img src='G_6.jpg' height='90'> <img src='G_4.jpg' height='90'> <img src='G_7.jpg' height='90'>","null","Animation1","",""
"","","","","","html-keyboard-response","85","89461","0.0-65.0","23","1","2025-02-02 03:29:41","bc01a2b6f61d06f6604adb8657495020","65.128.101.158","Mozilla/5.0 (Windows NT 10.0; Win64; x64; rv:134.0) Gecko/20100101 Firefox/134.0","","Firefox","134.0","Windows","10.0","https://app.prolific.com/","en-US,en;q=0.5","6685bda9fe63421c0f632414","679edb085803f58d6bbd31ca","679ee1811e5ee26e9178f22b","","null","<img   src='G_2.jpg' height='90'> <img id='swapped'  src='G_1.jpg' height='90'> <img id='swapped'   src='G_8.jpg' height='90'> <img    src='G_3.jpg' height='90'> <img src='G_5.jpg' height='90'> <img src='G_6.jpg' height='90'> <img src='G_4.jpg' height='90'> <img src='G_7.jpg' height='90'>","null","Animation1","",""
"","","","","","html-keyboard-response","86","89776","0.0-66.0","23","1","2025-02-02 03:29:41","bc01a2b6f61d06f6604adb8657495020","65.128.101.158","Mozilla/5.0 (Windows NT 10.0; Win64; x64; rv:134.0) Gecko/20100101 Firefox/134.0","","Firefox","134.0","Windows","10.0","https://app.prolific.com/","en-US,en;q=0.5","6685bda9fe63421c0f632414","679edb085803f58d6bbd31ca","679ee1811e5ee26e9178f22b","","null","<img   src='G_2.jpg' height='90'> <img   src='G_1.jpg' height='90'> <img    src='G_8.jpg' height='90'> <img    src='G_3.jpg' height='90'> <img src='G_5.jpg' height='90'> <img src='G_6.jpg' height='90'> <img src='G_4.jpg' height='90'> <img src='G_7.jpg' height='90'>","null","Animation1","",""
"","","","","","html-keyboard-response","87","90290","0.0-67.0","23","1","2025-02-02 03:29:41","bc01a2b6f61d06f6604adb8657495020","65.128.101.158","Mozilla/5.0 (Windows NT 10.0; Win64; x64; rv:134.0) Gecko/20100101 Firefox/134.0","","Firefox","134.0","Windows","10.0","https://app.prolific.com/","en-US,en;q=0.5","6685bda9fe63421c0f632414","679edb085803f58d6bbd31ca","679ee1811e5ee26e9178f22b","","null","<img id='selected'   src='G_2.jpg' height='90'> <img   src='G_1.jpg' height='90'> <img    src='G_8.jpg' height='90'> <img    src='G_3.jpg' height='90'> <img src='G_5.jpg' height='90'> <img src='G_6.jpg' height='90'> <img src='G_4.jpg' height='90'> <img src='G_7.jpg' height='90'>","null","Animation1","",""
"","","","","","html-keyboard-response","88","90805","0.0-68.0","23","1","2025-02-02 03:29:41","bc01a2b6f61d06f6604adb8657495020","65.128.101.158","Mozilla/5.0 (Windows NT 10.0; Win64; x64; rv:134.0) Gecko/20100101 Firefox/134.0","","Firefox","134.0","Windows","10.0","https://app.prolific.com/","en-US,en;q=0.5","6685bda9fe63421c0f632414","679edb085803f58d6bbd31ca","679ee1811e5ee26e9178f22b","","null","<img id='selected'   src='G_2.jpg' height='90'> <img id='selected'   src='G_1.jpg' height='90'> <img    src='G_8.jpg' height='90'> <img    src='G_3.jpg' height='90'> <img src='G_5.jpg' height='90'> <img src='G_6.jpg' height='90'> <img src='G_4.jpg' height='90'> <img src='G_7.jpg' height='90'>","null","Animation1","",""
"","","","","","html-keyboard-response","89","91320","0.0-69.0","23","1","2025-02-02 03:29:41","bc01a2b6f61d06f6604adb8657495020","65.128.101.158","Mozilla/5.0 (Windows NT 10.0; Win64; x64; rv:134.0) Gecko/20100101 Firefox/134.0","","Firefox","134.0","Windows","10.0","https://app.prolific.com/","en-US,en;q=0.5","6685bda9fe63421c0f632414","679edb085803f58d6bbd31ca","679ee1811e5ee26e9178f22b","","null","<img id='swapped'   src='G_1.jpg' height='90'> <img id='swapped'   src='G_2.jpg' height='90'> <img    src='G_8.jpg' height='90'> <img    src='G_3.jpg' height='90'> <img src='G_5.jpg' height='90'> <img src='G_6.jpg' height='90'> <img src='G_4.jpg' height='90'> <img src='G_7.jpg' height='90'>","null","Animation1","",""
"","","","","","html-keyboard-response","90","91634","0.0-70.0","23","1","2025-02-02 03:29:41","bc01a2b6f61d06f6604adb8657495020","65.128.101.158","Mozilla/5.0 (Windows NT 10.0; Win64; x64; rv:134.0) Gecko/20100101 Firefox/134.0","","Firefox","134.0","Windows","10.0","https://app.prolific.com/","en-US,en;q=0.5","6685bda9fe63421c0f632414","679edb085803f58d6bbd31ca","679ee1811e5ee26e9178f22b","","null","<img    src='G_1.jpg' height='90'> <img    src='G_2.jpg' height='90'> <img    src='G_8.jpg' height='90'> <img    src='G_3.jpg' height='90'> <img src='G_5.jpg' height='90'> <img src='G_6.jpg' height='90'> <img src='G_4.jpg' height='90'> <img src='G_7.jpg' height='90'>","null","Animation1","",""
"","","","","","html-keyboard-response","91","92155","0.0-71.0","23","1","2025-02-02 03:29:41","bc01a2b6f61d06f6604adb8657495020","65.128.101.158","Mozilla/5.0 (Windows NT 10.0; Win64; x64; rv:134.0) Gecko/20100101 Firefox/134.0","","Firefox","134.0","Windows","10.0","https://app.prolific.com/","en-US,en;q=0.5","6685bda9fe63421c0f632414","679edb085803f58d6bbd31ca","679ee1811e5ee26e9178f22b","","null","<img    src='G_1.jpg' height='90'> <img    src='G_2.jpg' height='90'> <img    src='G_8.jpg' height='90'> <img id='selected'    src='G_3.jpg' height='90'> <img src='G_5.jpg' height='90'> <img src='G_6.jpg' height='90'> <img src='G_4.jpg' height='90'> <img src='G_7.jpg' height='90'>","null","Animation1","",""
"","","","","","html-keyboard-response","92","92670","0.0-72.0","23","1","2025-02-02 03:29:41","bc01a2b6f61d06f6604adb8657495020","65.128.101.158","Mozilla/5.0 (Windows NT 10.0; Win64; x64; rv:134.0) Gecko/20100101 Firefox/134.0","","Firefox","134.0","Windows","10.0","https://app.prolific.com/","en-US,en;q=0.5","6685bda9fe63421c0f632414","679edb085803f58d6bbd31ca","679ee1811e5ee26e9178f22b","","null","<img    src='G_1.jpg' height='90'> <img    src='G_2.jpg' height='90'> <img    src='G_8.jpg' height='90'> <img id='selected'    src='G_3.jpg' height='90'> <img id='selected' src='G_5.jpg' height='90'> <img src='G_6.jpg' height='90'> <img src='G_4.jpg' height='90'> <img src='G_7.jpg' height='90'>","null","Animation1","",""
"","","","","","html-keyboard-response","93","93188","0.0-73.0","23","1","2025-02-02 03:29:41","bc01a2b6f61d06f6604adb8657495020","65.128.101.158","Mozilla/5.0 (Windows NT 10.0; Win64; x64; rv:134.0) Gecko/20100101 Firefox/134.0","","Firefox","134.0","Windows","10.0","https://app.prolific.com/","en-US,en;q=0.5","6685bda9fe63421c0f632414","679edb085803f58d6bbd31ca","679ee1811e5ee26e9178f22b","","null","<img    src='G_1.jpg' height='90'> <img    src='G_2.jpg' height='90'> <img    src='G_8.jpg' height='90'> <img id='swapped' src='G_5.jpg' height='90'> <img id='swapped'    src='G_3.jpg' height='90'> <img src='G_6.jpg' height='90'> <img src='G_4.jpg' height='90'> <img src='G_7.jpg' height='90'>","null","Animation1","",""
"","","","","","html-keyboard-response","94","93503","0.0-74.0","23","1","2025-02-02 03:29:41","bc01a2b6f61d06f6604adb8657495020","65.128.101.158","Mozilla/5.0 (Windows NT 10.0; Win64; x64; rv:134.0) Gecko/20100101 Firefox/134.0","","Firefox","134.0","Windows","10.0","https://app.prolific.com/","en-US,en;q=0.5","6685bda9fe63421c0f632414","679edb085803f58d6bbd31ca","679ee1811e5ee26e9178f22b","","null","<img    src='G_1.jpg' height='90'> <img    src='G_2.jpg' height='90'> <img    src='G_8.jpg' height='90'> <img  src='G_5.jpg' height='90'> <img     src='G_3.jpg' height='90'> <img src='G_6.jpg' height='90'> <img src='G_4.jpg' height='90'> <img src='G_7.jpg' height='90'>","null","Animation1","",""
"","","","","","html-keyboard-response","95","94021","0.0-75.0","23","1","2025-02-02 03:29:41","bc01a2b6f61d06f6604adb8657495020","65.128.101.158","Mozilla/5.0 (Windows NT 10.0; Win64; x64; rv:134.0) Gecko/20100101 Firefox/134.0","","Firefox","134.0","Windows","10.0","https://app.prolific.com/","en-US,en;q=0.5","6685bda9fe63421c0f632414","679edb085803f58d6bbd31ca","679ee1811e5ee26e9178f22b","","null","<img    src='G_1.jpg' height='90'> <img    src='G_2.jpg' height='90'> <img id='selected'    src='G_8.jpg' height='90'> <img  src='G_5.jpg' height='90'> <img     src='G_3.jpg' height='90'> <img src='G_6.jpg' height='90'> <img src='G_4.jpg' height='90'> <img src='G_7.jpg' height='90'>","null","Animation1","",""
"","","","","","html-keyboard-response","96","94540","0.0-76.0","23","1","2025-02-02 03:29:41","bc01a2b6f61d06f6604adb8657495020","65.128.101.158","Mozilla/5.0 (Windows NT 10.0; Win64; x64; rv:134.0) Gecko/20100101 Firefox/134.0","","Firefox","134.0","Windows","10.0","https://app.prolific.com/","en-US,en;q=0.5","6685bda9fe63421c0f632414","679edb085803f58d6bbd31ca","679ee1811e5ee26e9178f22b","","null","<img    src='G_1.jpg' height='90'> <img    src='G_2.jpg' height='90'> <img id='selected'    src='G_8.jpg' height='90'> <img id='selected'  src='G_5.jpg' height='90'> <img     src='G_3.jpg' height='90'> <img src='G_6.jpg' height='90'> <img src='G_4.jpg' height='90'> <img src='G_7.jpg' height='90'>","null","Animation1","",""
"","","","","","html-keyboard-response","97","95057","0.0-77.0","23","1","2025-02-02 03:29:41","bc01a2b6f61d06f6604adb8657495020","65.128.101.158","Mozilla/5.0 (Windows NT 10.0; Win64; x64; rv:134.0) Gecko/20100101 Firefox/134.0","","Firefox","134.0","Windows","10.0","https://app.prolific.com/","en-US,en;q=0.5","6685bda9fe63421c0f632414","679edb085803f58d6bbd31ca","679ee1811e5ee26e9178f22b","","null","<img    src='G_1.jpg' height='90'> <img    src='G_2.jpg' height='90'> <img id='swapped'  src='G_5.jpg' height='90'> <img id='swapped'    src='G_8.jpg' height='90'> <img     src='G_3.jpg' height='90'> <img src='G_6.jpg' height='90'> <img src='G_4.jpg' height='90'> <img src='G_7.jpg' height='90'>","null","Animation1","",""
"","","","","","html-keyboard-response","98","95373","0.0-78.0","23","1","2025-02-02 03:29:41","bc01a2b6f61d06f6604adb8657495020","65.128.101.158","Mozilla/5.0 (Windows NT 10.0; Win64; x64; rv:134.0) Gecko/20100101 Firefox/134.0","","Firefox","134.0","Windows","10.0","https://app.prolific.com/","en-US,en;q=0.5","6685bda9fe63421c0f632414","679edb085803f58d6bbd31ca","679ee1811e5ee26e9178f22b","","null","<img    src='G_1.jpg' height='90'> <img    src='G_2.jpg' height='90'> <img   src='G_5.jpg' height='90'> <img     src='G_8.jpg' height='90'> <img     src='G_3.jpg' height='90'> <img src='G_6.jpg' height='90'> <img src='G_4.jpg' height='90'> <img src='G_7.jpg' height='90'>","null","Animation1","",""
"","","","","","html-keyboard-response","99","95891","0.0-79.0","23","1","2025-02-02 03:29:41","bc01a2b6f61d06f6604adb8657495020","65.128.101.158","Mozilla/5.0 (Windows NT 10.0; Win64; x64; rv:134.0) Gecko/20100101 Firefox/134.0","","Firefox","134.0","Windows","10.0","https://app.prolific.com/","en-US,en;q=0.5","6685bda9fe63421c0f632414","679edb085803f58d6bbd31ca","679ee1811e5ee26e9178f22b","","null","<img    src='G_1.jpg' height='90'> <img id='selected'    src='G_2.jpg' height='90'> <img   src='G_5.jpg' height='90'> <img     src='G_8.jpg' height='90'> <img     src='G_3.jpg' height='90'> <img src='G_6.jpg' height='90'> <img src='G_4.jpg' height='90'> <img src='G_7.jpg' height='90'>","null","Animation1","",""
"","","","","","html-keyboard-response","100","96407","0.0-80.0","23","1","2025-02-02 03:29:41","bc01a2b6f61d06f6604adb8657495020","65.128.101.158","Mozilla/5.0 (Windows NT 10.0; Win64; x64; rv:134.0) Gecko/20100101 Firefox/134.0","","Firefox","134.0","Windows","10.0","https://app.prolific.com/","en-US,en;q=0.5","6685bda9fe63421c0f632414","679edb085803f58d6bbd31ca","679ee1811e5ee26e9178f22b","","null","<img    src='G_1.jpg' height='90'> <img id='selected'    src='G_2.jpg' height='90'> <img id='selected'   src='G_5.jpg' height='90'> <img     src='G_8.jpg' height='90'> <img     src='G_3.jpg' height='90'> <img src='G_6.jpg' height='90'> <img src='G_4.jpg' height='90'> <img src='G_7.jpg' height='90'>","null","Animation1","",""
"","","","","","html-keyboard-response","101","96920","0.0-81.0","23","1","2025-02-02 03:29:41","bc01a2b6f61d06f6604adb8657495020","65.128.101.158","Mozilla/5.0 (Windows NT 10.0; Win64; x64; rv:134.0) Gecko/20100101 Firefox/134.0","","Firefox","134.0","Windows","10.0","https://app.prolific.com/","en-US,en;q=0.5","6685bda9fe63421c0f632414","679edb085803f58d6bbd31ca","679ee1811e5ee26e9178f22b","","null","<img    src='G_1.jpg' height='90'> <img id='swapped'   src='G_5.jpg' height='90'> <img id='swapped'    src='G_2.jpg' height='90'> <img     src='G_8.jpg' height='90'> <img     src='G_3.jpg' height='90'> <img src='G_6.jpg' height='90'> <img src='G_4.jpg' height='90'> <img src='G_7.jpg' height='90'>","null","Animation1","",""
"","","","","","html-keyboard-response","102","97232","0.0-82.0","23","1","2025-02-02 03:29:41","bc01a2b6f61d06f6604adb8657495020","65.128.101.158","Mozilla/5.0 (Windows NT 10.0; Win64; x64; rv:134.0) Gecko/20100101 Firefox/134.0","","Firefox","134.0","Windows","10.0","https://app.prolific.com/","en-US,en;q=0.5","6685bda9fe63421c0f632414","679edb085803f58d6bbd31ca","679ee1811e5ee26e9178f22b","","null","<img    src='G_1.jpg' height='90'> <img    src='G_5.jpg' height='90'> <img     src='G_2.jpg' height='90'> <img     src='G_8.jpg' height='90'> <img     src='G_3.jpg' height='90'> <img src='G_6.jpg' height='90'> <img src='G_4.jpg' height='90'> <img src='G_7.jpg' height='90'>","null","Animation1","",""
"","","","","","html-keyboard-response","103","97747","0.0-83.0","23","1","2025-02-02 03:29:41","bc01a2b6f61d06f6604adb8657495020","65.128.101.158","Mozilla/5.0 (Windows NT 10.0; Win64; x64; rv:134.0) Gecko/20100101 Firefox/134.0","","Firefox","134.0","Windows","10.0","https://app.prolific.com/","en-US,en;q=0.5","6685bda9fe63421c0f632414","679edb085803f58d6bbd31ca","679ee1811e5ee26e9178f22b","","null","<img id='selected'    src='G_1.jpg' height='90'> <img    src='G_5.jpg' height='90'> <img     src='G_2.jpg' height='90'> <img     src='G_8.jpg' height='90'> <img     src='G_3.jpg' height='90'> <img src='G_6.jpg' height='90'> <img src='G_4.jpg' height='90'> <img src='G_7.jpg' height='90'>","null","Animation1","",""
"","","","","","html-keyboard-response","104","98263","0.0-84.0","23","1","2025-02-02 03:29:41","bc01a2b6f61d06f6604adb8657495020","65.128.101.158","Mozilla/5.0 (Windows NT 10.0; Win64; x64; rv:134.0) Gecko/20100101 Firefox/134.0","","Firefox","134.0","Windows","10.0","https://app.prolific.com/","en-US,en;q=0.5","6685bda9fe63421c0f632414","679edb085803f58d6bbd31ca","679ee1811e5ee26e9178f22b","","null","<img id='selected'    src='G_1.jpg' height='90'> <img id='selected'    src='G_5.jpg' height='90'> <img     src='G_2.jpg' height='90'> <img     src='G_8.jpg' height='90'> <img     src='G_3.jpg' height='90'> <img src='G_6.jpg' height='90'> <img src='G_4.jpg' height='90'> <img src='G_7.jpg' height='90'>","null","Animation1","",""
"","","","","","html-keyboard-response","105","98782","0.0-85.0","23","1","2025-02-02 03:29:41","bc01a2b6f61d06f6604adb8657495020","65.128.101.158","Mozilla/5.0 (Windows NT 10.0; Win64; x64; rv:134.0) Gecko/20100101 Firefox/134.0","","Firefox","134.0","Windows","10.0","https://app.prolific.com/","en-US,en;q=0.5","6685bda9fe63421c0f632414","679edb085803f58d6bbd31ca","679ee1811e5ee26e9178f22b","","null","<img id='selected'    src='G_1.jpg' height='90'> <img id='selected'    src='G_5.jpg' height='90'> <img     src='G_2.jpg' height='90'> <img     src='G_8.jpg' height='90'> <img     src='G_3.jpg' height='90'> <img src='G_6.jpg' height='90'> <img src='G_4.jpg' height='90'> <img src='G_7.jpg' height='90'>","null","Animation1","",""
"","","","","","html-keyboard-response","106","99093","0.0-86.0","23","1","2025-02-02 03:29:41","bc01a2b6f61d06f6604adb8657495020","65.128.101.158","Mozilla/5.0 (Windows NT 10.0; Win64; x64; rv:134.0) Gecko/20100101 Firefox/134.0","","Firefox","134.0","Windows","10.0","https://app.prolific.com/","en-US,en;q=0.5","6685bda9fe63421c0f632414","679edb085803f58d6bbd31ca","679ee1811e5ee26e9178f22b","","null","<img     src='G_1.jpg' height='90'> <img     src='G_5.jpg' height='90'> <img     src='G_2.jpg' height='90'> <img     src='G_8.jpg' height='90'> <img     src='G_3.jpg' height='90'> <img src='G_6.jpg' height='90'> <img src='G_4.jpg' height='90'> <img src='G_7.jpg' height='90'>","null","Animation1","",""
"","","","","","html-keyboard-response","107","99598","0.0-87.0","23","1","2025-02-02 03:29:41","bc01a2b6f61d06f6604adb8657495020","65.128.101.158","Mozilla/5.0 (Windows NT 10.0; Win64; x64; rv:134.0) Gecko/20100101 Firefox/134.0","","Firefox","134.0","Windows","10.0","https://app.prolific.com/","en-US,en;q=0.5","6685bda9fe63421c0f632414","679edb085803f58d6bbd31ca","679ee1811e5ee26e9178f22b","","null","<img     src='G_1.jpg' height='90'> <img     src='G_5.jpg' height='90'> <img     src='G_2.jpg' height='90'> <img     src='G_8.jpg' height='90'> <img id='selected'     src='G_3.jpg' height='90'> <img src='G_6.jpg' height='90'> <img src='G_4.jpg' height='90'> <img src='G_7.jpg' height='90'>","null","Animation1","",""
"","","","","","html-keyboard-response","108","100116","0.0-88.0","23","1","2025-02-02 03:29:41","bc01a2b6f61d06f6604adb8657495020","65.128.101.158","Mozilla/5.0 (Windows NT 10.0; Win64; x64; rv:134.0) Gecko/20100101 Firefox/134.0","","Firefox","134.0","Windows","10.0","https://app.prolific.com/","en-US,en;q=0.5","6685bda9fe63421c0f632414","679edb085803f58d6bbd31ca","679ee1811e5ee26e9178f22b","","null","<img     src='G_1.jpg' height='90'> <img     src='G_5.jpg' height='90'> <img     src='G_2.jpg' height='90'> <img     src='G_8.jpg' height='90'> <img id='selected'     src='G_3.jpg' height='90'> <img id='selected' src='G_6.jpg' height='90'> <img src='G_4.jpg' height='90'> <img src='G_7.jpg' height='90'>","null","Animation1","",""
"","","","","","html-keyboard-response","109","100630","0.0-89.0","23","1","2025-02-02 03:29:41","bc01a2b6f61d06f6604adb8657495020","65.128.101.158","Mozilla/5.0 (Windows NT 10.0; Win64; x64; rv:134.0) Gecko/20100101 Firefox/134.0","","Firefox","134.0","Windows","10.0","https://app.prolific.com/","en-US,en;q=0.5","6685bda9fe63421c0f632414","679edb085803f58d6bbd31ca","679ee1811e5ee26e9178f22b","","null","<img     src='G_1.jpg' height='90'> <img     src='G_5.jpg' height='90'> <img     src='G_2.jpg' height='90'> <img     src='G_8.jpg' height='90'> <img id='swapped' src='G_6.jpg' height='90'> <img id='swapped'     src='G_3.jpg' height='90'> <img src='G_4.jpg' height='90'> <img src='G_7.jpg' height='90'>","null","Animation1","",""
"","","","","","html-keyboard-response","110","100942","0.0-90.0","23","1","2025-02-02 03:29:41","bc01a2b6f61d06f6604adb8657495020","65.128.101.158","Mozilla/5.0 (Windows NT 10.0; Win64; x64; rv:134.0) Gecko/20100101 Firefox/134.0","","Firefox","134.0","Windows","10.0","https://app.prolific.com/","en-US,en;q=0.5","6685bda9fe63421c0f632414","679edb085803f58d6bbd31ca","679ee1811e5ee26e9178f22b","","null","<img     src='G_1.jpg' height='90'> <img     src='G_5.jpg' height='90'> <img     src='G_2.jpg' height='90'> <img     src='G_8.jpg' height='90'> <img  src='G_6.jpg' height='90'> <img      src='G_3.jpg' height='90'> <img src='G_4.jpg' height='90'> <img src='G_7.jpg' height='90'>","null","Animation1","",""
"","","","","","html-keyboard-response","111","101458","0.0-91.0","23","1","2025-02-02 03:29:41","bc01a2b6f61d06f6604adb8657495020","65.128.101.158","Mozilla/5.0 (Windows NT 10.0; Win64; x64; rv:134.0) Gecko/20100101 Firefox/134.0","","Firefox","134.0","Windows","10.0","https://app.prolific.com/","en-US,en;q=0.5","6685bda9fe63421c0f632414","679edb085803f58d6bbd31ca","679ee1811e5ee26e9178f22b","","null","<img     src='G_1.jpg' height='90'> <img     src='G_5.jpg' height='90'> <img     src='G_2.jpg' height='90'> <img id='selected'     src='G_8.jpg' height='90'> <img  src='G_6.jpg' height='90'> <img      src='G_3.jpg' height='90'> <img src='G_4.jpg' height='90'> <img src='G_7.jpg' height='90'>","null","Animation1","",""
"","","","","","html-keyboard-response","112","101974","0.0-92.0","23","1","2025-02-02 03:29:41","bc01a2b6f61d06f6604adb8657495020","65.128.101.158","Mozilla/5.0 (Windows NT 10.0; Win64; x64; rv:134.0) Gecko/20100101 Firefox/134.0","","Firefox","134.0","Windows","10.0","https://app.prolific.com/","en-US,en;q=0.5","6685bda9fe63421c0f632414","679edb085803f58d6bbd31ca","679ee1811e5ee26e9178f22b","","null","<img     src='G_1.jpg' height='90'> <img     src='G_5.jpg' height='90'> <img     src='G_2.jpg' height='90'> <img id='selected'     src='G_8.jpg' height='90'> <img id='selected'  src='G_6.jpg' height='90'> <img      src='G_3.jpg' height='90'> <img src='G_4.jpg' height='90'> <img src='G_7.jpg' height='90'>","null","Animation1","",""
"","","","","","html-keyboard-response","113","102491","0.0-93.0","23","1","2025-02-02 03:29:41","bc01a2b6f61d06f6604adb8657495020","65.128.101.158","Mozilla/5.0 (Windows NT 10.0; Win64; x64; rv:134.0) Gecko/20100101 Firefox/134.0","","Firefox","134.0","Windows","10.0","https://app.prolific.com/","en-US,en;q=0.5","6685bda9fe63421c0f632414","679edb085803f58d6bbd31ca","679ee1811e5ee26e9178f22b","","null","<img     src='G_1.jpg' height='90'> <img     src='G_5.jpg' height='90'> <img     src='G_2.jpg' height='90'> <img id='selected'     src='G_8.jpg' height='90'> <img id='selected'  src='G_6.jpg' height='90'> <img      src='G_3.jpg' height='90'> <img src='G_4.jpg' height='90'> <img src='G_7.jpg' height='90'>","null","Animation1","",""
"","","","","","html-keyboard-response","114","102805","0.0-94.0","23","1","2025-02-02 03:29:41","bc01a2b6f61d06f6604adb8657495020","65.128.101.158","Mozilla/5.0 (Windows NT 10.0; Win64; x64; rv:134.0) Gecko/20100101 Firefox/134.0","","Firefox","134.0","Windows","10.0","https://app.prolific.com/","en-US,en;q=0.5","6685bda9fe63421c0f632414","679edb085803f58d6bbd31ca","679ee1811e5ee26e9178f22b","","null","<img     src='G_1.jpg' height='90'> <img     src='G_5.jpg' height='90'> <img     src='G_2.jpg' height='90'> <img      src='G_8.jpg' height='90'> <img   src='G_6.jpg' height='90'> <img      src='G_3.jpg' height='90'> <img src='G_4.jpg' height='90'> <img src='G_7.jpg' height='90'>","null","Animation1","",""
"","","","","","html-keyboard-response","115","103331","0.0-95.0","23","1","2025-02-02 03:29:41","bc01a2b6f61d06f6604adb8657495020","65.128.101.158","Mozilla/5.0 (Windows NT 10.0; Win64; x64; rv:134.0) Gecko/20100101 Firefox/134.0","","Firefox","134.0","Windows","10.0","https://app.prolific.com/","en-US,en;q=0.5","6685bda9fe63421c0f632414","679edb085803f58d6bbd31ca","679ee1811e5ee26e9178f22b","","null","<img     src='G_1.jpg' height='90'> <img     src='G_5.jpg' height='90'> <img     src='G_2.jpg' height='90'> <img      src='G_8.jpg' height='90'> <img   src='G_6.jpg' height='90'> <img id='selected'      src='G_3.jpg' height='90'> <img src='G_4.jpg' height='90'> <img src='G_7.jpg' height='90'>","null","Animation1","",""
"","","","","","html-keyboard-response","116","103848","0.0-96.0","23","1","2025-02-02 03:29:41","bc01a2b6f61d06f6604adb8657495020","65.128.101.158","Mozilla/5.0 (Windows NT 10.0; Win64; x64; rv:134.0) Gecko/20100101 Firefox/134.0","","Firefox","134.0","Windows","10.0","https://app.prolific.com/","en-US,en;q=0.5","6685bda9fe63421c0f632414","679edb085803f58d6bbd31ca","679ee1811e5ee26e9178f22b","","null","<img     src='G_1.jpg' height='90'> <img     src='G_5.jpg' height='90'> <img     src='G_2.jpg' height='90'> <img      src='G_8.jpg' height='90'> <img   src='G_6.jpg' height='90'> <img id='selected'      src='G_3.jpg' height='90'> <img id='selected' src='G_4.jpg' height='90'> <img src='G_7.jpg' height='90'>","null","Animation1","",""
"","","","","","html-keyboard-response","117","104366","0.0-97.0","23","1","2025-02-02 03:29:41","bc01a2b6f61d06f6604adb8657495020","65.128.101.158","Mozilla/5.0 (Windows NT 10.0; Win64; x64; rv:134.0) Gecko/20100101 Firefox/134.0","","Firefox","134.0","Windows","10.0","https://app.prolific.com/","en-US,en;q=0.5","6685bda9fe63421c0f632414","679edb085803f58d6bbd31ca","679ee1811e5ee26e9178f22b","","null","<img     src='G_1.jpg' height='90'> <img     src='G_5.jpg' height='90'> <img     src='G_2.jpg' height='90'> <img      src='G_8.jpg' height='90'> <img   src='G_6.jpg' height='90'> <img id='selected'      src='G_3.jpg' height='90'> <img id='selected' src='G_4.jpg' height='90'> <img src='G_7.jpg' height='90'>","null","Animation1","",""
"","","","","","html-keyboard-response","118","104680","0.0-98.0","23","1","2025-02-02 03:29:41","bc01a2b6f61d06f6604adb8657495020","65.128.101.158","Mozilla/5.0 (Windows NT 10.0; Win64; x64; rv:134.0) Gecko/20100101 Firefox/134.0","","Firefox","134.0","Windows","10.0","https://app.prolific.com/","en-US,en;q=0.5","6685bda9fe63421c0f632414","679edb085803f58d6bbd31ca","679ee1811e5ee26e9178f22b","","null","<img     src='G_1.jpg' height='90'> <img     src='G_5.jpg' height='90'> <img     src='G_2.jpg' height='90'> <img      src='G_8.jpg' height='90'> <img   src='G_6.jpg' height='90'> <img       src='G_3.jpg' height='90'> <img  src='G_4.jpg' height='90'> <img src='G_7.jpg' height='90'>","null","Animation1","",""
"","","","","","html-keyboard-response","119","105198","0.0-99.0","23","1","2025-02-02 03:29:41","bc01a2b6f61d06f6604adb8657495020","65.128.101.158","Mozilla/5.0 (Windows NT 10.0; Win64; x64; rv:134.0) Gecko/20100101 Firefox/134.0","","Firefox","134.0","Windows","10.0","https://app.prolific.com/","en-US,en;q=0.5","6685bda9fe63421c0f632414","679edb085803f58d6bbd31ca","679ee1811e5ee26e9178f22b","","null","<img     src='G_1.jpg' height='90'> <img     src='G_5.jpg' height='90'> <img     src='G_2.jpg' height='90'> <img      src='G_8.jpg' height='90'> <img   src='G_6.jpg' height='90'> <img       src='G_3.jpg' height='90'> <img id='selected'  src='G_4.jpg' height='90'> <img src='G_7.jpg' height='90'>","null","Animation1","",""
"","","","","","html-keyboard-response","120","105710","0.0-100.0","23","1","2025-02-02 03:29:41","bc01a2b6f61d06f6604adb8657495020","65.128.101.158","Mozilla/5.0 (Windows NT 10.0; Win64; x64; rv:134.0) Gecko/20100101 Firefox/134.0","","Firefox","134.0","Windows","10.0","https://app.prolific.com/","en-US,en;q=0.5","6685bda9fe63421c0f632414","679edb085803f58d6bbd31ca","679ee1811e5ee26e9178f22b","","null","<img     src='G_1.jpg' height='90'> <img     src='G_5.jpg' height='90'> <img     src='G_2.jpg' height='90'> <img      src='G_8.jpg' height='90'> <img   src='G_6.jpg' height='90'> <img       src='G_3.jpg' height='90'> <img id='selected'  src='G_4.jpg' height='90'> <img id='selected' src='G_7.jpg' height='90'>","null","Animation1","",""
"","","","","","html-keyboard-response","121","106231","0.0-101.0","23","1","2025-02-02 03:29:41","bc01a2b6f61d06f6604adb8657495020","65.128.101.158","Mozilla/5.0 (Windows NT 10.0; Win64; x64; rv:134.0) Gecko/20100101 Firefox/134.0","","Firefox","134.0","Windows","10.0","https://app.prolific.com/","en-US,en;q=0.5","6685bda9fe63421c0f632414","679edb085803f58d6bbd31ca","679ee1811e5ee26e9178f22b","","null","<img     src='G_1.jpg' height='90'> <img     src='G_5.jpg' height='90'> <img     src='G_2.jpg' height='90'> <img      src='G_8.jpg' height='90'> <img   src='G_6.jpg' height='90'> <img       src='G_3.jpg' height='90'> <img id='swapped' src='G_7.jpg' height='90'> <img id='swapped'  src='G_4.jpg' height='90'>","null","Animation1","",""
"","","","","","html-keyboard-response","122","106544","0.0-102.0","23","1","2025-02-02 03:29:41","bc01a2b6f61d06f6604adb8657495020","65.128.101.158","Mozilla/5.0 (Windows NT 10.0; Win64; x64; rv:134.0) Gecko/20100101 Firefox/134.0","","Firefox","134.0","Windows","10.0","https://app.prolific.com/","en-US,en;q=0.5","6685bda9fe63421c0f632414","679edb085803f58d6bbd31ca","679ee1811e5ee26e9178f22b","","null","<img     src='G_1.jpg' height='90'> <img     src='G_5.jpg' height='90'> <img     src='G_2.jpg' height='90'> <img      src='G_8.jpg' height='90'> <img   src='G_6.jpg' height='90'> <img       src='G_3.jpg' height='90'> <img  src='G_7.jpg' height='90'> <img   src='G_4.jpg' height='90'>","null","Animation1","",""
"","","","","","html-keyboard-response","123","107062","0.0-103.0","23","1","2025-02-02 03:29:41","bc01a2b6f61d06f6604adb8657495020","65.128.101.158","Mozilla/5.0 (Windows NT 10.0; Win64; x64; rv:134.0) Gecko/20100101 Firefox/134.0","","Firefox","134.0","Windows","10.0","https://app.prolific.com/","en-US,en;q=0.5","6685bda9fe63421c0f632414","679edb085803f58d6bbd31ca","679ee1811e5ee26e9178f22b","","null","<img     src='G_1.jpg' height='90'> <img     src='G_5.jpg' height='90'> <img     src='G_2.jpg' height='90'> <img      src='G_8.jpg' height='90'> <img   src='G_6.jpg' height='90'> <img id='selected'       src='G_3.jpg' height='90'> <img  src='G_7.jpg' height='90'> <img   src='G_4.jpg' height='90'>","null","Animation1","",""
"","","","","","html-keyboard-response","124","107578","0.0-104.0","23","1","2025-02-02 03:29:41","bc01a2b6f61d06f6604adb8657495020","65.128.101.158","Mozilla/5.0 (Windows NT 10.0; Win64; x64; rv:134.0) Gecko/20100101 Firefox/134.0","","Firefox","134.0","Windows","10.0","https://app.prolific.com/","en-US,en;q=0.5","6685bda9fe63421c0f632414","679edb085803f58d6bbd31ca","679ee1811e5ee26e9178f22b","","null","<img     src='G_1.jpg' height='90'> <img     src='G_5.jpg' height='90'> <img     src='G_2.jpg' height='90'> <img      src='G_8.jpg' height='90'> <img   src='G_6.jpg' height='90'> <img id='selected'       src='G_3.jpg' height='90'> <img id='selected'  src='G_7.jpg' height='90'> <img   src='G_4.jpg' height='90'>","null","Animation1","",""
"","","","","","html-keyboard-response","125","108096","0.0-105.0","23","1","2025-02-02 03:29:41","bc01a2b6f61d06f6604adb8657495020","65.128.101.158","Mozilla/5.0 (Windows NT 10.0; Win64; x64; rv:134.0) Gecko/20100101 Firefox/134.0","","Firefox","134.0","Windows","10.0","https://app.prolific.com/","en-US,en;q=0.5","6685bda9fe63421c0f632414","679edb085803f58d6bbd31ca","679ee1811e5ee26e9178f22b","","null","<img     src='G_1.jpg' height='90'> <img     src='G_5.jpg' height='90'> <img     src='G_2.jpg' height='90'> <img      src='G_8.jpg' height='90'> <img   src='G_6.jpg' height='90'> <img id='selected'       src='G_3.jpg' height='90'> <img id='selected'  src='G_7.jpg' height='90'> <img   src='G_4.jpg' height='90'>","null","Animation1","",""
"","","","","","html-keyboard-response","126","108411","0.0-106.0","23","1","2025-02-02 03:29:41","bc01a2b6f61d06f6604adb8657495020","65.128.101.158","Mozilla/5.0 (Windows NT 10.0; Win64; x64; rv:134.0) Gecko/20100101 Firefox/134.0","","Firefox","134.0","Windows","10.0","https://app.prolific.com/","en-US,en;q=0.5","6685bda9fe63421c0f632414","679edb085803f58d6bbd31ca","679ee1811e5ee26e9178f22b","","null","<img     src='G_1.jpg' height='90'> <img     src='G_5.jpg' height='90'> <img     src='G_2.jpg' height='90'> <img      src='G_8.jpg' height='90'> <img   src='G_6.jpg' height='90'> <img        src='G_3.jpg' height='90'> <img   src='G_7.jpg' height='90'> <img   src='G_4.jpg' height='90'>","null","Animation1","",""
"","","","","","html-keyboard-response","127","109771","0.0-107.0","23","1","2025-02-02 03:29:41","bc01a2b6f61d06f6604adb8657495020","65.128.101.158","Mozilla/5.0 (Windows NT 10.0; Win64; x64; rv:134.0) Gecko/20100101 Firefox/134.0","","Firefox","134.0","Windows","10.0","https://app.prolific.com/","en-US,en;q=0.5","6685bda9fe63421c0f632414","679edb085803f58d6bbd31ca","679ee1811e5ee26e9178f22b","","1357","[""Did you notice any patterns? <br><br>Press Enter to watch that example again and follow the steps of Omgne Sort.""]","enter","","",""
"","","","","","html-button-response","128","110213","0.0-108.0","23","1","2025-02-02 03:29:41","bc01a2b6f61d06f6604adb8657495020","65.128.101.158","Mozilla/5.0 (Windows NT 10.0; Win64; x64; rv:134.0) Gecko/20100101 Firefox/134.0","","Firefox","134.0","Windows","10.0","https://app.prolific.com/","en-US,en;q=0.5","6685bda9fe63421c0f632414","679edb085803f58d6bbd31ca","679ee1811e5ee26e9178f22b","","null","<img id='selected' src='G_8.jpg' height='90'> <img src='G_3.jpg' height='90'> <img src='G_2.jpg' height='90'> <img src='G_1.jpg' height='90'> <img src='G_5.jpg' height='90'> <img src='G_6.jpg' height='90'> <img src='G_4.jpg' height='90'> <img src='G_7.jpg' height='90'>","null","Learning example 1","",""
"","","","","","html-button-response","129","110522","0.0-109.0","23","1","2025-02-02 03:29:41","bc01a2b6f61d06f6604adb8657495020","65.128.101.158","Mozilla/5.0 (Windows NT 10.0; Win64; x64; rv:134.0) Gecko/20100101 Firefox/134.0","","Firefox","134.0","Windows","10.0","https://app.prolific.com/","en-US,en;q=0.5","6685bda9fe63421c0f632414","679edb085803f58d6bbd31ca","679ee1811e5ee26e9178f22b","","null","<img id='selected' src='G_8.jpg' height='90'> <img id='selected' src='G_3.jpg' height='90'> <img src='G_2.jpg' height='90'> <img src='G_1.jpg' height='90'> <img src='G_5.jpg' height='90'> <img src='G_6.jpg' height='90'> <img src='G_4.jpg' height='90'> <img src='G_7.jpg' height='90'>","null","Learning example 1","",""
"","","","","","html-button-response","130","110834","0.0-110.0","23","1","2025-02-02 03:29:41","bc01a2b6f61d06f6604adb8657495020","65.128.101.158","Mozilla/5.0 (Windows NT 10.0; Win64; x64; rv:134.0) Gecko/20100101 Firefox/134.0","","Firefox","134.0","Windows","10.0","https://app.prolific.com/","en-US,en;q=0.5","6685bda9fe63421c0f632414","679edb085803f58d6bbd31ca","679ee1811e5ee26e9178f22b","","null","<img id='selected' src='G_8.jpg' height='90'> <img id='selected' src='G_3.jpg' height='90'> <img src='G_2.jpg' height='90'> <img src='G_1.jpg' height='90'> <img src='G_5.jpg' height='90'> <img src='G_6.jpg' height='90'> <img src='G_4.jpg' height='90'> <img src='G_7.jpg' height='90'>","null","Learning example 1","",""
"","","","","","html-button-response","131","111117","0.0-111.0-0.0-0.0","23","1","2025-02-02 03:29:41","bc01a2b6f61d06f6604adb8657495020","65.128.101.158","Mozilla/5.0 (Windows NT 10.0; Win64; x64; rv:134.0) Gecko/20100101 Firefox/134.0","","Firefox","134.0","Windows","10.0","https://app.prolific.com/","en-US,en;q=0.5","6685bda9fe63421c0f632414","679edb085803f58d6bbd31ca","679ee1811e5ee26e9178f22b","","277","<img id='selected' src='G_8.jpg' height='90'> <img id='selected' src='G_3.jpg' height='90'> <img src='G_2.jpg' height='90'> <img src='G_1.jpg' height='90'> <img src='G_5.jpg' height='90'> <img src='G_6.jpg' height='90'> <img src='G_4.jpg' height='90'> <img src='G_7.jpg' height='90'>","0","Learning example 1","",""
"","","","","","html-button-response","132","111702","0.0-111.1-0.1-0.1","23","1","2025-02-02 03:29:41","bc01a2b6f61d06f6604adb8657495020","65.128.101.158","Mozilla/5.0 (Windows NT 10.0; Win64; x64; rv:134.0) Gecko/20100101 Firefox/134.0","","Firefox","134.0","Windows","10.0","https://app.prolific.com/","en-US,en;q=0.5","6685bda9fe63421c0f632414","679edb085803f58d6bbd31ca","679ee1811e5ee26e9178f22b","","579","<img id='selected' src='G_8.jpg' height='90'> <img id='selected' src='G_3.jpg' height='90'> <img src='G_2.jpg' height='90'> <img src='G_1.jpg' height='90'> <img src='G_5.jpg' height='90'> <img src='G_6.jpg' height='90'> <img src='G_4.jpg' height='90'> <img src='G_7.jpg' height='90'>","1","Learning example 1","",""
"","","","","","html-button-response","133","111913","0.0-112.0","23","1","2025-02-02 03:29:41","bc01a2b6f61d06f6604adb8657495020","65.128.101.158","Mozilla/5.0 (Windows NT 10.0; Win64; x64; rv:134.0) Gecko/20100101 Firefox/134.0","","Firefox","134.0","Windows","10.0","https://app.prolific.com/","en-US,en;q=0.5","6685bda9fe63421c0f632414","679edb085803f58d6bbd31ca","679ee1811e5ee26e9178f22b","","null","<img  src='G_8.jpg' height='90'> <img  src='G_3.jpg' height='90'> <img src='G_2.jpg' height='90'> <img src='G_1.jpg' height='90'> <img src='G_5.jpg' height='90'> <img src='G_6.jpg' height='90'> <img src='G_4.jpg' height='90'> <img src='G_7.jpg' height='90'>","null","Learning example 1","",""
"","","","","","html-button-response","134","112349","0.0-113.0","23","1","2025-02-02 03:29:41","bc01a2b6f61d06f6604adb8657495020","65.128.101.158","Mozilla/5.0 (Windows NT 10.0; Win64; x64; rv:134.0) Gecko/20100101 Firefox/134.0","","Firefox","134.0","Windows","10.0","https://app.prolific.com/","en-US,en;q=0.5","6685bda9fe63421c0f632414","679edb085803f58d6bbd31ca","679ee1811e5ee26e9178f22b","","null","<img  src='G_8.jpg' height='90'> <img id='selected'  src='G_3.jpg' height='90'> <img src='G_2.jpg' height='90'> <img src='G_1.jpg' height='90'> <img src='G_5.jpg' height='90'> <img src='G_6.jpg' height='90'> <img src='G_4.jpg' height='90'> <img src='G_7.jpg' height='90'>","null","Learning example 1","",""
"","","","","","html-button-response","135","112621","0.0-114.0","23","1","2025-02-02 03:29:41","bc01a2b6f61d06f6604adb8657495020","65.128.101.158","Mozilla/5.0 (Windows NT 10.0; Win64; x64; rv:134.0) Gecko/20100101 Firefox/134.0","","Firefox","134.0","Windows","10.0","https://app.prolific.com/","en-US,en;q=0.5","6685bda9fe63421c0f632414","679edb085803f58d6bbd31ca","679ee1811e5ee26e9178f22b","","258","<img  src='G_8.jpg' height='90'> <img id='selected'  src='G_3.jpg' height='90'> <img id='selected' src='G_2.jpg' height='90'> <img src='G_1.jpg' height='90'> <img src='G_5.jpg' height='90'> <img src='G_6.jpg' height='90'> <img src='G_4.jpg' height='90'> <img src='G_7.jpg' height='90'>","1","Learning example 1","",""
"","","","","","html-button-response","136","112941","0.0-115.0","23","1","2025-02-02 03:29:41","bc01a2b6f61d06f6604adb8657495020","65.128.101.158","Mozilla/5.0 (Windows NT 10.0; Win64; x64; rv:134.0) Gecko/20100101 Firefox/134.0","","Firefox","134.0","Windows","10.0","https://app.prolific.com/","en-US,en;q=0.5","6685bda9fe63421c0f632414","679edb085803f58d6bbd31ca","679ee1811e5ee26e9178f22b","","null","<img  src='G_8.jpg' height='90'> <img id='swapped' src='G_2.jpg' height='90'> <img id='swapped'  src='G_3.jpg' height='90'> <img src='G_1.jpg' height='90'> <img src='G_5.jpg' height='90'> <img src='G_6.jpg' height='90'> <img src='G_4.jpg' height='90'> <img src='G_7.jpg' height='90'>","null","Learning example 1","",""
"","","","","","html-button-response","137","113274","0.0-116.0-0.0-0.0","23","1","2025-02-02 03:29:41","bc01a2b6f61d06f6604adb8657495020","65.128.101.158","Mozilla/5.0 (Windows NT 10.0; Win64; x64; rv:134.0) Gecko/20100101 Firefox/134.0","","Firefox","134.0","Windows","10.0","https://app.prolific.com/","en-US,en;q=0.5","6685bda9fe63421c0f632414","679edb085803f58d6bbd31ca","679ee1811e5ee26e9178f22b","","326","<img  src='G_8.jpg' height='90'> <img id='swapped' src='G_2.jpg' height='90'> <img id='swapped'  src='G_3.jpg' height='90'> <img src='G_1.jpg' height='90'> <img src='G_5.jpg' height='90'> <img src='G_6.jpg' height='90'> <img src='G_4.jpg' height='90'> <img src='G_7.jpg' height='90'>","1","Learning example 1","",""
"","","","","","html-button-response","138","113763","0.0-116.1-0.1-0.1","23","1","2025-02-02 03:29:41","bc01a2b6f61d06f6604adb8657495020","65.128.101.158","Mozilla/5.0 (Windows NT 10.0; Win64; x64; rv:134.0) Gecko/20100101 Firefox/134.0","","Firefox","134.0","Windows","10.0","https://app.prolific.com/","en-US,en;q=0.5","6685bda9fe63421c0f632414","679edb085803f58d6bbd31ca","679ee1811e5ee26e9178f22b","","484","<img  src='G_8.jpg' height='90'> <img id='swapped' src='G_2.jpg' height='90'> <img id='swapped'  src='G_3.jpg' height='90'> <img src='G_1.jpg' height='90'> <img src='G_5.jpg' height='90'> <img src='G_6.jpg' height='90'> <img src='G_4.jpg' height='90'> <img src='G_7.jpg' height='90'>","2","Learning example 1","",""
"","","","","","html-button-response","139","113970","0.0-117.0","23","1","2025-02-02 03:29:41","bc01a2b6f61d06f6604adb8657495020","65.128.101.158","Mozilla/5.0 (Windows NT 10.0; Win64; x64; rv:134.0) Gecko/20100101 Firefox/134.0","","Firefox","134.0","Windows","10.0","https://app.prolific.com/","en-US,en;q=0.5","6685bda9fe63421c0f632414","679edb085803f58d6bbd31ca","679ee1811e5ee26e9178f22b","","null","<img  src='G_8.jpg' height='90'> <img  src='G_2.jpg' height='90'> <img   src='G_3.jpg' height='90'> <img src='G_1.jpg' height='90'> <img src='G_5.jpg' height='90'> <img src='G_6.jpg' height='90'> <img src='G_4.jpg' height='90'> <img src='G_7.jpg' height='90'>","null","Learning example 1","",""
"","","","","","html-button-response","140","114376","0.0-118.0","23","1","2025-02-02 03:29:41","bc01a2b6f61d06f6604adb8657495020","65.128.101.158","Mozilla/5.0 (Windows NT 10.0; Win64; x64; rv:134.0) Gecko/20100101 Firefox/134.0","","Firefox","134.0","Windows","10.0","https://app.prolific.com/","en-US,en;q=0.5","6685bda9fe63421c0f632414","679edb085803f58d6bbd31ca","679ee1811e5ee26e9178f22b","","null","<img id='selected'  src='G_8.jpg' height='90'> <img  src='G_2.jpg' height='90'> <img   src='G_3.jpg' height='90'> <img src='G_1.jpg' height='90'> <img src='G_5.jpg' height='90'> <img src='G_6.jpg' height='90'> <img src='G_4.jpg' height='90'> <img src='G_7.jpg' height='90'>","null","Learning example 1","",""
"","","","","","html-button-response","141","114688","0.0-119.0","23","1","2025-02-02 03:29:41","bc01a2b6f61d06f6604adb8657495020","65.128.101.158","Mozilla/5.0 (Windows NT 10.0; Win64; x64; rv:134.0) Gecko/20100101 Firefox/134.0","","Firefox","134.0","Windows","10.0","https://app.prolific.com/","en-US,en;q=0.5","6685bda9fe63421c0f632414","679edb085803f58d6bbd31ca","679ee1811e5ee26e9178f22b","","null","<img id='selected'  src='G_8.jpg' height='90'> <img id='selected'  src='G_2.jpg' height='90'> <img   src='G_3.jpg' height='90'> <img src='G_1.jpg' height='90'> <img src='G_5.jpg' height='90'> <img src='G_6.jpg' height='90'> <img src='G_4.jpg' height='90'> <img src='G_7.jpg' height='90'>","null","Learning example 1","",""
"","","","","","html-button-response","142","115003","0.0-120.0","23","1","2025-02-02 03:29:41","bc01a2b6f61d06f6604adb8657495020","65.128.101.158","Mozilla/5.0 (Windows NT 10.0; Win64; x64; rv:134.0) Gecko/20100101 Firefox/134.0","","Firefox","134.0","Windows","10.0","https://app.prolific.com/","en-US,en;q=0.5","6685bda9fe63421c0f632414","679edb085803f58d6bbd31ca","679ee1811e5ee26e9178f22b","","null","<img id='swapped'  src='G_2.jpg' height='90'> <img id='swapped'  src='G_8.jpg' height='90'> <img   src='G_3.jpg' height='90'> <img src='G_1.jpg' height='90'> <img src='G_5.jpg' height='90'> <img src='G_6.jpg' height='90'> <img src='G_4.jpg' height='90'> <img src='G_7.jpg' height='90'>","null","Learning example 1","",""
"","","","","","html-button-response","143","115594","0.0-121.0-0.0-0.0","23","1","2025-02-02 03:29:41","bc01a2b6f61d06f6604adb8657495020","65.128.101.158","Mozilla/5.0 (Windows NT 10.0; Win64; x64; rv:134.0) Gecko/20100101 Firefox/134.0","","Firefox","134.0","Windows","10.0","https://app.prolific.com/","en-US,en;q=0.5","6685bda9fe63421c0f632414","679edb085803f58d6bbd31ca","679ee1811e5ee26e9178f22b","","586","<img id='swapped'  src='G_2.jpg' height='90'> <img id='swapped'  src='G_8.jpg' height='90'> <img   src='G_3.jpg' height='90'> <img src='G_1.jpg' height='90'> <img src='G_5.jpg' height='90'> <img src='G_6.jpg' height='90'> <img src='G_4.jpg' height='90'> <img src='G_7.jpg' height='90'>","0","Learning example 1","",""
"","","","","","html-button-response","144","116014","0.0-121.1-0.1-0.1","23","1","2025-02-02 03:29:41","bc01a2b6f61d06f6604adb8657495020","65.128.101.158","Mozilla/5.0 (Windows NT 10.0; Win64; x64; rv:134.0) Gecko/20100101 Firefox/134.0","","Firefox","134.0","Windows","10.0","https://app.prolific.com/","en-US,en;q=0.5","6685bda9fe63421c0f632414","679edb085803f58d6bbd31ca","679ee1811e5ee26e9178f22b","","415","<img id='swapped'  src='G_2.jpg' height='90'> <img id='swapped'  src='G_8.jpg' height='90'> <img   src='G_3.jpg' height='90'> <img src='G_1.jpg' height='90'> <img src='G_5.jpg' height='90'> <img src='G_6.jpg' height='90'> <img src='G_4.jpg' height='90'> <img src='G_7.jpg' height='90'>","1","Learning example 1","",""
"","","","","","html-button-response","145","116221","0.0-122.0","23","1","2025-02-02 03:29:41","bc01a2b6f61d06f6604adb8657495020","65.128.101.158","Mozilla/5.0 (Windows NT 10.0; Win64; x64; rv:134.0) Gecko/20100101 Firefox/134.0","","Firefox","134.0","Windows","10.0","https://app.prolific.com/","en-US,en;q=0.5","6685bda9fe63421c0f632414","679edb085803f58d6bbd31ca","679ee1811e5ee26e9178f22b","","null","<img   src='G_2.jpg' height='90'> <img   src='G_8.jpg' height='90'> <img   src='G_3.jpg' height='90'> <img src='G_1.jpg' height='90'> <img src='G_5.jpg' height='90'> <img src='G_6.jpg' height='90'> <img src='G_4.jpg' height='90'> <img src='G_7.jpg' height='90'>","null","Learning example 1","",""
"","","","","","html-button-response","146","116630","0.0-123.0","23","1","2025-02-02 03:29:41","bc01a2b6f61d06f6604adb8657495020","65.128.101.158","Mozilla/5.0 (Windows NT 10.0; Win64; x64; rv:134.0) Gecko/20100101 Firefox/134.0","","Firefox","134.0","Windows","10.0","https://app.prolific.com/","en-US,en;q=0.5","6685bda9fe63421c0f632414","679edb085803f58d6bbd31ca","679ee1811e5ee26e9178f22b","","null","<img   src='G_2.jpg' height='90'> <img   src='G_8.jpg' height='90'> <img id='selected'   src='G_3.jpg' height='90'> <img src='G_1.jpg' height='90'> <img src='G_5.jpg' height='90'> <img src='G_6.jpg' height='90'> <img src='G_4.jpg' height='90'> <img src='G_7.jpg' height='90'>","null","Learning example 1","",""
"","","","","","html-button-response","147","116942","0.0-124.0","23","1","2025-02-02 03:29:41","bc01a2b6f61d06f6604adb8657495020","65.128.101.158","Mozilla/5.0 (Windows NT 10.0; Win64; x64; rv:134.0) Gecko/20100101 Firefox/134.0","","Firefox","134.0","Windows","10.0","https://app.prolific.com/","en-US,en;q=0.5","6685bda9fe63421c0f632414","679edb085803f58d6bbd31ca","679ee1811e5ee26e9178f22b","","null","<img   src='G_2.jpg' height='90'> <img   src='G_8.jpg' height='90'> <img id='selected'   src='G_3.jpg' height='90'> <img id='selected' src='G_1.jpg' height='90'> <img src='G_5.jpg' height='90'> <img src='G_6.jpg' height='90'> <img src='G_4.jpg' height='90'> <img src='G_7.jpg' height='90'>","null","Learning example 1","",""
"","","","","","html-button-response","148","117254","0.0-125.0","23","1","2025-02-02 03:29:41","bc01a2b6f61d06f6604adb8657495020","65.128.101.158","Mozilla/5.0 (Windows NT 10.0; Win64; x64; rv:134.0) Gecko/20100101 Firefox/134.0","","Firefox","134.0","Windows","10.0","https://app.prolific.com/","en-US,en;q=0.5","6685bda9fe63421c0f632414","679edb085803f58d6bbd31ca","679ee1811e5ee26e9178f22b","","null","<img   src='G_2.jpg' height='90'> <img   src='G_8.jpg' height='90'> <img id='swapped' src='G_1.jpg' height='90'> <img id='swapped'   src='G_3.jpg' height='90'> <img src='G_5.jpg' height='90'> <img src='G_6.jpg' height='90'> <img src='G_4.jpg' height='90'> <img src='G_7.jpg' height='90'>","null","Learning example 1","",""
"","","","","","html-button-response","149","117384","0.0-126.0-0.0-0.0","23","1","2025-02-02 03:29:41","bc01a2b6f61d06f6604adb8657495020","65.128.101.158","Mozilla/5.0 (Windows NT 10.0; Win64; x64; rv:134.0) Gecko/20100101 Firefox/134.0","","Firefox","134.0","Windows","10.0","https://app.prolific.com/","en-US,en;q=0.5","6685bda9fe63421c0f632414","679edb085803f58d6bbd31ca","679ee1811e5ee26e9178f22b","","125","<img   src='G_2.jpg' height='90'> <img   src='G_8.jpg' height='90'> <img id='swapped' src='G_1.jpg' height='90'> <img id='swapped'   src='G_3.jpg' height='90'> <img src='G_5.jpg' height='90'> <img src='G_6.jpg' height='90'> <img src='G_4.jpg' height='90'> <img src='G_7.jpg' height='90'>","2","Learning example 1","",""
"","","","","","html-button-response","150","118078","0.0-126.1-0.1-0.1","23","1","2025-02-02 03:29:41","bc01a2b6f61d06f6604adb8657495020","65.128.101.158","Mozilla/5.0 (Windows NT 10.0; Win64; x64; rv:134.0) Gecko/20100101 Firefox/134.0","","Firefox","134.0","Windows","10.0","https://app.prolific.com/","en-US,en;q=0.5","6685bda9fe63421c0f632414","679edb085803f58d6bbd31ca","679ee1811e5ee26e9178f22b","","690","<img   src='G_2.jpg' height='90'> <img   src='G_8.jpg' height='90'> <img id='swapped' src='G_1.jpg' height='90'> <img id='swapped'   src='G_3.jpg' height='90'> <img src='G_5.jpg' height='90'> <img src='G_6.jpg' height='90'> <img src='G_4.jpg' height='90'> <img src='G_7.jpg' height='90'>","3","Learning example 1","",""
"","","","","","html-button-response","151","118283","0.0-127.0","23","1","2025-02-02 03:29:41","bc01a2b6f61d06f6604adb8657495020","65.128.101.158","Mozilla/5.0 (Windows NT 10.0; Win64; x64; rv:134.0) Gecko/20100101 Firefox/134.0","","Firefox","134.0","Windows","10.0","https://app.prolific.com/","en-US,en;q=0.5","6685bda9fe63421c0f632414","679edb085803f58d6bbd31ca","679ee1811e5ee26e9178f22b","","null","<img   src='G_2.jpg' height='90'> <img   src='G_8.jpg' height='90'> <img  src='G_1.jpg' height='90'> <img    src='G_3.jpg' height='90'> <img src='G_5.jpg' height='90'> <img src='G_6.jpg' height='90'> <img src='G_4.jpg' height='90'> <img src='G_7.jpg' height='90'>","null","Learning example 1","",""
