"success","timeout","failed_images","failed_audio","failed_video","trial_type","trial_index","time_elapsed","internal_node_id","run_id","condition","recorded_at","source_code_version","ip","user_agent","device","browser","browser_version","platform","platform_version","referer","accept_language","PROLIFIC_PID","STUDY_ID","SESSION_ID","view_history","rt","stimulus","response","phase","question_order","presented_choices"
"true","false","[]","[]","[]","preload","0","161","0.0-0.0","26","1","2025-02-02 03:40:20","bc01a2b6f61d06f6604adb8657495020","24.148.13.102","Mozilla/5.0 (Macintosh; Intel Mac OS X 10_15_7) AppleWebKit/537.36 (KHTML, like Gecko) Chrome/131.0.0.0 Safari/537.36","Macintosh","Chrome","131.0.0.0","OS X","10_15_7","https://app.prolific.com/","en-US,en;q=0.9","5a79f14a8fe2dc00010593eb","679edb085803f58d6bbd31ca","679ee91930a8554a52bb801d","","","","","","",""
"","","","","","instructions","1","4421","0.0-1.0","26","1","2025-02-02 03:40:20","bc01a2b6f61d06f6604adb8657495020","24.148.13.102","Mozilla/5.0 (Macintosh; Intel Mac OS X 10_15_7) AppleWebKit/537.36 (KHTML, like Gecko) Chrome/131.0.0.0 Safari/537.36","Macintosh","Chrome","131.0.0.0","OS X","10_15_7","https://app.prolific.com/","en-US,en;q=0.9","5a79f14a8fe2dc00010593eb","679edb085803f58d6bbd31ca","679ee91930a8554a52bb801d","[{""page_index"":0,""viewing_time"":4258}]","4259","","","","",""
"","","","","","html-keyboard-response","2","4923","0.0-2.0","26","1","2025-02-02 03:40:20","bc01a2b6f61d06f6604adb8657495020","24.148.13.102","Mozilla/5.0 (Macintosh; Intel Mac OS X 10_15_7) AppleWebKit/537.36 (KHTML, like Gecko) Chrome/131.0.0.0 Safari/537.36","Macintosh","Chrome","131.0.0.0","OS X","10_15_7","https://app.prolific.com/","en-US,en;q=0.9","5a79f14a8fe2dc00010593eb","679edb085803f58d6bbd31ca","679ee91930a8554a52bb801d","","null","<p> + <p/>","null","","",""
"","","","","","instructions","3","23490","0.0-3.0","26","1","2025-02-02 03:40:20","bc01a2b6f61d06f6604adb8657495020","24.148.13.102","Mozilla/5.0 (Macintosh; Intel Mac OS X 10_15_7) AppleWebKit/537.36 (KHTML, like Gecko) Chrome/131.0.0.0 Safari/537.36","Macintosh","Chrome","131.0.0.0","OS X","10_15_7","https://app.prolific.com/","en-US,en;q=0.9","5a79f14a8fe2dc00010593eb","679edb085803f58d6bbd31ca","679ee91930a8554a52bb801d","[{""page_index"":0,""viewing_time"":1503},{""page_index"":1,""viewing_time"":4951},{""page_index"":2,""viewing_time"":5245},{""page_index"":3,""viewing_time"":2694},{""page_index"":4,""viewing_time"":4172}]","18564","","","","",""
"","","","","","html-button-response","4","42404","0.0-4.0-0.0-0.0","26","1","2025-02-02 03:40:20","bc01a2b6f61d06f6604adb8657495020","24.148.13.102","Mozilla/5.0 (Macintosh; Intel Mac OS X 10_15_7) AppleWebKit/537.36 (KHTML, like Gecko) Chrome/131.0.0.0 Safari/537.36","Macintosh","Chrome","131.0.0.0","OS X","10_15_7","https://app.prolific.com/","en-US,en;q=0.9","5a79f14a8fe2dc00010593eb","679edb085803f58d6bbd31ca","679ee91930a8554a52bb801d","","18901","","2","Intro Trial","",""
"","","","","","html-button-response","5","43372","0.0-4.1-0.1-0.1","26","1","2025-02-02 03:40:20","bc01a2b6f61d06f6604adb8657495020","24.148.13.102","Mozilla/5.0 (Macintosh; Intel Mac OS X 10_15_7) AppleWebKit/537.36 (KHTML, like Gecko) Chrome/131.0.0.0 Safari/537.36","Macintosh","Chrome","131.0.0.0","OS X","10_15_7","https://app.prolific.com/","en-US,en;q=0.9","5a79f14a8fe2dc00010593eb","679edb085803f58d6bbd31ca","679ee91930a8554a52bb801d","","964","","4","Intro Trial","",""
"","","","","","html-button-response","6","49003","0.0-4.2-0.2-0.2","26","1","2025-02-02 03:40:20","bc01a2b6f61d06f6604adb8657495020","24.148.13.102","Mozilla/5.0 (Macintosh; Intel Mac OS X 10_15_7) AppleWebKit/537.36 (KHTML, like Gecko) Chrome/131.0.0.0 Safari/537.36","Macintosh","Chrome","131.0.0.0","OS X","10_15_7","https://app.prolific.com/","en-US,en;q=0.9","5a79f14a8fe2dc00010593eb","679edb085803f58d6bbd31ca","679ee91930a8554a52bb801d","","5630","","3","Intro Trial","",""
"","","","","","html-button-response","7","49673","0.0-4.3-0.3-0.3","26","1","2025-02-02 03:40:20","bc01a2b6f61d06f6604adb8657495020","24.148.13.102","Mozilla/5.0 (Macintosh; Intel Mac OS X 10_15_7) AppleWebKit/537.36 (KHTML, like Gecko) Chrome/131.0.0.0 Safari/537.36","Macintosh","Chrome","131.0.0.0","OS X","10_15_7","https://app.prolific.com/","en-US,en;q=0.9","5a79f14a8fe2dc00010593eb","679edb085803f58d6bbd31ca","679ee91930a8554a52bb801d","","668","","1","Intro Trial","",""
"","","","","","html-button-response","8","57370","0.0-4.4-0.4-0.4","26","1","2025-02-02 03:40:20","bc01a2b6f61d06f6604adb8657495020","24.148.13.102","Mozilla/5.0 (Macintosh; Intel Mac OS X 10_15_7) AppleWebKit/537.36 (KHTML, like Gecko) Chrome/131.0.0.0 Safari/537.36","Macintosh","Chrome","131.0.0.0","OS X","10_15_7","https://app.prolific.com/","en-US,en;q=0.9","5a79f14a8fe2dc00010593eb","679edb085803f58d6bbd31ca","679ee91930a8554a52bb801d","","7695","","0","Intro Trial","",""
"","","","","","html-button-response","9","58038","0.0-4.5-0.5-0.5","26","1","2025-02-02 03:40:20","bc01a2b6f61d06f6604adb8657495020","24.148.13.102","Mozilla/5.0 (Macintosh; Intel Mac OS X 10_15_7) AppleWebKit/537.36 (KHTML, like Gecko) Chrome/131.0.0.0 Safari/537.36","Macintosh","Chrome","131.0.0.0","OS X","10_15_7","https://app.prolific.com/","en-US,en;q=0.9","5a79f14a8fe2dc00010593eb","679edb085803f58d6bbd31ca","679ee91930a8554a52bb801d","","666","","1","Intro Trial","",""
"","","","","","html-button-response","10","62670","0.0-4.6-0.6-0.6","26","1","2025-02-02 03:40:20","bc01a2b6f61d06f6604adb8657495020","24.148.13.102","Mozilla/5.0 (Macintosh; Intel Mac OS X 10_15_7) AppleWebKit/537.36 (KHTML, like Gecko) Chrome/131.0.0.0 Safari/537.36","Macintosh","Chrome","131.0.0.0","OS X","10_15_7","https://app.prolific.com/","en-US,en;q=0.9","5a79f14a8fe2dc00010593eb","679edb085803f58d6bbd31ca","679ee91930a8554a52bb801d","","4631","","2","Intro Trial","",""
"","","","","","html-button-response","11","63104","0.0-4.7-0.7-0.7","26","1","2025-02-02 03:40:20","bc01a2b6f61d06f6604adb8657495020","24.148.13.102","Mozilla/5.0 (Macintosh; Intel Mac OS X 10_15_7) AppleWebKit/537.36 (KHTML, like Gecko) Chrome/131.0.0.0 Safari/537.36","Macintosh","Chrome","131.0.0.0","OS X","10_15_7","https://app.prolific.com/","en-US,en;q=0.9","5a79f14a8fe2dc00010593eb","679edb085803f58d6bbd31ca","679ee91930a8554a52bb801d","","432","","1","Intro Trial","",""
"","","","","","html-button-response","12","64820","0.0-4.8-0.8-0.8","26","1","2025-02-02 03:40:20","bc01a2b6f61d06f6604adb8657495020","24.148.13.102","Mozilla/5.0 (Macintosh; Intel Mac OS X 10_15_7) AppleWebKit/537.36 (KHTML, like Gecko) Chrome/131.0.0.0 Safari/537.36","Macintosh","Chrome","131.0.0.0","OS X","10_15_7","https://app.prolific.com/","en-US,en;q=0.9","5a79f14a8fe2dc00010593eb","679edb085803f58d6bbd31ca","679ee91930a8554a52bb801d","","1714","","3","Intro Trial","",""
"","","","","","html-button-response","13","65353","0.0-4.9-0.9-0.9","26","1","2025-02-02 03:40:20","bc01a2b6f61d06f6604adb8657495020","24.148.13.102","Mozilla/5.0 (Macintosh; Intel Mac OS X 10_15_7) AppleWebKit/537.36 (KHTML, like Gecko) Chrome/131.0.0.0 Safari/537.36","Macintosh","Chrome","131.0.0.0","OS X","10_15_7","https://app.prolific.com/","en-US,en;q=0.9","5a79f14a8fe2dc00010593eb","679edb085803f58d6bbd31ca","679ee91930a8554a52bb801d","","530","","2","Intro Trial","",""
"","","","","","html-button-response","14","66338","0.0-4.10-0.10-0.10","26","1","2025-02-02 03:40:20","bc01a2b6f61d06f6604adb8657495020","24.148.13.102","Mozilla/5.0 (Macintosh; Intel Mac OS X 10_15_7) AppleWebKit/537.36 (KHTML, like Gecko) Chrome/131.0.0.0 Safari/537.36","Macintosh","Chrome","131.0.0.0","OS X","10_15_7","https://app.prolific.com/","en-US,en;q=0.9","5a79f14a8fe2dc00010593eb","679edb085803f58d6bbd31ca","679ee91930a8554a52bb801d","","981","","3","Intro Trial","",""
"","","","","","html-button-response","15","66788","0.0-4.11-0.11-0.11","26","1","2025-02-02 03:40:20","bc01a2b6f61d06f6604adb8657495020","24.148.13.102","Mozilla/5.0 (Macintosh; Intel Mac OS X 10_15_7) AppleWebKit/537.36 (KHTML, like Gecko) Chrome/131.0.0.0 Safari/537.36","Macintosh","Chrome","131.0.0.0","OS X","10_15_7","https://app.prolific.com/","en-US,en;q=0.9","5a79f14a8fe2dc00010593eb","679edb085803f58d6bbd31ca","679ee91930a8554a52bb801d","","449","","4","Intro Trial","",""
"","","","","","html-button-response","16","69936","0.0-4.12-0.12-0.12","26","1","2025-02-02 03:40:20","bc01a2b6f61d06f6604adb8657495020","24.148.13.102","Mozilla/5.0 (Macintosh; Intel Mac OS X 10_15_7) AppleWebKit/537.36 (KHTML, like Gecko) Chrome/131.0.0.0 Safari/537.36","Macintosh","Chrome","131.0.0.0","OS X","10_15_7","https://app.prolific.com/","en-US,en;q=0.9","5a79f14a8fe2dc00010593eb","679edb085803f58d6bbd31ca","679ee91930a8554a52bb801d","","3147","","4","Intro Trial","",""
"","","","","","html-button-response","17","70471","0.0-4.13-0.13-0.13","26","1","2025-02-02 03:40:20","bc01a2b6f61d06f6604adb8657495020","24.148.13.102","Mozilla/5.0 (Macintosh; Intel Mac OS X 10_15_7) AppleWebKit/537.36 (KHTML, like Gecko) Chrome/131.0.0.0 Safari/537.36","Macintosh","Chrome","131.0.0.0","OS X","10_15_7","https://app.prolific.com/","en-US,en;q=0.9","5a79f14a8fe2dc00010593eb","679edb085803f58d6bbd31ca","679ee91930a8554a52bb801d","","532","","2","Intro Trial","",""
"","","","","","html-button-response","18","71304","0.0-4.14-0.14-0.14","26","1","2025-02-02 03:40:20","bc01a2b6f61d06f6604adb8657495020","24.148.13.102","Mozilla/5.0 (Macintosh; Intel Mac OS X 10_15_7) AppleWebKit/537.36 (KHTML, like Gecko) Chrome/131.0.0.0 Safari/537.36","Macintosh","Chrome","131.0.0.0","OS X","10_15_7","https://app.prolific.com/","en-US,en;q=0.9","5a79f14a8fe2dc00010593eb","679edb085803f58d6bbd31ca","679ee91930a8554a52bb801d","","830","","4","Intro Trial","",""
"","","","","","html-button-response","19","71853","0.0-4.15-0.15-0.15","26","1","2025-02-02 03:40:20","bc01a2b6f61d06f6604adb8657495020","24.148.13.102","Mozilla/5.0 (Macintosh; Intel Mac OS X 10_15_7) AppleWebKit/537.36 (KHTML, like Gecko) Chrome/131.0.0.0 Safari/537.36","Macintosh","Chrome","131.0.0.0","OS X","10_15_7","https://app.prolific.com/","en-US,en;q=0.9","5a79f14a8fe2dc00010593eb","679edb085803f58d6bbd31ca","679ee91930a8554a52bb801d","","547","","1","Intro Trial","",""
"","","","","","html-button-response","20","72437","0.0-4.16-0.16-0.16","26","1","2025-02-02 03:40:20","bc01a2b6f61d06f6604adb8657495020","24.148.13.102","Mozilla/5.0 (Macintosh; Intel Mac OS X 10_15_7) AppleWebKit/537.36 (KHTML, like Gecko) Chrome/131.0.0.0 Safari/537.36","Macintosh","Chrome","131.0.0.0","OS X","10_15_7","https://app.prolific.com/","en-US,en;q=0.9","5a79f14a8fe2dc00010593eb","679edb085803f58d6bbd31ca","679ee91930a8554a52bb801d","","581","","4","Intro Trial","",""
"","","","","","html-button-response","21","72721","0.0-4.17-0.17-0.17","26","1","2025-02-02 03:40:20","bc01a2b6f61d06f6604adb8657495020","24.148.13.102","Mozilla/5.0 (Macintosh; Intel Mac OS X 10_15_7) AppleWebKit/537.36 (KHTML, like Gecko) Chrome/131.0.0.0 Safari/537.36","Macintosh","Chrome","131.0.0.0","OS X","10_15_7","https://app.prolific.com/","en-US,en;q=0.9","5a79f14a8fe2dc00010593eb","679edb085803f58d6bbd31ca","679ee91930a8554a52bb801d","","283","","3","Intro Trial","",""
"","","","","","html-button-response","22","73275","0.0-4.18-0.18-0.18","26","1","2025-02-02 03:40:20","bc01a2b6f61d06f6604adb8657495020","24.148.13.102","Mozilla/5.0 (Macintosh; Intel Mac OS X 10_15_7) AppleWebKit/537.36 (KHTML, like Gecko) Chrome/131.0.0.0 Safari/537.36","Macintosh","Chrome","131.0.0.0","OS X","10_15_7","https://app.prolific.com/","en-US,en;q=0.9","5a79f14a8fe2dc00010593eb","679edb085803f58d6bbd31ca","679ee91930a8554a52bb801d","","553","","4","Intro Trial","",""
"","","","","","html-button-response","23","80970","0.0-4.19-0.19-0.19","26","1","2025-02-02 03:40:20","bc01a2b6f61d06f6604adb8657495020","24.148.13.102","Mozilla/5.0 (Macintosh; Intel Mac OS X 10_15_7) AppleWebKit/537.36 (KHTML, like Gecko) Chrome/131.0.0.0 Safari/537.36","Macintosh","Chrome","131.0.0.0","OS X","10_15_7","https://app.prolific.com/","en-US,en;q=0.9","5a79f14a8fe2dc00010593eb","679edb085803f58d6bbd31ca","679ee91930a8554a52bb801d","","7693","","4","Intro Trial","",""
"","","","","","html-button-response","24","88203","0.0-4.20-0.20-0.20","26","1","2025-02-02 03:40:20","bc01a2b6f61d06f6604adb8657495020","24.148.13.102","Mozilla/5.0 (Macintosh; Intel Mac OS X 10_15_7) AppleWebKit/537.36 (KHTML, like Gecko) Chrome/131.0.0.0 Safari/537.36","Macintosh","Chrome","131.0.0.0","OS X","10_15_7","https://app.prolific.com/","en-US,en;q=0.9","5a79f14a8fe2dc00010593eb","679edb085803f58d6bbd31ca","679ee91930a8554a52bb801d","","7230","","5","Intro Trial","",""
"","","","","","html-keyboard-response","25","100800","0.0-5.0","26","1","2025-02-02 03:40:20","bc01a2b6f61d06f6604adb8657495020","24.148.13.102","Mozilla/5.0 (Macintosh; Intel Mac OS X 10_15_7) AppleWebKit/537.36 (KHTML, like Gecko) Chrome/131.0.0.0 Safari/537.36","Macintosh","Chrome","131.0.0.0","OS X","10_15_7","https://app.prolific.com/","en-US,en;q=0.9","5a79f14a8fe2dc00010593eb","679edb085803f58d6bbd31ca","679ee91930a8554a52bb801d","","12590","[""You sorted incorrectly by using the balance 9 times. <br><br> <img src='G_2.jpg' height='90'><img src='G_5.jpg' height='90'><img src='G_1.jpg' height='90'><img src='G_3.jpg' height='90'><img src='G_4.jpg' height='90'><br><br> Your final order is 2,1,4,3,5<br><br><br>Omgne Sort in this game will allow you to sort correctly by using the balance 8 times. Press Enter to learn it!""]","enter","","",""
"","","","","","html-keyboard-response","26","103996","0.0-6.0","26","1","2025-02-02 03:40:20","bc01a2b6f61d06f6604adb8657495020","24.148.13.102","Mozilla/5.0 (Macintosh; Intel Mac OS X 10_15_7) AppleWebKit/537.36 (KHTML, like Gecko) Chrome/131.0.0.0 Safari/537.36","Macintosh","Chrome","131.0.0.0","OS X","10_15_7","https://app.prolific.com/","en-US,en;q=0.9","5a79f14a8fe2dc00010593eb","679edb085803f58d6bbd31ca","679ee91930a8554a52bb801d","","3194","<p>Welcome to the learning phase! <br><br> You will learn by six examples. The following learning trials will not be used to calculate your performance. <br><br> Press Enter to continue.<p/>","enter","","",""
"","","","","","html-keyboard-response","27","106954","0.0-7.0","26","1","2025-02-02 03:40:20","bc01a2b6f61d06f6604adb8657495020","24.148.13.102","Mozilla/5.0 (Macintosh; Intel Mac OS X 10_15_7) AppleWebKit/537.36 (KHTML, like Gecko) Chrome/131.0.0.0 Safari/537.36","Macintosh","Chrome","131.0.0.0","OS X","10_15_7","https://app.prolific.com/","en-US,en;q=0.9","5a79f14a8fe2dc00010593eb","679edb085803f58d6bbd31ca","679ee91930a8554a52bb801d","","2956","[""Example 1<br><br>You will watch Omnge Sort in action. Try to identify any patterns in the comparisons made by this method. <br><br>Press Enter to continue.""]","enter","","",""
"","","","","","html-keyboard-response","28","107457","0.0-8.0","26","1","2025-02-02 03:40:20","bc01a2b6f61d06f6604adb8657495020","24.148.13.102","Mozilla/5.0 (Macintosh; Intel Mac OS X 10_15_7) AppleWebKit/537.36 (KHTML, like Gecko) Chrome/131.0.0.0 Safari/537.36","Macintosh","Chrome","131.0.0.0","OS X","10_15_7","https://app.prolific.com/","en-US,en;q=0.9","5a79f14a8fe2dc00010593eb","679edb085803f58d6bbd31ca","679ee91930a8554a52bb801d","","null","<img id='selected' src='G_5.jpg' height='90'> <img src='G_7.jpg' height='90'> <img src='G_3.jpg' height='90'> <img src='G_1.jpg' height='90'> <img src='G_9.jpg' height='90'>","null","Animation0","",""
"","","","","","html-keyboard-response","29","107960","0.0-9.0","26","1","2025-02-02 03:40:20","bc01a2b6f61d06f6604adb8657495020","24.148.13.102","Mozilla/5.0 (Macintosh; Intel Mac OS X 10_15_7) AppleWebKit/537.36 (KHTML, like Gecko) Chrome/131.0.0.0 Safari/537.36","Macintosh","Chrome","131.0.0.0","OS X","10_15_7","https://app.prolific.com/","en-US,en;q=0.9","5a79f14a8fe2dc00010593eb","679edb085803f58d6bbd31ca","679ee91930a8554a52bb801d","","null","<img id='selected' src='G_5.jpg' height='90'> <img id='selected' src='G_7.jpg' height='90'> <img src='G_3.jpg' height='90'> <img src='G_1.jpg' height='90'> <img src='G_9.jpg' height='90'>","null","Animation0","",""
"","","","","","html-keyboard-response","30","108464","0.0-10.0","26","1","2025-02-02 03:40:20","bc01a2b6f61d06f6604adb8657495020","24.148.13.102","Mozilla/5.0 (Macintosh; Intel Mac OS X 10_15_7) AppleWebKit/537.36 (KHTML, like Gecko) Chrome/131.0.0.0 Safari/537.36","Macintosh","Chrome","131.0.0.0","OS X","10_15_7","https://app.prolific.com/","en-US,en;q=0.9","5a79f14a8fe2dc00010593eb","679edb085803f58d6bbd31ca","679ee91930a8554a52bb801d","","null","<img id='swapped' src='G_7.jpg' height='90'> <img id='swapped' src='G_5.jpg' height='90'> <img src='G_3.jpg' height='90'> <img src='G_1.jpg' height='90'> <img src='G_9.jpg' height='90'>","null","Animation0","",""
"","","","","","html-keyboard-response","31","108775","0.0-11.0","26","1","2025-02-02 03:40:20","bc01a2b6f61d06f6604adb8657495020","24.148.13.102","Mozilla/5.0 (Macintosh; Intel Mac OS X 10_15_7) AppleWebKit/537.36 (KHTML, like Gecko) Chrome/131.0.0.0 Safari/537.36","Macintosh","Chrome","131.0.0.0","OS X","10_15_7","https://app.prolific.com/","en-US,en;q=0.9","5a79f14a8fe2dc00010593eb","679edb085803f58d6bbd31ca","679ee91930a8554a52bb801d","","null","<img  src='G_7.jpg' height='90'> <img  src='G_5.jpg' height='90'> <img src='G_3.jpg' height='90'> <img src='G_1.jpg' height='90'> <img src='G_9.jpg' height='90'>","null","Animation0","",""
"","","","","","html-keyboard-response","32","109279","0.0-12.0","26","1","2025-02-02 03:40:20","bc01a2b6f61d06f6604adb8657495020","24.148.13.102","Mozilla/5.0 (Macintosh; Intel Mac OS X 10_15_7) AppleWebKit/537.36 (KHTML, like Gecko) Chrome/131.0.0.0 Safari/537.36","Macintosh","Chrome","131.0.0.0","OS X","10_15_7","https://app.prolific.com/","en-US,en;q=0.9","5a79f14a8fe2dc00010593eb","679edb085803f58d6bbd31ca","679ee91930a8554a52bb801d","","null","<img  src='G_7.jpg' height='90'> <img id='selected'  src='G_5.jpg' height='90'> <img src='G_3.jpg' height='90'> <img src='G_1.jpg' height='90'> <img src='G_9.jpg' height='90'>","null","Animation0","",""
"","","","","","html-keyboard-response","33","109783","0.0-13.0","26","1","2025-02-02 03:40:20","bc01a2b6f61d06f6604adb8657495020","24.148.13.102","Mozilla/5.0 (Macintosh; Intel Mac OS X 10_15_7) AppleWebKit/537.36 (KHTML, like Gecko) Chrome/131.0.0.0 Safari/537.36","Macintosh","Chrome","131.0.0.0","OS X","10_15_7","https://app.prolific.com/","en-US,en;q=0.9","5a79f14a8fe2dc00010593eb","679edb085803f58d6bbd31ca","679ee91930a8554a52bb801d","","null","<img  src='G_7.jpg' height='90'> <img id='selected'  src='G_5.jpg' height='90'> <img id='selected' src='G_3.jpg' height='90'> <img src='G_1.jpg' height='90'> <img src='G_9.jpg' height='90'>","null","Animation0","",""
"","","","","","html-keyboard-response","34","110286","0.0-14.0","26","1","2025-02-02 03:40:20","bc01a2b6f61d06f6604adb8657495020","24.148.13.102","Mozilla/5.0 (Macintosh; Intel Mac OS X 10_15_7) AppleWebKit/537.36 (KHTML, like Gecko) Chrome/131.0.0.0 Safari/537.36","Macintosh","Chrome","131.0.0.0","OS X","10_15_7","https://app.prolific.com/","en-US,en;q=0.9","5a79f14a8fe2dc00010593eb","679edb085803f58d6bbd31ca","679ee91930a8554a52bb801d","","null","<img  src='G_7.jpg' height='90'> <img id='selected'  src='G_5.jpg' height='90'> <img id='selected' src='G_3.jpg' height='90'> <img src='G_1.jpg' height='90'> <img src='G_9.jpg' height='90'>","null","Animation0","",""
"","","","","","html-keyboard-response","35","110590","0.0-15.0","26","1","2025-02-02 03:40:20","bc01a2b6f61d06f6604adb8657495020","24.148.13.102","Mozilla/5.0 (Macintosh; Intel Mac OS X 10_15_7) AppleWebKit/537.36 (KHTML, like Gecko) Chrome/131.0.0.0 Safari/537.36","Macintosh","Chrome","131.0.0.0","OS X","10_15_7","https://app.prolific.com/","en-US,en;q=0.9","5a79f14a8fe2dc00010593eb","679edb085803f58d6bbd31ca","679ee91930a8554a52bb801d","","null","<img  src='G_7.jpg' height='90'> <img   src='G_5.jpg' height='90'> <img  src='G_3.jpg' height='90'> <img src='G_1.jpg' height='90'> <img src='G_9.jpg' height='90'>","null","Animation0","",""
"","","","","","html-keyboard-response","36","111093","0.0-16.0","26","1","2025-02-02 03:40:20","bc01a2b6f61d06f6604adb8657495020","24.148.13.102","Mozilla/5.0 (Macintosh; Intel Mac OS X 10_15_7) AppleWebKit/537.36 (KHTML, like Gecko) Chrome/131.0.0.0 Safari/537.36","Macintosh","Chrome","131.0.0.0","OS X","10_15_7","https://app.prolific.com/","en-US,en;q=0.9","5a79f14a8fe2dc00010593eb","679edb085803f58d6bbd31ca","679ee91930a8554a52bb801d","","null","<img  src='G_7.jpg' height='90'> <img   src='G_5.jpg' height='90'> <img id='selected'  src='G_3.jpg' height='90'> <img src='G_1.jpg' height='90'> <img src='G_9.jpg' height='90'>","null","Animation0","",""
"","","","","","html-keyboard-response","37","111596","0.0-17.0","26","1","2025-02-02 03:40:20","bc01a2b6f61d06f6604adb8657495020","24.148.13.102","Mozilla/5.0 (Macintosh; Intel Mac OS X 10_15_7) AppleWebKit/537.36 (KHTML, like Gecko) Chrome/131.0.0.0 Safari/537.36","Macintosh","Chrome","131.0.0.0","OS X","10_15_7","https://app.prolific.com/","en-US,en;q=0.9","5a79f14a8fe2dc00010593eb","679edb085803f58d6bbd31ca","679ee91930a8554a52bb801d","","null","<img  src='G_7.jpg' height='90'> <img   src='G_5.jpg' height='90'> <img id='selected'  src='G_3.jpg' height='90'> <img id='selected' src='G_1.jpg' height='90'> <img src='G_9.jpg' height='90'>","null","Animation0","",""
"","","","","","html-keyboard-response","38","112101","0.0-18.0","26","1","2025-02-02 03:40:20","bc01a2b6f61d06f6604adb8657495020","24.148.13.102","Mozilla/5.0 (Macintosh; Intel Mac OS X 10_15_7) AppleWebKit/537.36 (KHTML, like Gecko) Chrome/131.0.0.0 Safari/537.36","Macintosh","Chrome","131.0.0.0","OS X","10_15_7","https://app.prolific.com/","en-US,en;q=0.9","5a79f14a8fe2dc00010593eb","679edb085803f58d6bbd31ca","679ee91930a8554a52bb801d","","null","<img  src='G_7.jpg' height='90'> <img   src='G_5.jpg' height='90'> <img id='selected'  src='G_3.jpg' height='90'> <img id='selected' src='G_1.jpg' height='90'> <img src='G_9.jpg' height='90'>","null","Animation0","",""
"","","","","","html-keyboard-response","39","112405","0.0-19.0","26","1","2025-02-02 03:40:20","bc01a2b6f61d06f6604adb8657495020","24.148.13.102","Mozilla/5.0 (Macintosh; Intel Mac OS X 10_15_7) AppleWebKit/537.36 (KHTML, like Gecko) Chrome/131.0.0.0 Safari/537.36","Macintosh","Chrome","131.0.0.0","OS X","10_15_7","https://app.prolific.com/","en-US,en;q=0.9","5a79f14a8fe2dc00010593eb","679edb085803f58d6bbd31ca","679ee91930a8554a52bb801d","","null","<img  src='G_7.jpg' height='90'> <img   src='G_5.jpg' height='90'> <img   src='G_3.jpg' height='90'> <img  src='G_1.jpg' height='90'> <img src='G_9.jpg' height='90'>","null","Animation0","",""
"","","","","","html-keyboard-response","40","112909","0.0-20.0","26","1","2025-02-02 03:40:20","bc01a2b6f61d06f6604adb8657495020","24.148.13.102","Mozilla/5.0 (Macintosh; Intel Mac OS X 10_15_7) AppleWebKit/537.36 (KHTML, like Gecko) Chrome/131.0.0.0 Safari/537.36","Macintosh","Chrome","131.0.0.0","OS X","10_15_7","https://app.prolific.com/","en-US,en;q=0.9","5a79f14a8fe2dc00010593eb","679edb085803f58d6bbd31ca","679ee91930a8554a52bb801d","","null","<img  src='G_7.jpg' height='90'> <img   src='G_5.jpg' height='90'> <img   src='G_3.jpg' height='90'> <img id='selected'  src='G_1.jpg' height='90'> <img src='G_9.jpg' height='90'>","null","Animation0","",""
"","","","","","html-keyboard-response","41","113413","0.0-21.0","26","1","2025-02-02 03:40:20","bc01a2b6f61d06f6604adb8657495020","24.148.13.102","Mozilla/5.0 (Macintosh; Intel Mac OS X 10_15_7) AppleWebKit/537.36 (KHTML, like Gecko) Chrome/131.0.0.0 Safari/537.36","Macintosh","Chrome","131.0.0.0","OS X","10_15_7","https://app.prolific.com/","en-US,en;q=0.9","5a79f14a8fe2dc00010593eb","679edb085803f58d6bbd31ca","679ee91930a8554a52bb801d","","null","<img  src='G_7.jpg' height='90'> <img   src='G_5.jpg' height='90'> <img   src='G_3.jpg' height='90'> <img id='selected'  src='G_1.jpg' height='90'> <img id='selected' src='G_9.jpg' height='90'>","null","Animation0","",""
"","","","","","html-keyboard-response","42","113917","0.0-22.0","26","1","2025-02-02 03:40:20","bc01a2b6f61d06f6604adb8657495020","24.148.13.102","Mozilla/5.0 (Macintosh; Intel Mac OS X 10_15_7) AppleWebKit/537.36 (KHTML, like Gecko) Chrome/131.0.0.0 Safari/537.36","Macintosh","Chrome","131.0.0.0","OS X","10_15_7","https://app.prolific.com/","en-US,en;q=0.9","5a79f14a8fe2dc00010593eb","679edb085803f58d6bbd31ca","679ee91930a8554a52bb801d","","null","<img  src='G_7.jpg' height='90'> <img   src='G_5.jpg' height='90'> <img   src='G_3.jpg' height='90'> <img id='selected'  src='G_1.jpg' height='90'> <img id='selected' src='G_9.jpg' height='90'>","null","Animation0","",""
"","","","","","html-keyboard-response","43","114221","0.0-23.0","26","1","2025-02-02 03:40:20","bc01a2b6f61d06f6604adb8657495020","24.148.13.102","Mozilla/5.0 (Macintosh; Intel Mac OS X 10_15_7) AppleWebKit/537.36 (KHTML, like Gecko) Chrome/131.0.0.0 Safari/537.36","Macintosh","Chrome","131.0.0.0","OS X","10_15_7","https://app.prolific.com/","en-US,en;q=0.9","5a79f14a8fe2dc00010593eb","679edb085803f58d6bbd31ca","679ee91930a8554a52bb801d","","null","<img  src='G_7.jpg' height='90'> <img   src='G_5.jpg' height='90'> <img   src='G_3.jpg' height='90'> <img   src='G_1.jpg' height='90'> <img  src='G_9.jpg' height='90'>","null","Animation0","",""
"","","","","","html-keyboard-response","44","116187","0.0-24.0","26","1","2025-02-02 03:40:20","bc01a2b6f61d06f6604adb8657495020","24.148.13.102","Mozilla/5.0 (Macintosh; Intel Mac OS X 10_15_7) AppleWebKit/537.36 (KHTML, like Gecko) Chrome/131.0.0.0 Safari/537.36","Macintosh","Chrome","131.0.0.0","OS X","10_15_7","https://app.prolific.com/","en-US,en;q=0.9","5a79f14a8fe2dc00010593eb","679edb085803f58d6bbd31ca","679ee91930a8554a52bb801d","","1962","[""Did you notice any patterns? <br><br>Press Enter to watch that example again and follow the steps of Omgne Sort.""]","enter","","",""
"","","","","","html-button-response","45","116591","0.0-25.0","26","1","2025-02-02 03:40:20","bc01a2b6f61d06f6604adb8657495020","24.148.13.102","Mozilla/5.0 (Macintosh; Intel Mac OS X 10_15_7) AppleWebKit/537.36 (KHTML, like Gecko) Chrome/131.0.0.0 Safari/537.36","Macintosh","Chrome","131.0.0.0","OS X","10_15_7","https://app.prolific.com/","en-US,en;q=0.9","5a79f14a8fe2dc00010593eb","679edb085803f58d6bbd31ca","679ee91930a8554a52bb801d","","null","<img id='selected' src='G_5.jpg' height='90'> <img src='G_7.jpg' height='90'> <img src='G_3.jpg' height='90'> <img src='G_1.jpg' height='90'> <img src='G_9.jpg' height='90'>","null","Learning example 0","",""
"","","","","","html-button-response","46","116895","0.0-26.0","26","1","2025-02-02 03:40:20","bc01a2b6f61d06f6604adb8657495020","24.148.13.102","Mozilla/5.0 (Macintosh; Intel Mac OS X 10_15_7) AppleWebKit/537.36 (KHTML, like Gecko) Chrome/131.0.0.0 Safari/537.36","Macintosh","Chrome","131.0.0.0","OS X","10_15_7","https://app.prolific.com/","en-US,en;q=0.9","5a79f14a8fe2dc00010593eb","679edb085803f58d6bbd31ca","679ee91930a8554a52bb801d","","null","<img id='selected' src='G_5.jpg' height='90'> <img id='selected' src='G_7.jpg' height='90'> <img src='G_3.jpg' height='90'> <img src='G_1.jpg' height='90'> <img src='G_9.jpg' height='90'>","null","Learning example 0","",""
"","","","","","html-button-response","47","117200","0.0-27.0","26","1","2025-02-02 03:40:20","bc01a2b6f61d06f6604adb8657495020","24.148.13.102","Mozilla/5.0 (Macintosh; Intel Mac OS X 10_15_7) AppleWebKit/537.36 (KHTML, like Gecko) Chrome/131.0.0.0 Safari/537.36","Macintosh","Chrome","131.0.0.0","OS X","10_15_7","https://app.prolific.com/","en-US,en;q=0.9","5a79f14a8fe2dc00010593eb","679edb085803f58d6bbd31ca","679ee91930a8554a52bb801d","","null","<img id='swapped' src='G_7.jpg' height='90'> <img id='swapped' src='G_5.jpg' height='90'> <img src='G_3.jpg' height='90'> <img src='G_1.jpg' height='90'> <img src='G_9.jpg' height='90'>","null","Learning example 0","",""
"","","","","","html-button-response","48","121736","0.0-28.0-0.0-0.0","26","1","2025-02-02 03:40:20","bc01a2b6f61d06f6604adb8657495020","24.148.13.102","Mozilla/5.0 (Macintosh; Intel Mac OS X 10_15_7) AppleWebKit/537.36 (KHTML, like Gecko) Chrome/131.0.0.0 Safari/537.36","Macintosh","Chrome","131.0.0.0","OS X","10_15_7","https://app.prolific.com/","en-US,en;q=0.9","5a79f14a8fe2dc00010593eb","679edb085803f58d6bbd31ca","679ee91930a8554a52bb801d","","4530","<img id='swapped' src='G_7.jpg' height='90'> <img id='swapped' src='G_5.jpg' height='90'> <img src='G_3.jpg' height='90'> <img src='G_1.jpg' height='90'> <img src='G_9.jpg' height='90'>","0","Learning example 0","",""
"","","","","","html-button-response","49","122136","0.0-28.1-0.1-0.1","26","1","2025-02-02 03:40:20","bc01a2b6f61d06f6604adb8657495020","24.148.13.102","Mozilla/5.0 (Macintosh; Intel Mac OS X 10_15_7) AppleWebKit/537.36 (KHTML, like Gecko) Chrome/131.0.0.0 Safari/537.36","Macintosh","Chrome","131.0.0.0","OS X","10_15_7","https://app.prolific.com/","en-US,en;q=0.9","5a79f14a8fe2dc00010593eb","679edb085803f58d6bbd31ca","679ee91930a8554a52bb801d","","397","<img id='swapped' src='G_7.jpg' height='90'> <img id='swapped' src='G_5.jpg' height='90'> <img src='G_3.jpg' height='90'> <img src='G_1.jpg' height='90'> <img src='G_9.jpg' height='90'>","1","Learning example 0","",""
"","","","","","html-button-response","50","122338","0.0-29.0","26","1","2025-02-02 03:40:20","bc01a2b6f61d06f6604adb8657495020","24.148.13.102","Mozilla/5.0 (Macintosh; Intel Mac OS X 10_15_7) AppleWebKit/537.36 (KHTML, like Gecko) Chrome/131.0.0.0 Safari/537.36","Macintosh","Chrome","131.0.0.0","OS X","10_15_7","https://app.prolific.com/","en-US,en;q=0.9","5a79f14a8fe2dc00010593eb","679edb085803f58d6bbd31ca","679ee91930a8554a52bb801d","","null","<img  src='G_7.jpg' height='90'> <img  src='G_5.jpg' height='90'> <img src='G_3.jpg' height='90'> <img src='G_1.jpg' height='90'> <img src='G_9.jpg' height='90'>","null","Learning example 0","",""
"","","","","","html-button-response","51","122741","0.0-30.0","26","1","2025-02-02 03:40:20","bc01a2b6f61d06f6604adb8657495020","24.148.13.102","Mozilla/5.0 (Macintosh; Intel Mac OS X 10_15_7) AppleWebKit/537.36 (KHTML, like Gecko) Chrome/131.0.0.0 Safari/537.36","Macintosh","Chrome","131.0.0.0","OS X","10_15_7","https://app.prolific.com/","en-US,en;q=0.9","5a79f14a8fe2dc00010593eb","679edb085803f58d6bbd31ca","679ee91930a8554a52bb801d","","null","<img  src='G_7.jpg' height='90'> <img id='selected'  src='G_5.jpg' height='90'> <img src='G_3.jpg' height='90'> <img src='G_1.jpg' height='90'> <img src='G_9.jpg' height='90'>","null","Learning example 0","",""
"","","","","","html-button-response","52","123044","0.0-31.0","26","1","2025-02-02 03:40:20","bc01a2b6f61d06f6604adb8657495020","24.148.13.102","Mozilla/5.0 (Macintosh; Intel Mac OS X 10_15_7) AppleWebKit/537.36 (KHTML, like Gecko) Chrome/131.0.0.0 Safari/537.36","Macintosh","Chrome","131.0.0.0","OS X","10_15_7","https://app.prolific.com/","en-US,en;q=0.9","5a79f14a8fe2dc00010593eb","679edb085803f58d6bbd31ca","679ee91930a8554a52bb801d","","null","<img  src='G_7.jpg' height='90'> <img id='selected'  src='G_5.jpg' height='90'> <img id='selected' src='G_3.jpg' height='90'> <img src='G_1.jpg' height='90'> <img src='G_9.jpg' height='90'>","null","Learning example 0","",""
"","","","","","html-button-response","53","123347","0.0-32.0","26","1","2025-02-02 03:40:20","bc01a2b6f61d06f6604adb8657495020","24.148.13.102","Mozilla/5.0 (Macintosh; Intel Mac OS X 10_15_7) AppleWebKit/537.36 (KHTML, like Gecko) Chrome/131.0.0.0 Safari/537.36","Macintosh","Chrome","131.0.0.0","OS X","10_15_7","https://app.prolific.com/","en-US,en;q=0.9","5a79f14a8fe2dc00010593eb","679edb085803f58d6bbd31ca","679ee91930a8554a52bb801d","","null","<img  src='G_7.jpg' height='90'> <img id='selected'  src='G_5.jpg' height='90'> <img id='selected' src='G_3.jpg' height='90'> <img src='G_1.jpg' height='90'> <img src='G_9.jpg' height='90'>","null","Learning example 0","",""
"","","","","","html-button-response","54","124986","0.0-33.0-0.0-0.0","26","1","2025-02-02 03:40:20","bc01a2b6f61d06f6604adb8657495020","24.148.13.102","Mozilla/5.0 (Macintosh; Intel Mac OS X 10_15_7) AppleWebKit/537.36 (KHTML, like Gecko) Chrome/131.0.0.0 Safari/537.36","Macintosh","Chrome","131.0.0.0","OS X","10_15_7","https://app.prolific.com/","en-US,en;q=0.9","5a79f14a8fe2dc00010593eb","679edb085803f58d6bbd31ca","679ee91930a8554a52bb801d","","1633","<img  src='G_7.jpg' height='90'> <img id='selected'  src='G_5.jpg' height='90'> <img id='selected' src='G_3.jpg' height='90'> <img src='G_1.jpg' height='90'> <img src='G_9.jpg' height='90'>","1","Learning example 0","",""
"","","","","","html-button-response","55","125425","0.0-33.1-0.1-0.1","26","1","2025-02-02 03:40:20","bc01a2b6f61d06f6604adb8657495020","24.148.13.102","Mozilla/5.0 (Macintosh; Intel Mac OS X 10_15_7) AppleWebKit/537.36 (KHTML, like Gecko) Chrome/131.0.0.0 Safari/537.36","Macintosh","Chrome","131.0.0.0","OS X","10_15_7","https://app.prolific.com/","en-US,en;q=0.9","5a79f14a8fe2dc00010593eb","679edb085803f58d6bbd31ca","679ee91930a8554a52bb801d","","435","<img  src='G_7.jpg' height='90'> <img id='selected'  src='G_5.jpg' height='90'> <img id='selected' src='G_3.jpg' height='90'> <img src='G_1.jpg' height='90'> <img src='G_9.jpg' height='90'>","2","Learning example 0","",""
"","","","","","html-button-response","56","125629","0.0-34.0","26","1","2025-02-02 03:40:20","bc01a2b6f61d06f6604adb8657495020","24.148.13.102","Mozilla/5.0 (Macintosh; Intel Mac OS X 10_15_7) AppleWebKit/537.36 (KHTML, like Gecko) Chrome/131.0.0.0 Safari/537.36","Macintosh","Chrome","131.0.0.0","OS X","10_15_7","https://app.prolific.com/","en-US,en;q=0.9","5a79f14a8fe2dc00010593eb","679edb085803f58d6bbd31ca","679ee91930a8554a52bb801d","","null","<img  src='G_7.jpg' height='90'> <img   src='G_5.jpg' height='90'> <img  src='G_3.jpg' height='90'> <img src='G_1.jpg' height='90'> <img src='G_9.jpg' height='90'>","null","Learning example 0","",""
"","","","","","html-button-response","57","126033","0.0-35.0","26","1","2025-02-02 03:40:20","bc01a2b6f61d06f6604adb8657495020","24.148.13.102","Mozilla/5.0 (Macintosh; Intel Mac OS X 10_15_7) AppleWebKit/537.36 (KHTML, like Gecko) Chrome/131.0.0.0 Safari/537.36","Macintosh","Chrome","131.0.0.0","OS X","10_15_7","https://app.prolific.com/","en-US,en;q=0.9","5a79f14a8fe2dc00010593eb","679edb085803f58d6bbd31ca","679ee91930a8554a52bb801d","","null","<img  src='G_7.jpg' height='90'> <img   src='G_5.jpg' height='90'> <img id='selected'  src='G_3.jpg' height='90'> <img src='G_1.jpg' height='90'> <img src='G_9.jpg' height='90'>","null","Learning example 0","",""
"","","","","","html-button-response","58","126336","0.0-36.0","26","1","2025-02-02 03:40:20","bc01a2b6f61d06f6604adb8657495020","24.148.13.102","Mozilla/5.0 (Macintosh; Intel Mac OS X 10_15_7) AppleWebKit/537.36 (KHTML, like Gecko) Chrome/131.0.0.0 Safari/537.36","Macintosh","Chrome","131.0.0.0","OS X","10_15_7","https://app.prolific.com/","en-US,en;q=0.9","5a79f14a8fe2dc00010593eb","679edb085803f58d6bbd31ca","679ee91930a8554a52bb801d","","null","<img  src='G_7.jpg' height='90'> <img   src='G_5.jpg' height='90'> <img id='selected'  src='G_3.jpg' height='90'> <img id='selected' src='G_1.jpg' height='90'> <img src='G_9.jpg' height='90'>","null","Learning example 0","",""
"","","","","","html-button-response","59","126640","0.0-37.0","26","1","2025-02-02 03:40:20","bc01a2b6f61d06f6604adb8657495020","24.148.13.102","Mozilla/5.0 (Macintosh; Intel Mac OS X 10_15_7) AppleWebKit/537.36 (KHTML, like Gecko) Chrome/131.0.0.0 Safari/537.36","Macintosh","Chrome","131.0.0.0","OS X","10_15_7","https://app.prolific.com/","en-US,en;q=0.9","5a79f14a8fe2dc00010593eb","679edb085803f58d6bbd31ca","679ee91930a8554a52bb801d","","null","<img  src='G_7.jpg' height='90'> <img   src='G_5.jpg' height='90'> <img id='selected'  src='G_3.jpg' height='90'> <img id='selected' src='G_1.jpg' height='90'> <img src='G_9.jpg' height='90'>","null","Learning example 0","",""
"","","","","","html-button-response","60","126914","0.0-38.0-0.0-0.0","26","1","2025-02-02 03:40:20","bc01a2b6f61d06f6604adb8657495020","24.148.13.102","Mozilla/5.0 (Macintosh; Intel Mac OS X 10_15_7) AppleWebKit/537.36 (KHTML, like Gecko) Chrome/131.0.0.0 Safari/537.36","Macintosh","Chrome","131.0.0.0","OS X","10_15_7","https://app.prolific.com/","en-US,en;q=0.9","5a79f14a8fe2dc00010593eb","679edb085803f58d6bbd31ca","679ee91930a8554a52bb801d","","270","<img  src='G_7.jpg' height='90'> <img   src='G_5.jpg' height='90'> <img id='selected'  src='G_3.jpg' height='90'> <img id='selected' src='G_1.jpg' height='90'> <img src='G_9.jpg' height='90'>","2","Learning example 0","",""
"","","","","","html-button-response","61","127491","0.0-38.1-0.1-0.1","26","1","2025-02-02 03:40:20","bc01a2b6f61d06f6604adb8657495020","24.148.13.102","Mozilla/5.0 (Macintosh; Intel Mac OS X 10_15_7) AppleWebKit/537.36 (KHTML, like Gecko) Chrome/131.0.0.0 Safari/537.36","Macintosh","Chrome","131.0.0.0","OS X","10_15_7","https://app.prolific.com/","en-US,en;q=0.9","5a79f14a8fe2dc00010593eb","679edb085803f58d6bbd31ca","679ee91930a8554a52bb801d","","575","<img  src='G_7.jpg' height='90'> <img   src='G_5.jpg' height='90'> <img id='selected'  src='G_3.jpg' height='90'> <img id='selected' src='G_1.jpg' height='90'> <img src='G_9.jpg' height='90'>","3","Learning example 0","",""
"","","","","","html-button-response","62","127696","0.0-39.0","26","1","2025-02-02 03:40:20","bc01a2b6f61d06f6604adb8657495020","24.148.13.102","Mozilla/5.0 (Macintosh; Intel Mac OS X 10_15_7) AppleWebKit/537.36 (KHTML, like Gecko) Chrome/131.0.0.0 Safari/537.36","Macintosh","Chrome","131.0.0.0","OS X","10_15_7","https://app.prolific.com/","en-US,en;q=0.9","5a79f14a8fe2dc00010593eb","679edb085803f58d6bbd31ca","679ee91930a8554a52bb801d","","null","<img  src='G_7.jpg' height='90'> <img   src='G_5.jpg' height='90'> <img   src='G_3.jpg' height='90'> <img  src='G_1.jpg' height='90'> <img src='G_9.jpg' height='90'>","null","Learning example 0","",""
"","","","","","html-button-response","63","128099","0.0-40.0","26","1","2025-02-02 03:40:20","bc01a2b6f61d06f6604adb8657495020","24.148.13.102","Mozilla/5.0 (Macintosh; Intel Mac OS X 10_15_7) AppleWebKit/537.36 (KHTML, like Gecko) Chrome/131.0.0.0 Safari/537.36","Macintosh","Chrome","131.0.0.0","OS X","10_15_7","https://app.prolific.com/","en-US,en;q=0.9","5a79f14a8fe2dc00010593eb","679edb085803f58d6bbd31ca","679ee91930a8554a52bb801d","","null","<img  src='G_7.jpg' height='90'> <img   src='G_5.jpg' height='90'> <img   src='G_3.jpg' height='90'> <img id='selected'  src='G_1.jpg' height='90'> <img src='G_9.jpg' height='90'>","null","Learning example 0","",""
"","","","","","html-button-response","64","128404","0.0-41.0","26","1","2025-02-02 03:40:20","bc01a2b6f61d06f6604adb8657495020","24.148.13.102","Mozilla/5.0 (Macintosh; Intel Mac OS X 10_15_7) AppleWebKit/537.36 (KHTML, like Gecko) Chrome/131.0.0.0 Safari/537.36","Macintosh","Chrome","131.0.0.0","OS X","10_15_7","https://app.prolific.com/","en-US,en;q=0.9","5a79f14a8fe2dc00010593eb","679edb085803f58d6bbd31ca","679ee91930a8554a52bb801d","","null","<img  src='G_7.jpg' height='90'> <img   src='G_5.jpg' height='90'> <img   src='G_3.jpg' height='90'> <img id='selected'  src='G_1.jpg' height='90'> <img id='selected' src='G_9.jpg' height='90'>","null","Learning example 0","",""
"","","","","","html-button-response","65","128707","0.0-42.0","26","1","2025-02-02 03:40:20","bc01a2b6f61d06f6604adb8657495020","24.148.13.102","Mozilla/5.0 (Macintosh; Intel Mac OS X 10_15_7) AppleWebKit/537.36 (KHTML, like Gecko) Chrome/131.0.0.0 Safari/537.36","Macintosh","Chrome","131.0.0.0","OS X","10_15_7","https://app.prolific.com/","en-US,en;q=0.9","5a79f14a8fe2dc00010593eb","679edb085803f58d6bbd31ca","679ee91930a8554a52bb801d","","null","<img  src='G_7.jpg' height='90'> <img   src='G_5.jpg' height='90'> <img   src='G_3.jpg' height='90'> <img id='selected'  src='G_1.jpg' height='90'> <img id='selected' src='G_9.jpg' height='90'>","null","Learning example 0","",""
"","","","","","html-button-response","66","129371","0.0-43.0-0.0-0.0","26","1","2025-02-02 03:40:20","bc01a2b6f61d06f6604adb8657495020","24.148.13.102","Mozilla/5.0 (Macintosh; Intel Mac OS X 10_15_7) AppleWebKit/537.36 (KHTML, like Gecko) Chrome/131.0.0.0 Safari/537.36","Macintosh","Chrome","131.0.0.0","OS X","10_15_7","https://app.prolific.com/","en-US,en;q=0.9","5a79f14a8fe2dc00010593eb","679edb085803f58d6bbd31ca","679ee91930a8554a52bb801d","","661","<img  src='G_7.jpg' height='90'> <img   src='G_5.jpg' height='90'> <img   src='G_3.jpg' height='90'> <img id='selected'  src='G_1.jpg' height='90'> <img id='selected' src='G_9.jpg' height='90'>","3","Learning example 0","",""
"","","","","","html-button-response","67","129907","0.0-43.1-0.1-0.1","26","1","2025-02-02 03:40:20","bc01a2b6f61d06f6604adb8657495020","24.148.13.102","Mozilla/5.0 (Macintosh; Intel Mac OS X 10_15_7) AppleWebKit/537.36 (KHTML, like Gecko) Chrome/131.0.0.0 Safari/537.36","Macintosh","Chrome","131.0.0.0","OS X","10_15_7","https://app.prolific.com/","en-US,en;q=0.9","5a79f14a8fe2dc00010593eb","679edb085803f58d6bbd31ca","679ee91930a8554a52bb801d","","532","<img  src='G_7.jpg' height='90'> <img   src='G_5.jpg' height='90'> <img   src='G_3.jpg' height='90'> <img id='selected'  src='G_1.jpg' height='90'> <img id='selected' src='G_9.jpg' height='90'>","4","Learning example 0","",""
"","","","","","html-button-response","68","130113","0.0-44.0","26","1","2025-02-02 03:40:20","bc01a2b6f61d06f6604adb8657495020","24.148.13.102","Mozilla/5.0 (Macintosh; Intel Mac OS X 10_15_7) AppleWebKit/537.36 (KHTML, like Gecko) Chrome/131.0.0.0 Safari/537.36","Macintosh","Chrome","131.0.0.0","OS X","10_15_7","https://app.prolific.com/","en-US,en;q=0.9","5a79f14a8fe2dc00010593eb","679edb085803f58d6bbd31ca","679ee91930a8554a52bb801d","","null","<img  src='G_7.jpg' height='90'> <img   src='G_5.jpg' height='90'> <img   src='G_3.jpg' height='90'> <img   src='G_1.jpg' height='90'> <img  src='G_9.jpg' height='90'>","null","Learning example 0","",""
"","","","","","html-keyboard-response","69","140729","0.0-45.0","26","1","2025-02-02 03:40:20","bc01a2b6f61d06f6604adb8657495020","24.148.13.102","Mozilla/5.0 (Macintosh; Intel Mac OS X 10_15_7) AppleWebKit/537.36 (KHTML, like Gecko) Chrome/131.0.0.0 Safari/537.36","Macintosh","Chrome","131.0.0.0","OS X","10_15_7","https://app.prolific.com/","en-US,en;q=0.9","5a79f14a8fe2dc00010593eb","679edb085803f58d6bbd31ca","679ee91930a8554a52bb801d","","10612","[""Final order was 1,2,3,4,5. The initial order was 2,1,3,4,5.<br>It took 1 swaps to sort it correctly with Omgne Sort. <br><br>Press Enter to continue.""]","enter","","",""
"","","","","","html-keyboard-response","70","169733","0.0-46.0","26","1","2025-02-02 03:40:20","bc01a2b6f61d06f6604adb8657495020","24.148.13.102","Mozilla/5.0 (Macintosh; Intel Mac OS X 10_15_7) AppleWebKit/537.36 (KHTML, like Gecko) Chrome/131.0.0.0 Safari/537.36","Macintosh","Chrome","131.0.0.0","OS X","10_15_7","https://app.prolific.com/","en-US,en;q=0.9","5a79f14a8fe2dc00010593eb","679edb085803f58d6bbd31ca","679ee91930a8554a52bb801d","","28999","[""Example 2<br><br>You will watch Omnge Sort in action. Try to identify any patterns in the comparisons made by this method. <br><br>Press Enter to continue.""]","enter","","",""
"","","","","","html-keyboard-response","71","170244","0.0-47.0","26","1","2025-02-02 03:40:20","bc01a2b6f61d06f6604adb8657495020","24.148.13.102","Mozilla/5.0 (Macintosh; Intel Mac OS X 10_15_7) AppleWebKit/537.36 (KHTML, like Gecko) Chrome/131.0.0.0 Safari/537.36","Macintosh","Chrome","131.0.0.0","OS X","10_15_7","https://app.prolific.com/","en-US,en;q=0.9","5a79f14a8fe2dc00010593eb","679edb085803f58d6bbd31ca","679ee91930a8554a52bb801d","","null","<img id='selected' src='G_1.jpg' height='90'> <img src='G_3.jpg' height='90'> <img src='G_5.jpg' height='90'> <img src='G_7.jpg' height='90'> <img src='G_6.jpg' height='90'> <img src='G_4.jpg' height='90'> <img src='G_8.jpg' height='90'> <img src='G_2.jpg' height='90'>","null","Animation1","",""
"","","","","","html-keyboard-response","72","170759","0.0-48.0","26","1","2025-02-02 03:40:20","bc01a2b6f61d06f6604adb8657495020","24.148.13.102","Mozilla/5.0 (Macintosh; Intel Mac OS X 10_15_7) AppleWebKit/537.36 (KHTML, like Gecko) Chrome/131.0.0.0 Safari/537.36","Macintosh","Chrome","131.0.0.0","OS X","10_15_7","https://app.prolific.com/","en-US,en;q=0.9","5a79f14a8fe2dc00010593eb","679edb085803f58d6bbd31ca","679ee91930a8554a52bb801d","","null","<img id='selected' src='G_1.jpg' height='90'> <img id='selected' src='G_3.jpg' height='90'> <img src='G_5.jpg' height='90'> <img src='G_7.jpg' height='90'> <img src='G_6.jpg' height='90'> <img src='G_4.jpg' height='90'> <img src='G_8.jpg' height='90'> <img src='G_2.jpg' height='90'>","null","Animation1","",""
"","","","","","html-keyboard-response","73","171268","0.0-49.0","26","1","2025-02-02 03:40:20","bc01a2b6f61d06f6604adb8657495020","24.148.13.102","Mozilla/5.0 (Macintosh; Intel Mac OS X 10_15_7) AppleWebKit/537.36 (KHTML, like Gecko) Chrome/131.0.0.0 Safari/537.36","Macintosh","Chrome","131.0.0.0","OS X","10_15_7","https://app.prolific.com/","en-US,en;q=0.9","5a79f14a8fe2dc00010593eb","679edb085803f58d6bbd31ca","679ee91930a8554a52bb801d","","null","<img id='selected' src='G_1.jpg' height='90'> <img id='selected' src='G_3.jpg' height='90'> <img src='G_5.jpg' height='90'> <img src='G_7.jpg' height='90'> <img src='G_6.jpg' height='90'> <img src='G_4.jpg' height='90'> <img src='G_8.jpg' height='90'> <img src='G_2.jpg' height='90'>","null","Animation1","",""
"","","","","","html-keyboard-response","74","171575","0.0-50.0","26","1","2025-02-02 03:40:20","bc01a2b6f61d06f6604adb8657495020","24.148.13.102","Mozilla/5.0 (Macintosh; Intel Mac OS X 10_15_7) AppleWebKit/537.36 (KHTML, like Gecko) Chrome/131.0.0.0 Safari/537.36","Macintosh","Chrome","131.0.0.0","OS X","10_15_7","https://app.prolific.com/","en-US,en;q=0.9","5a79f14a8fe2dc00010593eb","679edb085803f58d6bbd31ca","679ee91930a8554a52bb801d","","null","<img  src='G_1.jpg' height='90'> <img  src='G_3.jpg' height='90'> <img src='G_5.jpg' height='90'> <img src='G_7.jpg' height='90'> <img src='G_6.jpg' height='90'> <img src='G_4.jpg' height='90'> <img src='G_8.jpg' height='90'> <img src='G_2.jpg' height='90'>","null","Animation1","",""
"","","","","","html-keyboard-response","75","172082","0.0-51.0","26","1","2025-02-02 03:40:20","bc01a2b6f61d06f6604adb8657495020","24.148.13.102","Mozilla/5.0 (Macintosh; Intel Mac OS X 10_15_7) AppleWebKit/537.36 (KHTML, like Gecko) Chrome/131.0.0.0 Safari/537.36","Macintosh","Chrome","131.0.0.0","OS X","10_15_7","https://app.prolific.com/","en-US,en;q=0.9","5a79f14a8fe2dc00010593eb","679edb085803f58d6bbd31ca","679ee91930a8554a52bb801d","","null","<img  src='G_1.jpg' height='90'> <img id='selected'  src='G_3.jpg' height='90'> <img src='G_5.jpg' height='90'> <img src='G_7.jpg' height='90'> <img src='G_6.jpg' height='90'> <img src='G_4.jpg' height='90'> <img src='G_8.jpg' height='90'> <img src='G_2.jpg' height='90'>","null","Animation1","",""
"","","","","","html-keyboard-response","76","172589","0.0-52.0","26","1","2025-02-02 03:40:20","bc01a2b6f61d06f6604adb8657495020","24.148.13.102","Mozilla/5.0 (Macintosh; Intel Mac OS X 10_15_7) AppleWebKit/537.36 (KHTML, like Gecko) Chrome/131.0.0.0 Safari/537.36","Macintosh","Chrome","131.0.0.0","OS X","10_15_7","https://app.prolific.com/","en-US,en;q=0.9","5a79f14a8fe2dc00010593eb","679edb085803f58d6bbd31ca","679ee91930a8554a52bb801d","","null","<img  src='G_1.jpg' height='90'> <img id='selected'  src='G_3.jpg' height='90'> <img id='selected' src='G_5.jpg' height='90'> <img src='G_7.jpg' height='90'> <img src='G_6.jpg' height='90'> <img src='G_4.jpg' height='90'> <img src='G_8.jpg' height='90'> <img src='G_2.jpg' height='90'>","null","Animation1","",""
"","","","","","html-keyboard-response","77","173095","0.0-53.0","26","1","2025-02-02 03:40:20","bc01a2b6f61d06f6604adb8657495020","24.148.13.102","Mozilla/5.0 (Macintosh; Intel Mac OS X 10_15_7) AppleWebKit/537.36 (KHTML, like Gecko) Chrome/131.0.0.0 Safari/537.36","Macintosh","Chrome","131.0.0.0","OS X","10_15_7","https://app.prolific.com/","en-US,en;q=0.9","5a79f14a8fe2dc00010593eb","679edb085803f58d6bbd31ca","679ee91930a8554a52bb801d","","null","<img  src='G_1.jpg' height='90'> <img id='swapped' src='G_5.jpg' height='90'> <img id='swapped'  src='G_3.jpg' height='90'> <img src='G_7.jpg' height='90'> <img src='G_6.jpg' height='90'> <img src='G_4.jpg' height='90'> <img src='G_8.jpg' height='90'> <img src='G_2.jpg' height='90'>","null","Animation1","",""
"","","","","","html-keyboard-response","78","173399","0.0-54.0","26","1","2025-02-02 03:40:20","bc01a2b6f61d06f6604adb8657495020","24.148.13.102","Mozilla/5.0 (Macintosh; Intel Mac OS X 10_15_7) AppleWebKit/537.36 (KHTML, like Gecko) Chrome/131.0.0.0 Safari/537.36","Macintosh","Chrome","131.0.0.0","OS X","10_15_7","https://app.prolific.com/","en-US,en;q=0.9","5a79f14a8fe2dc00010593eb","679edb085803f58d6bbd31ca","679ee91930a8554a52bb801d","","null","<img  src='G_1.jpg' height='90'> <img  src='G_5.jpg' height='90'> <img   src='G_3.jpg' height='90'> <img src='G_7.jpg' height='90'> <img src='G_6.jpg' height='90'> <img src='G_4.jpg' height='90'> <img src='G_8.jpg' height='90'> <img src='G_2.jpg' height='90'>","null","Animation1","",""
"","","","","","html-keyboard-response","79","173903","0.0-55.0","26","1","2025-02-02 03:40:20","bc01a2b6f61d06f6604adb8657495020","24.148.13.102","Mozilla/5.0 (Macintosh; Intel Mac OS X 10_15_7) AppleWebKit/537.36 (KHTML, like Gecko) Chrome/131.0.0.0 Safari/537.36","Macintosh","Chrome","131.0.0.0","OS X","10_15_7","https://app.prolific.com/","en-US,en;q=0.9","5a79f14a8fe2dc00010593eb","679edb085803f58d6bbd31ca","679ee91930a8554a52bb801d","","null","<img id='selected'  src='G_1.jpg' height='90'> <img  src='G_5.jpg' height='90'> <img   src='G_3.jpg' height='90'> <img src='G_7.jpg' height='90'> <img src='G_6.jpg' height='90'> <img src='G_4.jpg' height='90'> <img src='G_8.jpg' height='90'> <img src='G_2.jpg' height='90'>","null","Animation1","",""
"","","","","","html-keyboard-response","80","174409","0.0-56.0","26","1","2025-02-02 03:40:20","bc01a2b6f61d06f6604adb8657495020","24.148.13.102","Mozilla/5.0 (Macintosh; Intel Mac OS X 10_15_7) AppleWebKit/537.36 (KHTML, like Gecko) Chrome/131.0.0.0 Safari/537.36","Macintosh","Chrome","131.0.0.0","OS X","10_15_7","https://app.prolific.com/","en-US,en;q=0.9","5a79f14a8fe2dc00010593eb","679edb085803f58d6bbd31ca","679ee91930a8554a52bb801d","","null","<img id='selected'  src='G_1.jpg' height='90'> <img id='selected'  src='G_5.jpg' height='90'> <img   src='G_3.jpg' height='90'> <img src='G_7.jpg' height='90'> <img src='G_6.jpg' height='90'> <img src='G_4.jpg' height='90'> <img src='G_8.jpg' height='90'> <img src='G_2.jpg' height='90'>","null","Animation1","",""
"","","","","","html-keyboard-response","81","174915","0.0-57.0","26","1","2025-02-02 03:40:20","bc01a2b6f61d06f6604adb8657495020","24.148.13.102","Mozilla/5.0 (Macintosh; Intel Mac OS X 10_15_7) AppleWebKit/537.36 (KHTML, like Gecko) Chrome/131.0.0.0 Safari/537.36","Macintosh","Chrome","131.0.0.0","OS X","10_15_7","https://app.prolific.com/","en-US,en;q=0.9","5a79f14a8fe2dc00010593eb","679edb085803f58d6bbd31ca","679ee91930a8554a52bb801d","","null","<img id='swapped'  src='G_5.jpg' height='90'> <img id='swapped'  src='G_1.jpg' height='90'> <img   src='G_3.jpg' height='90'> <img src='G_7.jpg' height='90'> <img src='G_6.jpg' height='90'> <img src='G_4.jpg' height='90'> <img src='G_8.jpg' height='90'> <img src='G_2.jpg' height='90'>","null","Animation1","",""
"","","","","","html-keyboard-response","82","175220","0.0-58.0","26","1","2025-02-02 03:40:20","bc01a2b6f61d06f6604adb8657495020","24.148.13.102","Mozilla/5.0 (Macintosh; Intel Mac OS X 10_15_7) AppleWebKit/537.36 (KHTML, like Gecko) Chrome/131.0.0.0 Safari/537.36","Macintosh","Chrome","131.0.0.0","OS X","10_15_7","https://app.prolific.com/","en-US,en;q=0.9","5a79f14a8fe2dc00010593eb","679edb085803f58d6bbd31ca","679ee91930a8554a52bb801d","","null","<img   src='G_5.jpg' height='90'> <img   src='G_1.jpg' height='90'> <img   src='G_3.jpg' height='90'> <img src='G_7.jpg' height='90'> <img src='G_6.jpg' height='90'> <img src='G_4.jpg' height='90'> <img src='G_8.jpg' height='90'> <img src='G_2.jpg' height='90'>","null","Animation1","",""
"","","","","","html-keyboard-response","83","175725","0.0-59.0","26","1","2025-02-02 03:40:20","bc01a2b6f61d06f6604adb8657495020","24.148.13.102","Mozilla/5.0 (Macintosh; Intel Mac OS X 10_15_7) AppleWebKit/537.36 (KHTML, like Gecko) Chrome/131.0.0.0 Safari/537.36","Macintosh","Chrome","131.0.0.0","OS X","10_15_7","https://app.prolific.com/","en-US,en;q=0.9","5a79f14a8fe2dc00010593eb","679edb085803f58d6bbd31ca","679ee91930a8554a52bb801d","","null","<img   src='G_5.jpg' height='90'> <img   src='G_1.jpg' height='90'> <img id='selected'   src='G_3.jpg' height='90'> <img src='G_7.jpg' height='90'> <img src='G_6.jpg' height='90'> <img src='G_4.jpg' height='90'> <img src='G_8.jpg' height='90'> <img src='G_2.jpg' height='90'>","null","Animation1","",""
"","","","","","html-keyboard-response","84","176230","0.0-60.0","26","1","2025-02-02 03:40:20","bc01a2b6f61d06f6604adb8657495020","24.148.13.102","Mozilla/5.0 (Macintosh; Intel Mac OS X 10_15_7) AppleWebKit/537.36 (KHTML, like Gecko) Chrome/131.0.0.0 Safari/537.36","Macintosh","Chrome","131.0.0.0","OS X","10_15_7","https://app.prolific.com/","en-US,en;q=0.9","5a79f14a8fe2dc00010593eb","679edb085803f58d6bbd31ca","679ee91930a8554a52bb801d","","null","<img   src='G_5.jpg' height='90'> <img   src='G_1.jpg' height='90'> <img id='selected'   src='G_3.jpg' height='90'> <img id='selected' src='G_7.jpg' height='90'> <img src='G_6.jpg' height='90'> <img src='G_4.jpg' height='90'> <img src='G_8.jpg' height='90'> <img src='G_2.jpg' height='90'>","null","Animation1","",""
"","","","","","html-keyboard-response","85","176736","0.0-61.0","26","1","2025-02-02 03:40:20","bc01a2b6f61d06f6604adb8657495020","24.148.13.102","Mozilla/5.0 (Macintosh; Intel Mac OS X 10_15_7) AppleWebKit/537.36 (KHTML, like Gecko) Chrome/131.0.0.0 Safari/537.36","Macintosh","Chrome","131.0.0.0","OS X","10_15_7","https://app.prolific.com/","en-US,en;q=0.9","5a79f14a8fe2dc00010593eb","679edb085803f58d6bbd31ca","679ee91930a8554a52bb801d","","null","<img   src='G_5.jpg' height='90'> <img   src='G_1.jpg' height='90'> <img id='swapped' src='G_7.jpg' height='90'> <img id='swapped'   src='G_3.jpg' height='90'> <img src='G_6.jpg' height='90'> <img src='G_4.jpg' height='90'> <img src='G_8.jpg' height='90'> <img src='G_2.jpg' height='90'>","null","Animation1","",""
"","","","","","html-keyboard-response","86","177040","0.0-62.0","26","1","2025-02-02 03:40:20","bc01a2b6f61d06f6604adb8657495020","24.148.13.102","Mozilla/5.0 (Macintosh; Intel Mac OS X 10_15_7) AppleWebKit/537.36 (KHTML, like Gecko) Chrome/131.0.0.0 Safari/537.36","Macintosh","Chrome","131.0.0.0","OS X","10_15_7","https://app.prolific.com/","en-US,en;q=0.9","5a79f14a8fe2dc00010593eb","679edb085803f58d6bbd31ca","679ee91930a8554a52bb801d","","null","<img   src='G_5.jpg' height='90'> <img   src='G_1.jpg' height='90'> <img  src='G_7.jpg' height='90'> <img    src='G_3.jpg' height='90'> <img src='G_6.jpg' height='90'> <img src='G_4.jpg' height='90'> <img src='G_8.jpg' height='90'> <img src='G_2.jpg' height='90'>","null","Animation1","",""
"","","","","","html-keyboard-response","87","177544","0.0-63.0","26","1","2025-02-02 03:40:20","bc01a2b6f61d06f6604adb8657495020","24.148.13.102","Mozilla/5.0 (Macintosh; Intel Mac OS X 10_15_7) AppleWebKit/537.36 (KHTML, like Gecko) Chrome/131.0.0.0 Safari/537.36","Macintosh","Chrome","131.0.0.0","OS X","10_15_7","https://app.prolific.com/","en-US,en;q=0.9","5a79f14a8fe2dc00010593eb","679edb085803f58d6bbd31ca","679ee91930a8554a52bb801d","","null","<img   src='G_5.jpg' height='90'> <img id='selected'   src='G_1.jpg' height='90'> <img  src='G_7.jpg' height='90'> <img    src='G_3.jpg' height='90'> <img src='G_6.jpg' height='90'> <img src='G_4.jpg' height='90'> <img src='G_8.jpg' height='90'> <img src='G_2.jpg' height='90'>","null","Animation1","",""
"","","","","","html-keyboard-response","88","178049","0.0-64.0","26","1","2025-02-02 03:40:20","bc01a2b6f61d06f6604adb8657495020","24.148.13.102","Mozilla/5.0 (Macintosh; Intel Mac OS X 10_15_7) AppleWebKit/537.36 (KHTML, like Gecko) Chrome/131.0.0.0 Safari/537.36","Macintosh","Chrome","131.0.0.0","OS X","10_15_7","https://app.prolific.com/","en-US,en;q=0.9","5a79f14a8fe2dc00010593eb","679edb085803f58d6bbd31ca","679ee91930a8554a52bb801d","","null","<img   src='G_5.jpg' height='90'> <img id='selected'   src='G_1.jpg' height='90'> <img id='selected'  src='G_7.jpg' height='90'> <img    src='G_3.jpg' height='90'> <img src='G_6.jpg' height='90'> <img src='G_4.jpg' height='90'> <img src='G_8.jpg' height='90'> <img src='G_2.jpg' height='90'>","null","Animation1","",""
"","","","","","html-keyboard-response","89","178556","0.0-65.0","26","1","2025-02-02 03:40:20","bc01a2b6f61d06f6604adb8657495020","24.148.13.102","Mozilla/5.0 (Macintosh; Intel Mac OS X 10_15_7) AppleWebKit/537.36 (KHTML, like Gecko) Chrome/131.0.0.0 Safari/537.36","Macintosh","Chrome","131.0.0.0","OS X","10_15_7","https://app.prolific.com/","en-US,en;q=0.9","5a79f14a8fe2dc00010593eb","679edb085803f58d6bbd31ca","679ee91930a8554a52bb801d","","null","<img   src='G_5.jpg' height='90'> <img id='swapped'  src='G_7.jpg' height='90'> <img id='swapped'   src='G_1.jpg' height='90'> <img    src='G_3.jpg' height='90'> <img src='G_6.jpg' height='90'> <img src='G_4.jpg' height='90'> <img src='G_8.jpg' height='90'> <img src='G_2.jpg' height='90'>","null","Animation1","",""
"","","","","","html-keyboard-response","90","178862","0.0-66.0","26","1","2025-02-02 03:40:20","bc01a2b6f61d06f6604adb8657495020","24.148.13.102","Mozilla/5.0 (Macintosh; Intel Mac OS X 10_15_7) AppleWebKit/537.36 (KHTML, like Gecko) Chrome/131.0.0.0 Safari/537.36","Macintosh","Chrome","131.0.0.0","OS X","10_15_7","https://app.prolific.com/","en-US,en;q=0.9","5a79f14a8fe2dc00010593eb","679edb085803f58d6bbd31ca","679ee91930a8554a52bb801d","","null","<img   src='G_5.jpg' height='90'> <img   src='G_7.jpg' height='90'> <img    src='G_1.jpg' height='90'> <img    src='G_3.jpg' height='90'> <img src='G_6.jpg' height='90'> <img src='G_4.jpg' height='90'> <img src='G_8.jpg' height='90'> <img src='G_2.jpg' height='90'>","null","Animation1","",""
"","","","","","html-keyboard-response","91","179367","0.0-67.0","26","1","2025-02-02 03:40:20","bc01a2b6f61d06f6604adb8657495020","24.148.13.102","Mozilla/5.0 (Macintosh; Intel Mac OS X 10_15_7) AppleWebKit/537.36 (KHTML, like Gecko) Chrome/131.0.0.0 Safari/537.36","Macintosh","Chrome","131.0.0.0","OS X","10_15_7","https://app.prolific.com/","en-US,en;q=0.9","5a79f14a8fe2dc00010593eb","679edb085803f58d6bbd31ca","679ee91930a8554a52bb801d","","null","<img id='selected'   src='G_5.jpg' height='90'> <img   src='G_7.jpg' height='90'> <img    src='G_1.jpg' height='90'> <img    src='G_3.jpg' height='90'> <img src='G_6.jpg' height='90'> <img src='G_4.jpg' height='90'> <img src='G_8.jpg' height='90'> <img src='G_2.jpg' height='90'>","null","Animation1","",""
"","","","","","html-keyboard-response","92","179876","0.0-68.0","26","1","2025-02-02 03:40:20","bc01a2b6f61d06f6604adb8657495020","24.148.13.102","Mozilla/5.0 (Macintosh; Intel Mac OS X 10_15_7) AppleWebKit/537.36 (KHTML, like Gecko) Chrome/131.0.0.0 Safari/537.36","Macintosh","Chrome","131.0.0.0","OS X","10_15_7","https://app.prolific.com/","en-US,en;q=0.9","5a79f14a8fe2dc00010593eb","679edb085803f58d6bbd31ca","679ee91930a8554a52bb801d","","null","<img id='selected'   src='G_5.jpg' height='90'> <img id='selected'   src='G_7.jpg' height='90'> <img    src='G_1.jpg' height='90'> <img    src='G_3.jpg' height='90'> <img src='G_6.jpg' height='90'> <img src='G_4.jpg' height='90'> <img src='G_8.jpg' height='90'> <img src='G_2.jpg' height='90'>","null","Animation1","",""
"","","","","","html-keyboard-response","93","180384","0.0-69.0","26","1","2025-02-02 03:40:20","bc01a2b6f61d06f6604adb8657495020","24.148.13.102","Mozilla/5.0 (Macintosh; Intel Mac OS X 10_15_7) AppleWebKit/537.36 (KHTML, like Gecko) Chrome/131.0.0.0 Safari/537.36","Macintosh","Chrome","131.0.0.0","OS X","10_15_7","https://app.prolific.com/","en-US,en;q=0.9","5a79f14a8fe2dc00010593eb","679edb085803f58d6bbd31ca","679ee91930a8554a52bb801d","","null","<img id='swapped'   src='G_7.jpg' height='90'> <img id='swapped'   src='G_5.jpg' height='90'> <img    src='G_1.jpg' height='90'> <img    src='G_3.jpg' height='90'> <img src='G_6.jpg' height='90'> <img src='G_4.jpg' height='90'> <img src='G_8.jpg' height='90'> <img src='G_2.jpg' height='90'>","null","Animation1","",""
"","","","","","html-keyboard-response","94","180690","0.0-70.0","26","1","2025-02-02 03:40:20","bc01a2b6f61d06f6604adb8657495020","24.148.13.102","Mozilla/5.0 (Macintosh; Intel Mac OS X 10_15_7) AppleWebKit/537.36 (KHTML, like Gecko) Chrome/131.0.0.0 Safari/537.36","Macintosh","Chrome","131.0.0.0","OS X","10_15_7","https://app.prolific.com/","en-US,en;q=0.9","5a79f14a8fe2dc00010593eb","679edb085803f58d6bbd31ca","679ee91930a8554a52bb801d","","null","<img    src='G_7.jpg' height='90'> <img    src='G_5.jpg' height='90'> <img    src='G_1.jpg' height='90'> <img    src='G_3.jpg' height='90'> <img src='G_6.jpg' height='90'> <img src='G_4.jpg' height='90'> <img src='G_8.jpg' height='90'> <img src='G_2.jpg' height='90'>","null","Animation1","",""
"","","","","","html-keyboard-response","95","181195","0.0-71.0","26","1","2025-02-02 03:40:20","bc01a2b6f61d06f6604adb8657495020","24.148.13.102","Mozilla/5.0 (Macintosh; Intel Mac OS X 10_15_7) AppleWebKit/537.36 (KHTML, like Gecko) Chrome/131.0.0.0 Safari/537.36","Macintosh","Chrome","131.0.0.0","OS X","10_15_7","https://app.prolific.com/","en-US,en;q=0.9","5a79f14a8fe2dc00010593eb","679edb085803f58d6bbd31ca","679ee91930a8554a52bb801d","","null","<img    src='G_7.jpg' height='90'> <img    src='G_5.jpg' height='90'> <img    src='G_1.jpg' height='90'> <img id='selected'    src='G_3.jpg' height='90'> <img src='G_6.jpg' height='90'> <img src='G_4.jpg' height='90'> <img src='G_8.jpg' height='90'> <img src='G_2.jpg' height='90'>","null","Animation1","",""
"","","","","","html-keyboard-response","96","181699","0.0-72.0","26","1","2025-02-02 03:40:20","bc01a2b6f61d06f6604adb8657495020","24.148.13.102","Mozilla/5.0 (Macintosh; Intel Mac OS X 10_15_7) AppleWebKit/537.36 (KHTML, like Gecko) Chrome/131.0.0.0 Safari/537.36","Macintosh","Chrome","131.0.0.0","OS X","10_15_7","https://app.prolific.com/","en-US,en;q=0.9","5a79f14a8fe2dc00010593eb","679edb085803f58d6bbd31ca","679ee91930a8554a52bb801d","","null","<img    src='G_7.jpg' height='90'> <img    src='G_5.jpg' height='90'> <img    src='G_1.jpg' height='90'> <img id='selected'    src='G_3.jpg' height='90'> <img id='selected' src='G_6.jpg' height='90'> <img src='G_4.jpg' height='90'> <img src='G_8.jpg' height='90'> <img src='G_2.jpg' height='90'>","null","Animation1","",""
"","","","","","html-keyboard-response","97","182204","0.0-73.0","26","1","2025-02-02 03:40:20","bc01a2b6f61d06f6604adb8657495020","24.148.13.102","Mozilla/5.0 (Macintosh; Intel Mac OS X 10_15_7) AppleWebKit/537.36 (KHTML, like Gecko) Chrome/131.0.0.0 Safari/537.36","Macintosh","Chrome","131.0.0.0","OS X","10_15_7","https://app.prolific.com/","en-US,en;q=0.9","5a79f14a8fe2dc00010593eb","679edb085803f58d6bbd31ca","679ee91930a8554a52bb801d","","null","<img    src='G_7.jpg' height='90'> <img    src='G_5.jpg' height='90'> <img    src='G_1.jpg' height='90'> <img id='swapped' src='G_6.jpg' height='90'> <img id='swapped'    src='G_3.jpg' height='90'> <img src='G_4.jpg' height='90'> <img src='G_8.jpg' height='90'> <img src='G_2.jpg' height='90'>","null","Animation1","",""
"","","","","","html-keyboard-response","98","182508","0.0-74.0","26","1","2025-02-02 03:40:20","bc01a2b6f61d06f6604adb8657495020","24.148.13.102","Mozilla/5.0 (Macintosh; Intel Mac OS X 10_15_7) AppleWebKit/537.36 (KHTML, like Gecko) Chrome/131.0.0.0 Safari/537.36","Macintosh","Chrome","131.0.0.0","OS X","10_15_7","https://app.prolific.com/","en-US,en;q=0.9","5a79f14a8fe2dc00010593eb","679edb085803f58d6bbd31ca","679ee91930a8554a52bb801d","","null","<img    src='G_7.jpg' height='90'> <img    src='G_5.jpg' height='90'> <img    src='G_1.jpg' height='90'> <img  src='G_6.jpg' height='90'> <img     src='G_3.jpg' height='90'> <img src='G_4.jpg' height='90'> <img src='G_8.jpg' height='90'> <img src='G_2.jpg' height='90'>","null","Animation1","",""
"","","","","","html-keyboard-response","99","183014","0.0-75.0","26","1","2025-02-02 03:40:20","bc01a2b6f61d06f6604adb8657495020","24.148.13.102","Mozilla/5.0 (Macintosh; Intel Mac OS X 10_15_7) AppleWebKit/537.36 (KHTML, like Gecko) Chrome/131.0.0.0 Safari/537.36","Macintosh","Chrome","131.0.0.0","OS X","10_15_7","https://app.prolific.com/","en-US,en;q=0.9","5a79f14a8fe2dc00010593eb","679edb085803f58d6bbd31ca","679ee91930a8554a52bb801d","","null","<img    src='G_7.jpg' height='90'> <img    src='G_5.jpg' height='90'> <img id='selected'    src='G_1.jpg' height='90'> <img  src='G_6.jpg' height='90'> <img     src='G_3.jpg' height='90'> <img src='G_4.jpg' height='90'> <img src='G_8.jpg' height='90'> <img src='G_2.jpg' height='90'>","null","Animation1","",""
"","","","","","html-keyboard-response","100","183518","0.0-76.0","26","1","2025-02-02 03:40:20","bc01a2b6f61d06f6604adb8657495020","24.148.13.102","Mozilla/5.0 (Macintosh; Intel Mac OS X 10_15_7) AppleWebKit/537.36 (KHTML, like Gecko) Chrome/131.0.0.0 Safari/537.36","Macintosh","Chrome","131.0.0.0","OS X","10_15_7","https://app.prolific.com/","en-US,en;q=0.9","5a79f14a8fe2dc00010593eb","679edb085803f58d6bbd31ca","679ee91930a8554a52bb801d","","null","<img    src='G_7.jpg' height='90'> <img    src='G_5.jpg' height='90'> <img id='selected'    src='G_1.jpg' height='90'> <img id='selected'  src='G_6.jpg' height='90'> <img     src='G_3.jpg' height='90'> <img src='G_4.jpg' height='90'> <img src='G_8.jpg' height='90'> <img src='G_2.jpg' height='90'>","null","Animation1","",""
"","","","","","html-keyboard-response","101","184024","0.0-77.0","26","1","2025-02-02 03:40:20","bc01a2b6f61d06f6604adb8657495020","24.148.13.102","Mozilla/5.0 (Macintosh; Intel Mac OS X 10_15_7) AppleWebKit/537.36 (KHTML, like Gecko) Chrome/131.0.0.0 Safari/537.36","Macintosh","Chrome","131.0.0.0","OS X","10_15_7","https://app.prolific.com/","en-US,en;q=0.9","5a79f14a8fe2dc00010593eb","679edb085803f58d6bbd31ca","679ee91930a8554a52bb801d","","null","<img    src='G_7.jpg' height='90'> <img    src='G_5.jpg' height='90'> <img id='swapped'  src='G_6.jpg' height='90'> <img id='swapped'    src='G_1.jpg' height='90'> <img     src='G_3.jpg' height='90'> <img src='G_4.jpg' height='90'> <img src='G_8.jpg' height='90'> <img src='G_2.jpg' height='90'>","null","Animation1","",""
"","","","","","html-keyboard-response","102","184326","0.0-78.0","26","1","2025-02-02 03:40:20","bc01a2b6f61d06f6604adb8657495020","24.148.13.102","Mozilla/5.0 (Macintosh; Intel Mac OS X 10_15_7) AppleWebKit/537.36 (KHTML, like Gecko) Chrome/131.0.0.0 Safari/537.36","Macintosh","Chrome","131.0.0.0","OS X","10_15_7","https://app.prolific.com/","en-US,en;q=0.9","5a79f14a8fe2dc00010593eb","679edb085803f58d6bbd31ca","679ee91930a8554a52bb801d","","null","<img    src='G_7.jpg' height='90'> <img    src='G_5.jpg' height='90'> <img   src='G_6.jpg' height='90'> <img     src='G_1.jpg' height='90'> <img     src='G_3.jpg' height='90'> <img src='G_4.jpg' height='90'> <img src='G_8.jpg' height='90'> <img src='G_2.jpg' height='90'>","null","Animation1","",""
"","","","","","html-keyboard-response","103","184828","0.0-79.0","26","1","2025-02-02 03:40:20","bc01a2b6f61d06f6604adb8657495020","24.148.13.102","Mozilla/5.0 (Macintosh; Intel Mac OS X 10_15_7) AppleWebKit/537.36 (KHTML, like Gecko) Chrome/131.0.0.0 Safari/537.36","Macintosh","Chrome","131.0.0.0","OS X","10_15_7","https://app.prolific.com/","en-US,en;q=0.9","5a79f14a8fe2dc00010593eb","679edb085803f58d6bbd31ca","679ee91930a8554a52bb801d","","null","<img    src='G_7.jpg' height='90'> <img id='selected'    src='G_5.jpg' height='90'> <img   src='G_6.jpg' height='90'> <img     src='G_1.jpg' height='90'> <img     src='G_3.jpg' height='90'> <img src='G_4.jpg' height='90'> <img src='G_8.jpg' height='90'> <img src='G_2.jpg' height='90'>","null","Animation1","",""
"","","","","","html-keyboard-response","104","185334","0.0-80.0","26","1","2025-02-02 03:40:20","bc01a2b6f61d06f6604adb8657495020","24.148.13.102","Mozilla/5.0 (Macintosh; Intel Mac OS X 10_15_7) AppleWebKit/537.36 (KHTML, like Gecko) Chrome/131.0.0.0 Safari/537.36","Macintosh","Chrome","131.0.0.0","OS X","10_15_7","https://app.prolific.com/","en-US,en;q=0.9","5a79f14a8fe2dc00010593eb","679edb085803f58d6bbd31ca","679ee91930a8554a52bb801d","","null","<img    src='G_7.jpg' height='90'> <img id='selected'    src='G_5.jpg' height='90'> <img id='selected'   src='G_6.jpg' height='90'> <img     src='G_1.jpg' height='90'> <img     src='G_3.jpg' height='90'> <img src='G_4.jpg' height='90'> <img src='G_8.jpg' height='90'> <img src='G_2.jpg' height='90'>","null","Animation1","",""
"","","","","","html-keyboard-response","105","185840","0.0-81.0","26","1","2025-02-02 03:40:20","bc01a2b6f61d06f6604adb8657495020","24.148.13.102","Mozilla/5.0 (Macintosh; Intel Mac OS X 10_15_7) AppleWebKit/537.36 (KHTML, like Gecko) Chrome/131.0.0.0 Safari/537.36","Macintosh","Chrome","131.0.0.0","OS X","10_15_7","https://app.prolific.com/","en-US,en;q=0.9","5a79f14a8fe2dc00010593eb","679edb085803f58d6bbd31ca","679ee91930a8554a52bb801d","","null","<img    src='G_7.jpg' height='90'> <img id='swapped'   src='G_6.jpg' height='90'> <img id='swapped'    src='G_5.jpg' height='90'> <img     src='G_1.jpg' height='90'> <img     src='G_3.jpg' height='90'> <img src='G_4.jpg' height='90'> <img src='G_8.jpg' height='90'> <img src='G_2.jpg' height='90'>","null","Animation1","",""
"","","","","","html-keyboard-response","106","186146","0.0-82.0","26","1","2025-02-02 03:40:20","bc01a2b6f61d06f6604adb8657495020","24.148.13.102","Mozilla/5.0 (Macintosh; Intel Mac OS X 10_15_7) AppleWebKit/537.36 (KHTML, like Gecko) Chrome/131.0.0.0 Safari/537.36","Macintosh","Chrome","131.0.0.0","OS X","10_15_7","https://app.prolific.com/","en-US,en;q=0.9","5a79f14a8fe2dc00010593eb","679edb085803f58d6bbd31ca","679ee91930a8554a52bb801d","","null","<img    src='G_7.jpg' height='90'> <img    src='G_6.jpg' height='90'> <img     src='G_5.jpg' height='90'> <img     src='G_1.jpg' height='90'> <img     src='G_3.jpg' height='90'> <img src='G_4.jpg' height='90'> <img src='G_8.jpg' height='90'> <img src='G_2.jpg' height='90'>","null","Animation1","",""
"","","","","","html-keyboard-response","107","186652","0.0-83.0","26","1","2025-02-02 03:40:20","bc01a2b6f61d06f6604adb8657495020","24.148.13.102","Mozilla/5.0 (Macintosh; Intel Mac OS X 10_15_7) AppleWebKit/537.36 (KHTML, like Gecko) Chrome/131.0.0.0 Safari/537.36","Macintosh","Chrome","131.0.0.0","OS X","10_15_7","https://app.prolific.com/","en-US,en;q=0.9","5a79f14a8fe2dc00010593eb","679edb085803f58d6bbd31ca","679ee91930a8554a52bb801d","","null","<img id='selected'    src='G_7.jpg' height='90'> <img    src='G_6.jpg' height='90'> <img     src='G_5.jpg' height='90'> <img     src='G_1.jpg' height='90'> <img     src='G_3.jpg' height='90'> <img src='G_4.jpg' height='90'> <img src='G_8.jpg' height='90'> <img src='G_2.jpg' height='90'>","null","Animation1","",""
"","","","","","html-keyboard-response","108","187157","0.0-84.0","26","1","2025-02-02 03:40:20","bc01a2b6f61d06f6604adb8657495020","24.148.13.102","Mozilla/5.0 (Macintosh; Intel Mac OS X 10_15_7) AppleWebKit/537.36 (KHTML, like Gecko) Chrome/131.0.0.0 Safari/537.36","Macintosh","Chrome","131.0.0.0","OS X","10_15_7","https://app.prolific.com/","en-US,en;q=0.9","5a79f14a8fe2dc00010593eb","679edb085803f58d6bbd31ca","679ee91930a8554a52bb801d","","null","<img id='selected'    src='G_7.jpg' height='90'> <img id='selected'    src='G_6.jpg' height='90'> <img     src='G_5.jpg' height='90'> <img     src='G_1.jpg' height='90'> <img     src='G_3.jpg' height='90'> <img src='G_4.jpg' height='90'> <img src='G_8.jpg' height='90'> <img src='G_2.jpg' height='90'>","null","Animation1","",""
"","","","","","html-keyboard-response","109","187663","0.0-85.0","26","1","2025-02-02 03:40:20","bc01a2b6f61d06f6604adb8657495020","24.148.13.102","Mozilla/5.0 (Macintosh; Intel Mac OS X 10_15_7) AppleWebKit/537.36 (KHTML, like Gecko) Chrome/131.0.0.0 Safari/537.36","Macintosh","Chrome","131.0.0.0","OS X","10_15_7","https://app.prolific.com/","en-US,en;q=0.9","5a79f14a8fe2dc00010593eb","679edb085803f58d6bbd31ca","679ee91930a8554a52bb801d","","null","<img id='selected'    src='G_7.jpg' height='90'> <img id='selected'    src='G_6.jpg' height='90'> <img     src='G_5.jpg' height='90'> <img     src='G_1.jpg' height='90'> <img     src='G_3.jpg' height='90'> <img src='G_4.jpg' height='90'> <img src='G_8.jpg' height='90'> <img src='G_2.jpg' height='90'>","null","Animation1","",""
"","","","","","html-keyboard-response","110","187969","0.0-86.0","26","1","2025-02-02 03:40:20","bc01a2b6f61d06f6604adb8657495020","24.148.13.102","Mozilla/5.0 (Macintosh; Intel Mac OS X 10_15_7) AppleWebKit/537.36 (KHTML, like Gecko) Chrome/131.0.0.0 Safari/537.36","Macintosh","Chrome","131.0.0.0","OS X","10_15_7","https://app.prolific.com/","en-US,en;q=0.9","5a79f14a8fe2dc00010593eb","679edb085803f58d6bbd31ca","679ee91930a8554a52bb801d","","null","<img     src='G_7.jpg' height='90'> <img     src='G_6.jpg' height='90'> <img     src='G_5.jpg' height='90'> <img     src='G_1.jpg' height='90'> <img     src='G_3.jpg' height='90'> <img src='G_4.jpg' height='90'> <img src='G_8.jpg' height='90'> <img src='G_2.jpg' height='90'>","null","Animation1","",""
"","","","","","html-keyboard-response","111","188475","0.0-87.0","26","1","2025-02-02 03:40:20","bc01a2b6f61d06f6604adb8657495020","24.148.13.102","Mozilla/5.0 (Macintosh; Intel Mac OS X 10_15_7) AppleWebKit/537.36 (KHTML, like Gecko) Chrome/131.0.0.0 Safari/537.36","Macintosh","Chrome","131.0.0.0","OS X","10_15_7","https://app.prolific.com/","en-US,en;q=0.9","5a79f14a8fe2dc00010593eb","679edb085803f58d6bbd31ca","679ee91930a8554a52bb801d","","null","<img     src='G_7.jpg' height='90'> <img     src='G_6.jpg' height='90'> <img     src='G_5.jpg' height='90'> <img     src='G_1.jpg' height='90'> <img id='selected'     src='G_3.jpg' height='90'> <img src='G_4.jpg' height='90'> <img src='G_8.jpg' height='90'> <img src='G_2.jpg' height='90'>","null","Animation1","",""
"","","","","","html-keyboard-response","112","188978","0.0-88.0","26","1","2025-02-02 03:40:20","bc01a2b6f61d06f6604adb8657495020","24.148.13.102","Mozilla/5.0 (Macintosh; Intel Mac OS X 10_15_7) AppleWebKit/537.36 (KHTML, like Gecko) Chrome/131.0.0.0 Safari/537.36","Macintosh","Chrome","131.0.0.0","OS X","10_15_7","https://app.prolific.com/","en-US,en;q=0.9","5a79f14a8fe2dc00010593eb","679edb085803f58d6bbd31ca","679ee91930a8554a52bb801d","","null","<img     src='G_7.jpg' height='90'> <img     src='G_6.jpg' height='90'> <img     src='G_5.jpg' height='90'> <img     src='G_1.jpg' height='90'> <img id='selected'     src='G_3.jpg' height='90'> <img id='selected' src='G_4.jpg' height='90'> <img src='G_8.jpg' height='90'> <img src='G_2.jpg' height='90'>","null","Animation1","",""
"","","","","","html-keyboard-response","113","189483","0.0-89.0","26","1","2025-02-02 03:40:20","bc01a2b6f61d06f6604adb8657495020","24.148.13.102","Mozilla/5.0 (Macintosh; Intel Mac OS X 10_15_7) AppleWebKit/537.36 (KHTML, like Gecko) Chrome/131.0.0.0 Safari/537.36","Macintosh","Chrome","131.0.0.0","OS X","10_15_7","https://app.prolific.com/","en-US,en;q=0.9","5a79f14a8fe2dc00010593eb","679edb085803f58d6bbd31ca","679ee91930a8554a52bb801d","","null","<img     src='G_7.jpg' height='90'> <img     src='G_6.jpg' height='90'> <img     src='G_5.jpg' height='90'> <img     src='G_1.jpg' height='90'> <img id='swapped' src='G_4.jpg' height='90'> <img id='swapped'     src='G_3.jpg' height='90'> <img src='G_8.jpg' height='90'> <img src='G_2.jpg' height='90'>","null","Animation1","",""
"","","","","","html-keyboard-response","114","189787","0.0-90.0","26","1","2025-02-02 03:40:20","bc01a2b6f61d06f6604adb8657495020","24.148.13.102","Mozilla/5.0 (Macintosh; Intel Mac OS X 10_15_7) AppleWebKit/537.36 (KHTML, like Gecko) Chrome/131.0.0.0 Safari/537.36","Macintosh","Chrome","131.0.0.0","OS X","10_15_7","https://app.prolific.com/","en-US,en;q=0.9","5a79f14a8fe2dc00010593eb","679edb085803f58d6bbd31ca","679ee91930a8554a52bb801d","","null","<img     src='G_7.jpg' height='90'> <img     src='G_6.jpg' height='90'> <img     src='G_5.jpg' height='90'> <img     src='G_1.jpg' height='90'> <img  src='G_4.jpg' height='90'> <img      src='G_3.jpg' height='90'> <img src='G_8.jpg' height='90'> <img src='G_2.jpg' height='90'>","null","Animation1","",""
"","","","","","html-keyboard-response","115","190296","0.0-91.0","26","1","2025-02-02 03:40:20","bc01a2b6f61d06f6604adb8657495020","24.148.13.102","Mozilla/5.0 (Macintosh; Intel Mac OS X 10_15_7) AppleWebKit/537.36 (KHTML, like Gecko) Chrome/131.0.0.0 Safari/537.36","Macintosh","Chrome","131.0.0.0","OS X","10_15_7","https://app.prolific.com/","en-US,en;q=0.9","5a79f14a8fe2dc00010593eb","679edb085803f58d6bbd31ca","679ee91930a8554a52bb801d","","null","<img     src='G_7.jpg' height='90'> <img     src='G_6.jpg' height='90'> <img     src='G_5.jpg' height='90'> <img id='selected'     src='G_1.jpg' height='90'> <img  src='G_4.jpg' height='90'> <img      src='G_3.jpg' height='90'> <img src='G_8.jpg' height='90'> <img src='G_2.jpg' height='90'>","null","Animation1","",""
"","","","","","html-keyboard-response","116","190810","0.0-92.0","26","1","2025-02-02 03:40:20","bc01a2b6f61d06f6604adb8657495020","24.148.13.102","Mozilla/5.0 (Macintosh; Intel Mac OS X 10_15_7) AppleWebKit/537.36 (KHTML, like Gecko) Chrome/131.0.0.0 Safari/537.36","Macintosh","Chrome","131.0.0.0","OS X","10_15_7","https://app.prolific.com/","en-US,en;q=0.9","5a79f14a8fe2dc00010593eb","679edb085803f58d6bbd31ca","679ee91930a8554a52bb801d","","null","<img     src='G_7.jpg' height='90'> <img     src='G_6.jpg' height='90'> <img     src='G_5.jpg' height='90'> <img id='selected'     src='G_1.jpg' height='90'> <img id='selected'  src='G_4.jpg' height='90'> <img      src='G_3.jpg' height='90'> <img src='G_8.jpg' height='90'> <img src='G_2.jpg' height='90'>","null","Animation1","",""
"","","","","","html-keyboard-response","117","191315","0.0-93.0","26","1","2025-02-02 03:40:20","bc01a2b6f61d06f6604adb8657495020","24.148.13.102","Mozilla/5.0 (Macintosh; Intel Mac OS X 10_15_7) AppleWebKit/537.36 (KHTML, like Gecko) Chrome/131.0.0.0 Safari/537.36","Macintosh","Chrome","131.0.0.0","OS X","10_15_7","https://app.prolific.com/","en-US,en;q=0.9","5a79f14a8fe2dc00010593eb","679edb085803f58d6bbd31ca","679ee91930a8554a52bb801d","","null","<img     src='G_7.jpg' height='90'> <img     src='G_6.jpg' height='90'> <img     src='G_5.jpg' height='90'> <img id='selected'     src='G_1.jpg' height='90'> <img id='selected'  src='G_4.jpg' height='90'> <img      src='G_3.jpg' height='90'> <img src='G_8.jpg' height='90'> <img src='G_2.jpg' height='90'>","null","Animation1","",""
"","","","","","html-keyboard-response","118","191623","0.0-94.0","26","1","2025-02-02 03:40:20","bc01a2b6f61d06f6604adb8657495020","24.148.13.102","Mozilla/5.0 (Macintosh; Intel Mac OS X 10_15_7) AppleWebKit/537.36 (KHTML, like Gecko) Chrome/131.0.0.0 Safari/537.36","Macintosh","Chrome","131.0.0.0","OS X","10_15_7","https://app.prolific.com/","en-US,en;q=0.9","5a79f14a8fe2dc00010593eb","679edb085803f58d6bbd31ca","679ee91930a8554a52bb801d","","null","<img     src='G_7.jpg' height='90'> <img     src='G_6.jpg' height='90'> <img     src='G_5.jpg' height='90'> <img      src='G_1.jpg' height='90'> <img   src='G_4.jpg' height='90'> <img      src='G_3.jpg' height='90'> <img src='G_8.jpg' height='90'> <img src='G_2.jpg' height='90'>","null","Animation1","",""
"","","","","","html-keyboard-response","119","192131","0.0-95.0","26","1","2025-02-02 03:40:20","bc01a2b6f61d06f6604adb8657495020","24.148.13.102","Mozilla/5.0 (Macintosh; Intel Mac OS X 10_15_7) AppleWebKit/537.36 (KHTML, like Gecko) Chrome/131.0.0.0 Safari/537.36","Macintosh","Chrome","131.0.0.0","OS X","10_15_7","https://app.prolific.com/","en-US,en;q=0.9","5a79f14a8fe2dc00010593eb","679edb085803f58d6bbd31ca","679ee91930a8554a52bb801d","","null","<img     src='G_7.jpg' height='90'> <img     src='G_6.jpg' height='90'> <img     src='G_5.jpg' height='90'> <img      src='G_1.jpg' height='90'> <img   src='G_4.jpg' height='90'> <img id='selected'      src='G_3.jpg' height='90'> <img src='G_8.jpg' height='90'> <img src='G_2.jpg' height='90'>","null","Animation1","",""
"","","","","","html-keyboard-response","120","192637","0.0-96.0","26","1","2025-02-02 03:40:20","bc01a2b6f61d06f6604adb8657495020","24.148.13.102","Mozilla/5.0 (Macintosh; Intel Mac OS X 10_15_7) AppleWebKit/537.36 (KHTML, like Gecko) Chrome/131.0.0.0 Safari/537.36","Macintosh","Chrome","131.0.0.0","OS X","10_15_7","https://app.prolific.com/","en-US,en;q=0.9","5a79f14a8fe2dc00010593eb","679edb085803f58d6bbd31ca","679ee91930a8554a52bb801d","","null","<img     src='G_7.jpg' height='90'> <img     src='G_6.jpg' height='90'> <img     src='G_5.jpg' height='90'> <img      src='G_1.jpg' height='90'> <img   src='G_4.jpg' height='90'> <img id='selected'      src='G_3.jpg' height='90'> <img id='selected' src='G_8.jpg' height='90'> <img src='G_2.jpg' height='90'>","null","Animation1","",""
"","","","","","html-keyboard-response","121","193144","0.0-97.0","26","1","2025-02-02 03:40:20","bc01a2b6f61d06f6604adb8657495020","24.148.13.102","Mozilla/5.0 (Macintosh; Intel Mac OS X 10_15_7) AppleWebKit/537.36 (KHTML, like Gecko) Chrome/131.0.0.0 Safari/537.36","Macintosh","Chrome","131.0.0.0","OS X","10_15_7","https://app.prolific.com/","en-US,en;q=0.9","5a79f14a8fe2dc00010593eb","679edb085803f58d6bbd31ca","679ee91930a8554a52bb801d","","null","<img     src='G_7.jpg' height='90'> <img     src='G_6.jpg' height='90'> <img     src='G_5.jpg' height='90'> <img      src='G_1.jpg' height='90'> <img   src='G_4.jpg' height='90'> <img id='selected'      src='G_3.jpg' height='90'> <img id='selected' src='G_8.jpg' height='90'> <img src='G_2.jpg' height='90'>","null","Animation1","",""
"","","","","","html-keyboard-response","122","193449","0.0-98.0","26","1","2025-02-02 03:40:20","bc01a2b6f61d06f6604adb8657495020","24.148.13.102","Mozilla/5.0 (Macintosh; Intel Mac OS X 10_15_7) AppleWebKit/537.36 (KHTML, like Gecko) Chrome/131.0.0.0 Safari/537.36","Macintosh","Chrome","131.0.0.0","OS X","10_15_7","https://app.prolific.com/","en-US,en;q=0.9","5a79f14a8fe2dc00010593eb","679edb085803f58d6bbd31ca","679ee91930a8554a52bb801d","","null","<img     src='G_7.jpg' height='90'> <img     src='G_6.jpg' height='90'> <img     src='G_5.jpg' height='90'> <img      src='G_1.jpg' height='90'> <img   src='G_4.jpg' height='90'> <img       src='G_3.jpg' height='90'> <img  src='G_8.jpg' height='90'> <img src='G_2.jpg' height='90'>","null","Animation1","",""
"","","","","","html-keyboard-response","123","193954","0.0-99.0","26","1","2025-02-02 03:40:20","bc01a2b6f61d06f6604adb8657495020","24.148.13.102","Mozilla/5.0 (Macintosh; Intel Mac OS X 10_15_7) AppleWebKit/537.36 (KHTML, like Gecko) Chrome/131.0.0.0 Safari/537.36","Macintosh","Chrome","131.0.0.0","OS X","10_15_7","https://app.prolific.com/","en-US,en;q=0.9","5a79f14a8fe2dc00010593eb","679edb085803f58d6bbd31ca","679ee91930a8554a52bb801d","","null","<img     src='G_7.jpg' height='90'> <img     src='G_6.jpg' height='90'> <img     src='G_5.jpg' height='90'> <img      src='G_1.jpg' height='90'> <img   src='G_4.jpg' height='90'> <img       src='G_3.jpg' height='90'> <img id='selected'  src='G_8.jpg' height='90'> <img src='G_2.jpg' height='90'>","null","Animation1","",""
"","","","","","html-keyboard-response","124","194460","0.0-100.0","26","1","2025-02-02 03:40:20","bc01a2b6f61d06f6604adb8657495020","24.148.13.102","Mozilla/5.0 (Macintosh; Intel Mac OS X 10_15_7) AppleWebKit/537.36 (KHTML, like Gecko) Chrome/131.0.0.0 Safari/537.36","Macintosh","Chrome","131.0.0.0","OS X","10_15_7","https://app.prolific.com/","en-US,en;q=0.9","5a79f14a8fe2dc00010593eb","679edb085803f58d6bbd31ca","679ee91930a8554a52bb801d","","null","<img     src='G_7.jpg' height='90'> <img     src='G_6.jpg' height='90'> <img     src='G_5.jpg' height='90'> <img      src='G_1.jpg' height='90'> <img   src='G_4.jpg' height='90'> <img       src='G_3.jpg' height='90'> <img id='selected'  src='G_8.jpg' height='90'> <img id='selected' src='G_2.jpg' height='90'>","null","Animation1","",""
"","","","","","html-keyboard-response","125","194965","0.0-101.0","26","1","2025-02-02 03:40:20","bc01a2b6f61d06f6604adb8657495020","24.148.13.102","Mozilla/5.0 (Macintosh; Intel Mac OS X 10_15_7) AppleWebKit/537.36 (KHTML, like Gecko) Chrome/131.0.0.0 Safari/537.36","Macintosh","Chrome","131.0.0.0","OS X","10_15_7","https://app.prolific.com/","en-US,en;q=0.9","5a79f14a8fe2dc00010593eb","679edb085803f58d6bbd31ca","679ee91930a8554a52bb801d","","null","<img     src='G_7.jpg' height='90'> <img     src='G_6.jpg' height='90'> <img     src='G_5.jpg' height='90'> <img      src='G_1.jpg' height='90'> <img   src='G_4.jpg' height='90'> <img       src='G_3.jpg' height='90'> <img id='swapped' src='G_2.jpg' height='90'> <img id='swapped'  src='G_8.jpg' height='90'>","null","Animation1","",""
"","","","","","html-keyboard-response","126","195270","0.0-102.0","26","1","2025-02-02 03:40:20","bc01a2b6f61d06f6604adb8657495020","24.148.13.102","Mozilla/5.0 (Macintosh; Intel Mac OS X 10_15_7) AppleWebKit/537.36 (KHTML, like Gecko) Chrome/131.0.0.0 Safari/537.36","Macintosh","Chrome","131.0.0.0","OS X","10_15_7","https://app.prolific.com/","en-US,en;q=0.9","5a79f14a8fe2dc00010593eb","679edb085803f58d6bbd31ca","679ee91930a8554a52bb801d","","null","<img     src='G_7.jpg' height='90'> <img     src='G_6.jpg' height='90'> <img     src='G_5.jpg' height='90'> <img      src='G_1.jpg' height='90'> <img   src='G_4.jpg' height='90'> <img       src='G_3.jpg' height='90'> <img  src='G_2.jpg' height='90'> <img   src='G_8.jpg' height='90'>","null","Animation1","",""
"","","","","","html-keyboard-response","127","195776","0.0-103.0","26","1","2025-02-02 03:40:20","bc01a2b6f61d06f6604adb8657495020","24.148.13.102","Mozilla/5.0 (Macintosh; Intel Mac OS X 10_15_7) AppleWebKit/537.36 (KHTML, like Gecko) Chrome/131.0.0.0 Safari/537.36","Macintosh","Chrome","131.0.0.0","OS X","10_15_7","https://app.prolific.com/","en-US,en;q=0.9","5a79f14a8fe2dc00010593eb","679edb085803f58d6bbd31ca","679ee91930a8554a52bb801d","","null","<img     src='G_7.jpg' height='90'> <img     src='G_6.jpg' height='90'> <img     src='G_5.jpg' height='90'> <img      src='G_1.jpg' height='90'> <img   src='G_4.jpg' height='90'> <img id='selected'       src='G_3.jpg' height='90'> <img  src='G_2.jpg' height='90'> <img   src='G_8.jpg' height='90'>","null","Animation1","",""
"","","","","","html-keyboard-response","128","196282","0.0-104.0","26","1","2025-02-02 03:40:20","bc01a2b6f61d06f6604adb8657495020","24.148.13.102","Mozilla/5.0 (Macintosh; Intel Mac OS X 10_15_7) AppleWebKit/537.36 (KHTML, like Gecko) Chrome/131.0.0.0 Safari/537.36","Macintosh","Chrome","131.0.0.0","OS X","10_15_7","https://app.prolific.com/","en-US,en;q=0.9","5a79f14a8fe2dc00010593eb","679edb085803f58d6bbd31ca","679ee91930a8554a52bb801d","","null","<img     src='G_7.jpg' height='90'> <img     src='G_6.jpg' height='90'> <img     src='G_5.jpg' height='90'> <img      src='G_1.jpg' height='90'> <img   src='G_4.jpg' height='90'> <img id='selected'       src='G_3.jpg' height='90'> <img id='selected'  src='G_2.jpg' height='90'> <img   src='G_8.jpg' height='90'>","null","Animation1","",""
"","","","","","html-keyboard-response","129","196789","0.0-105.0","26","1","2025-02-02 03:40:20","bc01a2b6f61d06f6604adb8657495020","24.148.13.102","Mozilla/5.0 (Macintosh; Intel Mac OS X 10_15_7) AppleWebKit/537.36 (KHTML, like Gecko) Chrome/131.0.0.0 Safari/537.36","Macintosh","Chrome","131.0.0.0","OS X","10_15_7","https://app.prolific.com/","en-US,en;q=0.9","5a79f14a8fe2dc00010593eb","679edb085803f58d6bbd31ca","679ee91930a8554a52bb801d","","null","<img     src='G_7.jpg' height='90'> <img     src='G_6.jpg' height='90'> <img     src='G_5.jpg' height='90'> <img      src='G_1.jpg' height='90'> <img   src='G_4.jpg' height='90'> <img id='selected'       src='G_3.jpg' height='90'> <img id='selected'  src='G_2.jpg' height='90'> <img   src='G_8.jpg' height='90'>","null","Animation1","",""
"","","","","","html-keyboard-response","130","197094","0.0-106.0","26","1","2025-02-02 03:40:20","bc01a2b6f61d06f6604adb8657495020","24.148.13.102","Mozilla/5.0 (Macintosh; Intel Mac OS X 10_15_7) AppleWebKit/537.36 (KHTML, like Gecko) Chrome/131.0.0.0 Safari/537.36","Macintosh","Chrome","131.0.0.0","OS X","10_15_7","https://app.prolific.com/","en-US,en;q=0.9","5a79f14a8fe2dc00010593eb","679edb085803f58d6bbd31ca","679ee91930a8554a52bb801d","","null","<img     src='G_7.jpg' height='90'> <img     src='G_6.jpg' height='90'> <img     src='G_5.jpg' height='90'> <img      src='G_1.jpg' height='90'> <img   src='G_4.jpg' height='90'> <img        src='G_3.jpg' height='90'> <img   src='G_2.jpg' height='90'> <img   src='G_8.jpg' height='90'>","null","Animation1","",""
"","","","","","html-keyboard-response","131","198768","0.0-107.0","26","1","2025-02-02 03:40:20","bc01a2b6f61d06f6604adb8657495020","24.148.13.102","Mozilla/5.0 (Macintosh; Intel Mac OS X 10_15_7) AppleWebKit/537.36 (KHTML, like Gecko) Chrome/131.0.0.0 Safari/537.36","Macintosh","Chrome","131.0.0.0","OS X","10_15_7","https://app.prolific.com/","en-US,en;q=0.9","5a79f14a8fe2dc00010593eb","679edb085803f58d6bbd31ca","679ee91930a8554a52bb801d","","1670","[""Did you notice any patterns? <br><br>Press Enter to watch that example again and follow the steps of Omgne Sort.""]","enter","","",""
"","","","","","html-button-response","132","199174","0.0-108.0","26","1","2025-02-02 03:40:20","bc01a2b6f61d06f6604adb8657495020","24.148.13.102","Mozilla/5.0 (Macintosh; Intel Mac OS X 10_15_7) AppleWebKit/537.36 (KHTML, like Gecko) Chrome/131.0.0.0 Safari/537.36","Macintosh","Chrome","131.0.0.0","OS X","10_15_7","https://app.prolific.com/","en-US,en;q=0.9","5a79f14a8fe2dc00010593eb","679edb085803f58d6bbd31ca","679ee91930a8554a52bb801d","","null","<img id='selected' src='G_1.jpg' height='90'> <img src='G_3.jpg' height='90'> <img src='G_5.jpg' height='90'> <img src='G_7.jpg' height='90'> <img src='G_6.jpg' height='90'> <img src='G_4.jpg' height='90'> <img src='G_8.jpg' height='90'> <img src='G_2.jpg' height='90'>","null","Learning example 1","",""
"","","","","","html-button-response","133","199481","0.0-109.0","26","1","2025-02-02 03:40:20","bc01a2b6f61d06f6604adb8657495020","24.148.13.102","Mozilla/5.0 (Macintosh; Intel Mac OS X 10_15_7) AppleWebKit/537.36 (KHTML, like Gecko) Chrome/131.0.0.0 Safari/537.36","Macintosh","Chrome","131.0.0.0","OS X","10_15_7","https://app.prolific.com/","en-US,en;q=0.9","5a79f14a8fe2dc00010593eb","679edb085803f58d6bbd31ca","679ee91930a8554a52bb801d","","null","<img id='selected' src='G_1.jpg' height='90'> <img id='selected' src='G_3.jpg' height='90'> <img src='G_5.jpg' height='90'> <img src='G_7.jpg' height='90'> <img src='G_6.jpg' height='90'> <img src='G_4.jpg' height='90'> <img src='G_8.jpg' height='90'> <img src='G_2.jpg' height='90'>","null","Learning example 1","",""
"","","","","","html-button-response","134","199788","0.0-110.0","26","1","2025-02-02 03:40:20","bc01a2b6f61d06f6604adb8657495020","24.148.13.102","Mozilla/5.0 (Macintosh; Intel Mac OS X 10_15_7) AppleWebKit/537.36 (KHTML, like Gecko) Chrome/131.0.0.0 Safari/537.36","Macintosh","Chrome","131.0.0.0","OS X","10_15_7","https://app.prolific.com/","en-US,en;q=0.9","5a79f14a8fe2dc00010593eb","679edb085803f58d6bbd31ca","679ee91930a8554a52bb801d","","null","<img id='selected' src='G_1.jpg' height='90'> <img id='selected' src='G_3.jpg' height='90'> <img src='G_5.jpg' height='90'> <img src='G_7.jpg' height='90'> <img src='G_6.jpg' height='90'> <img src='G_4.jpg' height='90'> <img src='G_8.jpg' height='90'> <img src='G_2.jpg' height='90'>","null","Learning example 1","",""
"","","","","","html-button-response","135","200872","0.0-111.0-0.0-0.0","26","1","2025-02-02 03:40:20","bc01a2b6f61d06f6604adb8657495020","24.148.13.102","Mozilla/5.0 (Macintosh; Intel Mac OS X 10_15_7) AppleWebKit/537.36 (KHTML, like Gecko) Chrome/131.0.0.0 Safari/537.36","Macintosh","Chrome","131.0.0.0","OS X","10_15_7","https://app.prolific.com/","en-US,en;q=0.9","5a79f14a8fe2dc00010593eb","679edb085803f58d6bbd31ca","679ee91930a8554a52bb801d","","1080","<img id='selected' src='G_1.jpg' height='90'> <img id='selected' src='G_3.jpg' height='90'> <img src='G_5.jpg' height='90'> <img src='G_7.jpg' height='90'> <img src='G_6.jpg' height='90'> <img src='G_4.jpg' height='90'> <img src='G_8.jpg' height='90'> <img src='G_2.jpg' height='90'>","0","Learning example 1","",""
"","","","","","html-button-response","136","201369","0.0-111.1-0.1-0.1","26","1","2025-02-02 03:40:20","bc01a2b6f61d06f6604adb8657495020","24.148.13.102","Mozilla/5.0 (Macintosh; Intel Mac OS X 10_15_7) AppleWebKit/537.36 (KHTML, like Gecko) Chrome/131.0.0.0 Safari/537.36","Macintosh","Chrome","131.0.0.0","OS X","10_15_7","https://app.prolific.com/","en-US,en;q=0.9","5a79f14a8fe2dc00010593eb","679edb085803f58d6bbd31ca","679ee91930a8554a52bb801d","","493","<img id='selected' src='G_1.jpg' height='90'> <img id='selected' src='G_3.jpg' height='90'> <img src='G_5.jpg' height='90'> <img src='G_7.jpg' height='90'> <img src='G_6.jpg' height='90'> <img src='G_4.jpg' height='90'> <img src='G_8.jpg' height='90'> <img src='G_2.jpg' height='90'>","1","Learning example 1","",""
"","","","","","html-button-response","137","201575","0.0-112.0","26","1","2025-02-02 03:40:20","bc01a2b6f61d06f6604adb8657495020","24.148.13.102","Mozilla/5.0 (Macintosh; Intel Mac OS X 10_15_7) AppleWebKit/537.36 (KHTML, like Gecko) Chrome/131.0.0.0 Safari/537.36","Macintosh","Chrome","131.0.0.0","OS X","10_15_7","https://app.prolific.com/","en-US,en;q=0.9","5a79f14a8fe2dc00010593eb","679edb085803f58d6bbd31ca","679ee91930a8554a52bb801d","","null","<img  src='G_1.jpg' height='90'> <img  src='G_3.jpg' height='90'> <img src='G_5.jpg' height='90'> <img src='G_7.jpg' height='90'> <img src='G_6.jpg' height='90'> <img src='G_4.jpg' height='90'> <img src='G_8.jpg' height='90'> <img src='G_2.jpg' height='90'>","null","Learning example 1","",""
"","","","","","html-button-response","138","201979","0.0-113.0","26","1","2025-02-02 03:40:20","bc01a2b6f61d06f6604adb8657495020","24.148.13.102","Mozilla/5.0 (Macintosh; Intel Mac OS X 10_15_7) AppleWebKit/537.36 (KHTML, like Gecko) Chrome/131.0.0.0 Safari/537.36","Macintosh","Chrome","131.0.0.0","OS X","10_15_7","https://app.prolific.com/","en-US,en;q=0.9","5a79f14a8fe2dc00010593eb","679edb085803f58d6bbd31ca","679ee91930a8554a52bb801d","","null","<img  src='G_1.jpg' height='90'> <img id='selected'  src='G_3.jpg' height='90'> <img src='G_5.jpg' height='90'> <img src='G_7.jpg' height='90'> <img src='G_6.jpg' height='90'> <img src='G_4.jpg' height='90'> <img src='G_8.jpg' height='90'> <img src='G_2.jpg' height='90'>","null","Learning example 1","",""
"","","","","","html-button-response","139","202289","0.0-114.0","26","1","2025-02-02 03:40:20","bc01a2b6f61d06f6604adb8657495020","24.148.13.102","Mozilla/5.0 (Macintosh; Intel Mac OS X 10_15_7) AppleWebKit/537.36 (KHTML, like Gecko) Chrome/131.0.0.0 Safari/537.36","Macintosh","Chrome","131.0.0.0","OS X","10_15_7","https://app.prolific.com/","en-US,en;q=0.9","5a79f14a8fe2dc00010593eb","679edb085803f58d6bbd31ca","679ee91930a8554a52bb801d","","null","<img  src='G_1.jpg' height='90'> <img id='selected'  src='G_3.jpg' height='90'> <img id='selected' src='G_5.jpg' height='90'> <img src='G_7.jpg' height='90'> <img src='G_6.jpg' height='90'> <img src='G_4.jpg' height='90'> <img src='G_8.jpg' height='90'> <img src='G_2.jpg' height='90'>","null","Learning example 1","",""
"","","","","","html-button-response","140","202594","0.0-115.0","26","1","2025-02-02 03:40:20","bc01a2b6f61d06f6604adb8657495020","24.148.13.102","Mozilla/5.0 (Macintosh; Intel Mac OS X 10_15_7) AppleWebKit/537.36 (KHTML, like Gecko) Chrome/131.0.0.0 Safari/537.36","Macintosh","Chrome","131.0.0.0","OS X","10_15_7","https://app.prolific.com/","en-US,en;q=0.9","5a79f14a8fe2dc00010593eb","679edb085803f58d6bbd31ca","679ee91930a8554a52bb801d","","null","<img  src='G_1.jpg' height='90'> <img id='swapped' src='G_5.jpg' height='90'> <img id='swapped'  src='G_3.jpg' height='90'> <img src='G_7.jpg' height='90'> <img src='G_6.jpg' height='90'> <img src='G_4.jpg' height='90'> <img src='G_8.jpg' height='90'> <img src='G_2.jpg' height='90'>","null","Learning example 1","",""
"","","","","","html-button-response","141","203040","0.0-116.0-0.0-0.0","26","1","2025-02-02 03:40:20","bc01a2b6f61d06f6604adb8657495020","24.148.13.102","Mozilla/5.0 (Macintosh; Intel Mac OS X 10_15_7) AppleWebKit/537.36 (KHTML, like Gecko) Chrome/131.0.0.0 Safari/537.36","Macintosh","Chrome","131.0.0.0","OS X","10_15_7","https://app.prolific.com/","en-US,en;q=0.9","5a79f14a8fe2dc00010593eb","679edb085803f58d6bbd31ca","679ee91930a8554a52bb801d","","442","<img  src='G_1.jpg' height='90'> <img id='swapped' src='G_5.jpg' height='90'> <img id='swapped'  src='G_3.jpg' height='90'> <img src='G_7.jpg' height='90'> <img src='G_6.jpg' height='90'> <img src='G_4.jpg' height='90'> <img src='G_8.jpg' height='90'> <img src='G_2.jpg' height='90'>","1","Learning example 1","",""
"","","","","","html-button-response","142","203554","0.0-116.1-0.1-0.1","26","1","2025-02-02 03:40:20","bc01a2b6f61d06f6604adb8657495020","24.148.13.102","Mozilla/5.0 (Macintosh; Intel Mac OS X 10_15_7) AppleWebKit/537.36 (KHTML, like Gecko) Chrome/131.0.0.0 Safari/537.36","Macintosh","Chrome","131.0.0.0","OS X","10_15_7","https://app.prolific.com/","en-US,en;q=0.9","5a79f14a8fe2dc00010593eb","679edb085803f58d6bbd31ca","679ee91930a8554a52bb801d","","510","<img  src='G_1.jpg' height='90'> <img id='swapped' src='G_5.jpg' height='90'> <img id='swapped'  src='G_3.jpg' height='90'> <img src='G_7.jpg' height='90'> <img src='G_6.jpg' height='90'> <img src='G_4.jpg' height='90'> <img src='G_8.jpg' height='90'> <img src='G_2.jpg' height='90'>","2","Learning example 1","",""
"","","","","","html-button-response","143","203759","0.0-117.0","26","1","2025-02-02 03:40:20","bc01a2b6f61d06f6604adb8657495020","24.148.13.102","Mozilla/5.0 (Macintosh; Intel Mac OS X 10_15_7) AppleWebKit/537.36 (KHTML, like Gecko) Chrome/131.0.0.0 Safari/537.36","Macintosh","Chrome","131.0.0.0","OS X","10_15_7","https://app.prolific.com/","en-US,en;q=0.9","5a79f14a8fe2dc00010593eb","679edb085803f58d6bbd31ca","679ee91930a8554a52bb801d","","null","<img  src='G_1.jpg' height='90'> <img  src='G_5.jpg' height='90'> <img   src='G_3.jpg' height='90'> <img src='G_7.jpg' height='90'> <img src='G_6.jpg' height='90'> <img src='G_4.jpg' height='90'> <img src='G_8.jpg' height='90'> <img src='G_2.jpg' height='90'>","null","Learning example 1","",""
