"success","timeout","failed_images","failed_audio","failed_video","trial_type","trial_index","time_elapsed","internal_node_id","run_id","condition","recorded_at","source_code_version","ip","user_agent","device","browser","browser_version","platform","platform_version","referer","accept_language","PROLIFIC_PID","STUDY_ID","SESSION_ID","view_history","rt","stimulus","response","phase","question_order"
"true","false","[]","[]","[]","preload","0","3","0.0-0.0","27","1","2025-02-02 03:47:21","bc01a2b6f61d06f6604adb8657495020","75.88.105.191","Mozilla/5.0 (Macintosh; Intel Mac OS X 10_15_7) AppleWebKit/605.1.15 (KHTML, like Gecko) Version/17.3.1 Safari/605.1.15","Macintosh","Safari","17.3.1","OS X","10_15_7","https://app.prolific.com/","en-US,en;q=0.9","67549868a9ea0e2c285a8f14","679edb085803f58d6bbd31ca","679ee5f3fdc71b640a413ae5","","","","","",""
"","","","","","instructions","1","10069","0.0-1.0","27","1","2025-02-02 03:47:21","bc01a2b6f61d06f6604adb8657495020","75.88.105.191","Mozilla/5.0 (Macintosh; Intel Mac OS X 10_15_7) AppleWebKit/605.1.15 (KHTML, like Gecko) Version/17.3.1 Safari/605.1.15","Macintosh","Safari","17.3.1","OS X","10_15_7","https://app.prolific.com/","en-US,en;q=0.9","67549868a9ea0e2c285a8f14","679edb085803f58d6bbd31ca","679ee5f3fdc71b640a413ae5","[{""page_index"":0,""viewing_time"":10065}]","10065","","","",""
"","","","","","html-keyboard-response","2","10572","0.0-2.0","27","1","2025-02-02 03:47:21","bc01a2b6f61d06f6604adb8657495020","75.88.105.191","Mozilla/5.0 (Macintosh; Intel Mac OS X 10_15_7) AppleWebKit/605.1.15 (KHTML, like Gecko) Version/17.3.1 Safari/605.1.15","Macintosh","Safari","17.3.1","OS X","10_15_7","https://app.prolific.com/","en-US,en;q=0.9","67549868a9ea0e2c285a8f14","679edb085803f58d6bbd31ca","679ee5f3fdc71b640a413ae5","","null","<p> + <p/>","null","",""
"","","","","","instructions","3","22092","0.0-3.0","27","1","2025-02-02 03:47:21","bc01a2b6f61d06f6604adb8657495020","75.88.105.191","Mozilla/5.0 (Macintosh; Intel Mac OS X 10_15_7) AppleWebKit/605.1.15 (KHTML, like Gecko) Version/17.3.1 Safari/605.1.15","Macintosh","Safari","17.3.1","OS X","10_15_7","https://app.prolific.com/","en-US,en;q=0.9","67549868a9ea0e2c285a8f14","679edb085803f58d6bbd31ca","679ee5f3fdc71b640a413ae5","[{""page_index"":0,""viewing_time"":2359},{""page_index"":1,""viewing_time"":1759},{""page_index"":2,""viewing_time"":1769},{""page_index"":3,""viewing_time"":2420},{""page_index"":4,""viewing_time"":3212}]","11519","","","",""
"","","","","","html-button-response","4","32231","0.0-4.0-0.0-0.0","27","1","2025-02-02 03:47:21","bc01a2b6f61d06f6604adb8657495020","75.88.105.191","Mozilla/5.0 (Macintosh; Intel Mac OS X 10_15_7) AppleWebKit/605.1.15 (KHTML, like Gecko) Version/17.3.1 Safari/605.1.15","Macintosh","Safari","17.3.1","OS X","10_15_7","https://app.prolific.com/","en-US,en;q=0.9","67549868a9ea0e2c285a8f14","679edb085803f58d6bbd31ca","679ee5f3fdc71b640a413ae5","","10135","","0","Intro Trial",""
"","","","","","html-button-response","5","33031","0.0-4.1-0.1-0.1","27","1","2025-02-02 03:47:21","bc01a2b6f61d06f6604adb8657495020","75.88.105.191","Mozilla/5.0 (Macintosh; Intel Mac OS X 10_15_7) AppleWebKit/605.1.15 (KHTML, like Gecko) Version/17.3.1 Safari/605.1.15","Macintosh","Safari","17.3.1","OS X","10_15_7","https://app.prolific.com/","en-US,en;q=0.9","67549868a9ea0e2c285a8f14","679edb085803f58d6bbd31ca","679ee5f3fdc71b640a413ae5","","798","","1","Intro Trial",""
"","","","","","html-button-response","6","37398","0.0-4.2-0.2-0.2","27","1","2025-02-02 03:47:21","bc01a2b6f61d06f6604adb8657495020","75.88.105.191","Mozilla/5.0 (Macintosh; Intel Mac OS X 10_15_7) AppleWebKit/605.1.15 (KHTML, like Gecko) Version/17.3.1 Safari/605.1.15","Macintosh","Safari","17.3.1","OS X","10_15_7","https://app.prolific.com/","en-US,en;q=0.9","67549868a9ea0e2c285a8f14","679edb085803f58d6bbd31ca","679ee5f3fdc71b640a413ae5","","4365","","1","Intro Trial",""
"","","","","","html-button-response","7","38214","0.0-4.3-0.3-0.3","27","1","2025-02-02 03:47:21","bc01a2b6f61d06f6604adb8657495020","75.88.105.191","Mozilla/5.0 (Macintosh; Intel Mac OS X 10_15_7) AppleWebKit/605.1.15 (KHTML, like Gecko) Version/17.3.1 Safari/605.1.15","Macintosh","Safari","17.3.1","OS X","10_15_7","https://app.prolific.com/","en-US,en;q=0.9","67549868a9ea0e2c285a8f14","679edb085803f58d6bbd31ca","679ee5f3fdc71b640a413ae5","","814","","2","Intro Trial",""
"","","","","","html-button-response","8","40297","0.0-4.4-0.4-0.4","27","1","2025-02-02 03:47:21","bc01a2b6f61d06f6604adb8657495020","75.88.105.191","Mozilla/5.0 (Macintosh; Intel Mac OS X 10_15_7) AppleWebKit/605.1.15 (KHTML, like Gecko) Version/17.3.1 Safari/605.1.15","Macintosh","Safari","17.3.1","OS X","10_15_7","https://app.prolific.com/","en-US,en;q=0.9","67549868a9ea0e2c285a8f14","679edb085803f58d6bbd31ca","679ee5f3fdc71b640a413ae5","","2081","","0","Intro Trial",""
"","","","","","html-button-response","9","41000","0.0-4.5-0.5-0.5","27","1","2025-02-02 03:47:21","bc01a2b6f61d06f6604adb8657495020","75.88.105.191","Mozilla/5.0 (Macintosh; Intel Mac OS X 10_15_7) AppleWebKit/605.1.15 (KHTML, like Gecko) Version/17.3.1 Safari/605.1.15","Macintosh","Safari","17.3.1","OS X","10_15_7","https://app.prolific.com/","en-US,en;q=0.9","67549868a9ea0e2c285a8f14","679edb085803f58d6bbd31ca","679ee5f3fdc71b640a413ae5","","700","","1","Intro Trial",""
"","","","","","html-button-response","10","42497","0.0-4.6-0.6-0.6","27","1","2025-02-02 03:47:21","bc01a2b6f61d06f6604adb8657495020","75.88.105.191","Mozilla/5.0 (Macintosh; Intel Mac OS X 10_15_7) AppleWebKit/605.1.15 (KHTML, like Gecko) Version/17.3.1 Safari/605.1.15","Macintosh","Safari","17.3.1","OS X","10_15_7","https://app.prolific.com/","en-US,en;q=0.9","67549868a9ea0e2c285a8f14","679edb085803f58d6bbd31ca","679ee5f3fdc71b640a413ae5","","1495","","1","Intro Trial",""
"","","","","","html-button-response","11","44636","0.0-4.7-0.7-0.7","27","1","2025-02-02 03:47:21","bc01a2b6f61d06f6604adb8657495020","75.88.105.191","Mozilla/5.0 (Macintosh; Intel Mac OS X 10_15_7) AppleWebKit/605.1.15 (KHTML, like Gecko) Version/17.3.1 Safari/605.1.15","Macintosh","Safari","17.3.1","OS X","10_15_7","https://app.prolific.com/","en-US,en;q=0.9","67549868a9ea0e2c285a8f14","679edb085803f58d6bbd31ca","679ee5f3fdc71b640a413ae5","","2136","","2","Intro Trial",""
"","","","","","html-button-response","12","51579","0.0-4.8-0.8-0.8","27","1","2025-02-02 03:47:21","bc01a2b6f61d06f6604adb8657495020","75.88.105.191","Mozilla/5.0 (Macintosh; Intel Mac OS X 10_15_7) AppleWebKit/605.1.15 (KHTML, like Gecko) Version/17.3.1 Safari/605.1.15","Macintosh","Safari","17.3.1","OS X","10_15_7","https://app.prolific.com/","en-US,en;q=0.9","67549868a9ea0e2c285a8f14","679edb085803f58d6bbd31ca","679ee5f3fdc71b640a413ae5","","6941","","1","Intro Trial",""
"","","","","","html-button-response","13","52380","0.0-4.9-0.9-0.9","27","1","2025-02-02 03:47:21","bc01a2b6f61d06f6604adb8657495020","75.88.105.191","Mozilla/5.0 (Macintosh; Intel Mac OS X 10_15_7) AppleWebKit/605.1.15 (KHTML, like Gecko) Version/17.3.1 Safari/605.1.15","Macintosh","Safari","17.3.1","OS X","10_15_7","https://app.prolific.com/","en-US,en;q=0.9","67549868a9ea0e2c285a8f14","679edb085803f58d6bbd31ca","679ee5f3fdc71b640a413ae5","","798","","2","Intro Trial",""
"","","","","","html-button-response","14","53681","0.0-4.10-0.10-0.10","27","1","2025-02-02 03:47:21","bc01a2b6f61d06f6604adb8657495020","75.88.105.191","Mozilla/5.0 (Macintosh; Intel Mac OS X 10_15_7) AppleWebKit/605.1.15 (KHTML, like Gecko) Version/17.3.1 Safari/605.1.15","Macintosh","Safari","17.3.1","OS X","10_15_7","https://app.prolific.com/","en-US,en;q=0.9","67549868a9ea0e2c285a8f14","679edb085803f58d6bbd31ca","679ee5f3fdc71b640a413ae5","","1300","","2","Intro Trial",""
"","","","","","html-button-response","15","54731","0.0-4.11-0.11-0.11","27","1","2025-02-02 03:47:21","bc01a2b6f61d06f6604adb8657495020","75.88.105.191","Mozilla/5.0 (Macintosh; Intel Mac OS X 10_15_7) AppleWebKit/605.1.15 (KHTML, like Gecko) Version/17.3.1 Safari/605.1.15","Macintosh","Safari","17.3.1","OS X","10_15_7","https://app.prolific.com/","en-US,en;q=0.9","67549868a9ea0e2c285a8f14","679edb085803f58d6bbd31ca","679ee5f3fdc71b640a413ae5","","1046","","3","Intro Trial",""
"","","","","","html-button-response","16","56051","0.0-4.12-0.12-0.12","27","1","2025-02-02 03:47:21","bc01a2b6f61d06f6604adb8657495020","75.88.105.191","Mozilla/5.0 (Macintosh; Intel Mac OS X 10_15_7) AppleWebKit/605.1.15 (KHTML, like Gecko) Version/17.3.1 Safari/605.1.15","Macintosh","Safari","17.3.1","OS X","10_15_7","https://app.prolific.com/","en-US,en;q=0.9","67549868a9ea0e2c285a8f14","679edb085803f58d6bbd31ca","679ee5f3fdc71b640a413ae5","","1318","","3","Intro Trial",""
"","","","","","html-button-response","17","57832","0.0-4.13-0.13-0.13","27","1","2025-02-02 03:47:21","bc01a2b6f61d06f6604adb8657495020","75.88.105.191","Mozilla/5.0 (Macintosh; Intel Mac OS X 10_15_7) AppleWebKit/605.1.15 (KHTML, like Gecko) Version/17.3.1 Safari/605.1.15","Macintosh","Safari","17.3.1","OS X","10_15_7","https://app.prolific.com/","en-US,en;q=0.9","67549868a9ea0e2c285a8f14","679edb085803f58d6bbd31ca","679ee5f3fdc71b640a413ae5","","1778","","3","Intro Trial",""
"","","","","","html-button-response","18","59114","0.0-4.14-0.14-0.14","27","1","2025-02-02 03:47:21","bc01a2b6f61d06f6604adb8657495020","75.88.105.191","Mozilla/5.0 (Macintosh; Intel Mac OS X 10_15_7) AppleWebKit/605.1.15 (KHTML, like Gecko) Version/17.3.1 Safari/605.1.15","Macintosh","Safari","17.3.1","OS X","10_15_7","https://app.prolific.com/","en-US,en;q=0.9","67549868a9ea0e2c285a8f14","679edb085803f58d6bbd31ca","679ee5f3fdc71b640a413ae5","","1279","","2","Intro Trial",""
"","","","","","html-button-response","19","60363","0.0-4.15-0.15-0.15","27","1","2025-02-02 03:47:21","bc01a2b6f61d06f6604adb8657495020","75.88.105.191","Mozilla/5.0 (Macintosh; Intel Mac OS X 10_15_7) AppleWebKit/605.1.15 (KHTML, like Gecko) Version/17.3.1 Safari/605.1.15","Macintosh","Safari","17.3.1","OS X","10_15_7","https://app.prolific.com/","en-US,en;q=0.9","67549868a9ea0e2c285a8f14","679edb085803f58d6bbd31ca","679ee5f3fdc71b640a413ae5","","1248","","3","Intro Trial",""
"","","","","","html-button-response","20","62680","0.0-4.16-0.16-0.16","27","1","2025-02-02 03:47:21","bc01a2b6f61d06f6604adb8657495020","75.88.105.191","Mozilla/5.0 (Macintosh; Intel Mac OS X 10_15_7) AppleWebKit/605.1.15 (KHTML, like Gecko) Version/17.3.1 Safari/605.1.15","Macintosh","Safari","17.3.1","OS X","10_15_7","https://app.prolific.com/","en-US,en;q=0.9","67549868a9ea0e2c285a8f14","679edb085803f58d6bbd31ca","679ee5f3fdc71b640a413ae5","","2313","","0","Intro Trial",""
"","","","","","html-button-response","21","63347","0.0-4.17-0.17-0.17","27","1","2025-02-02 03:47:21","bc01a2b6f61d06f6604adb8657495020","75.88.105.191","Mozilla/5.0 (Macintosh; Intel Mac OS X 10_15_7) AppleWebKit/605.1.15 (KHTML, like Gecko) Version/17.3.1 Safari/605.1.15","Macintosh","Safari","17.3.1","OS X","10_15_7","https://app.prolific.com/","en-US,en;q=0.9","67549868a9ea0e2c285a8f14","679edb085803f58d6bbd31ca","679ee5f3fdc71b640a413ae5","","665","","1","Intro Trial",""
"","","","","","html-button-response","22","64499","0.0-4.18-0.18-0.18","27","1","2025-02-02 03:47:21","bc01a2b6f61d06f6604adb8657495020","75.88.105.191","Mozilla/5.0 (Macintosh; Intel Mac OS X 10_15_7) AppleWebKit/605.1.15 (KHTML, like Gecko) Version/17.3.1 Safari/605.1.15","Macintosh","Safari","17.3.1","OS X","10_15_7","https://app.prolific.com/","en-US,en;q=0.9","67549868a9ea0e2c285a8f14","679edb085803f58d6bbd31ca","679ee5f3fdc71b640a413ae5","","1150","","1","Intro Trial",""
"","","","","","html-button-response","23","65553","0.0-4.19-0.19-0.19","27","1","2025-02-02 03:47:21","bc01a2b6f61d06f6604adb8657495020","75.88.105.191","Mozilla/5.0 (Macintosh; Intel Mac OS X 10_15_7) AppleWebKit/605.1.15 (KHTML, like Gecko) Version/17.3.1 Safari/605.1.15","Macintosh","Safari","17.3.1","OS X","10_15_7","https://app.prolific.com/","en-US,en;q=0.9","67549868a9ea0e2c285a8f14","679edb085803f58d6bbd31ca","679ee5f3fdc71b640a413ae5","","1051","","1","Intro Trial",""
"","","","","","html-button-response","24","66497","0.0-4.20-0.20-0.20","27","1","2025-02-02 03:47:21","bc01a2b6f61d06f6604adb8657495020","75.88.105.191","Mozilla/5.0 (Macintosh; Intel Mac OS X 10_15_7) AppleWebKit/605.1.15 (KHTML, like Gecko) Version/17.3.1 Safari/605.1.15","Macintosh","Safari","17.3.1","OS X","10_15_7","https://app.prolific.com/","en-US,en;q=0.9","67549868a9ea0e2c285a8f14","679edb085803f58d6bbd31ca","679ee5f3fdc71b640a413ae5","","942","","1","Intro Trial",""
"","","","","","html-button-response","25","67369","0.0-4.21-0.21-0.21","27","1","2025-02-02 03:47:21","bc01a2b6f61d06f6604adb8657495020","75.88.105.191","Mozilla/5.0 (Macintosh; Intel Mac OS X 10_15_7) AppleWebKit/605.1.15 (KHTML, like Gecko) Version/17.3.1 Safari/605.1.15","Macintosh","Safari","17.3.1","OS X","10_15_7","https://app.prolific.com/","en-US,en;q=0.9","67549868a9ea0e2c285a8f14","679edb085803f58d6bbd31ca","679ee5f3fdc71b640a413ae5","","870","","2","Intro Trial",""
"","","","","","html-button-response","26","68329","0.0-4.22-0.22-0.22","27","1","2025-02-02 03:47:21","bc01a2b6f61d06f6604adb8657495020","75.88.105.191","Mozilla/5.0 (Macintosh; Intel Mac OS X 10_15_7) AppleWebKit/605.1.15 (KHTML, like Gecko) Version/17.3.1 Safari/605.1.15","Macintosh","Safari","17.3.1","OS X","10_15_7","https://app.prolific.com/","en-US,en;q=0.9","67549868a9ea0e2c285a8f14","679edb085803f58d6bbd31ca","679ee5f3fdc71b640a413ae5","","959","","2","Intro Trial",""
"","","","","","html-button-response","27","69431","0.0-4.23-0.23-0.23","27","1","2025-02-02 03:47:21","bc01a2b6f61d06f6604adb8657495020","75.88.105.191","Mozilla/5.0 (Macintosh; Intel Mac OS X 10_15_7) AppleWebKit/605.1.15 (KHTML, like Gecko) Version/17.3.1 Safari/605.1.15","Macintosh","Safari","17.3.1","OS X","10_15_7","https://app.prolific.com/","en-US,en;q=0.9","67549868a9ea0e2c285a8f14","679edb085803f58d6bbd31ca","679ee5f3fdc71b640a413ae5","","1100","","3","Intro Trial",""
"","","","","","html-button-response","28","70396","0.0-4.24-0.24-0.24","27","1","2025-02-02 03:47:21","bc01a2b6f61d06f6604adb8657495020","75.88.105.191","Mozilla/5.0 (Macintosh; Intel Mac OS X 10_15_7) AppleWebKit/605.1.15 (KHTML, like Gecko) Version/17.3.1 Safari/605.1.15","Macintosh","Safari","17.3.1","OS X","10_15_7","https://app.prolific.com/","en-US,en;q=0.9","67549868a9ea0e2c285a8f14","679edb085803f58d6bbd31ca","679ee5f3fdc71b640a413ae5","","963","","3","Intro Trial",""
"","","","","","html-button-response","29","71263","0.0-4.25-0.25-0.25","27","1","2025-02-02 03:47:21","bc01a2b6f61d06f6604adb8657495020","75.88.105.191","Mozilla/5.0 (Macintosh; Intel Mac OS X 10_15_7) AppleWebKit/605.1.15 (KHTML, like Gecko) Version/17.3.1 Safari/605.1.15","Macintosh","Safari","17.3.1","OS X","10_15_7","https://app.prolific.com/","en-US,en;q=0.9","67549868a9ea0e2c285a8f14","679edb085803f58d6bbd31ca","679ee5f3fdc71b640a413ae5","","865","","4","Intro Trial",""
"","","","","","html-button-response","30","74069","0.0-4.26-0.26-0.26","27","1","2025-02-02 03:47:21","bc01a2b6f61d06f6604adb8657495020","75.88.105.191","Mozilla/5.0 (Macintosh; Intel Mac OS X 10_15_7) AppleWebKit/605.1.15 (KHTML, like Gecko) Version/17.3.1 Safari/605.1.15","Macintosh","Safari","17.3.1","OS X","10_15_7","https://app.prolific.com/","en-US,en;q=0.9","67549868a9ea0e2c285a8f14","679edb085803f58d6bbd31ca","679ee5f3fdc71b640a413ae5","","2803","","2","Intro Trial",""
"","","","","","html-button-response","31","74813","0.0-4.27-0.27-0.27","27","1","2025-02-02 03:47:21","bc01a2b6f61d06f6604adb8657495020","75.88.105.191","Mozilla/5.0 (Macintosh; Intel Mac OS X 10_15_7) AppleWebKit/605.1.15 (KHTML, like Gecko) Version/17.3.1 Safari/605.1.15","Macintosh","Safari","17.3.1","OS X","10_15_7","https://app.prolific.com/","en-US,en;q=0.9","67549868a9ea0e2c285a8f14","679edb085803f58d6bbd31ca","679ee5f3fdc71b640a413ae5","","742","","3","Intro Trial",""
"","","","","","html-button-response","32","76303","0.0-4.28-0.28-0.28","27","1","2025-02-02 03:47:21","bc01a2b6f61d06f6604adb8657495020","75.88.105.191","Mozilla/5.0 (Macintosh; Intel Mac OS X 10_15_7) AppleWebKit/605.1.15 (KHTML, like Gecko) Version/17.3.1 Safari/605.1.15","Macintosh","Safari","17.3.1","OS X","10_15_7","https://app.prolific.com/","en-US,en;q=0.9","67549868a9ea0e2c285a8f14","679edb085803f58d6bbd31ca","679ee5f3fdc71b640a413ae5","","1487","","1","Intro Trial",""
"","","","","","html-button-response","33","77097","0.0-4.29-0.29-0.29","27","1","2025-02-02 03:47:21","bc01a2b6f61d06f6604adb8657495020","75.88.105.191","Mozilla/5.0 (Macintosh; Intel Mac OS X 10_15_7) AppleWebKit/605.1.15 (KHTML, like Gecko) Version/17.3.1 Safari/605.1.15","Macintosh","Safari","17.3.1","OS X","10_15_7","https://app.prolific.com/","en-US,en;q=0.9","67549868a9ea0e2c285a8f14","679edb085803f58d6bbd31ca","679ee5f3fdc71b640a413ae5","","792","","2","Intro Trial",""
"","","","","","html-button-response","34","78331","0.0-4.30-0.30-0.30","27","1","2025-02-02 03:47:21","bc01a2b6f61d06f6604adb8657495020","75.88.105.191","Mozilla/5.0 (Macintosh; Intel Mac OS X 10_15_7) AppleWebKit/605.1.15 (KHTML, like Gecko) Version/17.3.1 Safari/605.1.15","Macintosh","Safari","17.3.1","OS X","10_15_7","https://app.prolific.com/","en-US,en;q=0.9","67549868a9ea0e2c285a8f14","679edb085803f58d6bbd31ca","679ee5f3fdc71b640a413ae5","","1232","","0","Intro Trial",""
"","","","","","html-button-response","35","79314","0.0-4.31-0.31-0.31","27","1","2025-02-02 03:47:21","bc01a2b6f61d06f6604adb8657495020","75.88.105.191","Mozilla/5.0 (Macintosh; Intel Mac OS X 10_15_7) AppleWebKit/605.1.15 (KHTML, like Gecko) Version/17.3.1 Safari/605.1.15","Macintosh","Safari","17.3.1","OS X","10_15_7","https://app.prolific.com/","en-US,en;q=0.9","67549868a9ea0e2c285a8f14","679edb085803f58d6bbd31ca","679ee5f3fdc71b640a413ae5","","981","","1","Intro Trial",""
"","","","","","html-button-response","36","82797","0.0-4.32-0.32-0.32","27","1","2025-02-02 03:47:21","bc01a2b6f61d06f6604adb8657495020","75.88.105.191","Mozilla/5.0 (Macintosh; Intel Mac OS X 10_15_7) AppleWebKit/605.1.15 (KHTML, like Gecko) Version/17.3.1 Safari/605.1.15","Macintosh","Safari","17.3.1","OS X","10_15_7","https://app.prolific.com/","en-US,en;q=0.9","67549868a9ea0e2c285a8f14","679edb085803f58d6bbd31ca","679ee5f3fdc71b640a413ae5","","3481","","5","Intro Trial",""
"","","","","","html-keyboard-response","37","91274","0.0-5.0","27","1","2025-02-02 03:47:21","bc01a2b6f61d06f6604adb8657495020","75.88.105.191","Mozilla/5.0 (Macintosh; Intel Mac OS X 10_15_7) AppleWebKit/605.1.15 (KHTML, like Gecko) Version/17.3.1 Safari/605.1.15","Macintosh","Safari","17.3.1","OS X","10_15_7","https://app.prolific.com/","en-US,en;q=0.9","67549868a9ea0e2c285a8f14","679edb085803f58d6bbd31ca","679ee5f3fdc71b640a413ae5","","8475","[""You sorted correctly by using the balance 14 times. <br><br> <img src='G_5.jpg' height='90'><img src='G_2.jpg' height='90'><img src='G_3.jpg' height='90'><img src='G_1.jpg' height='90'><img src='G_4.jpg' height='90'><br><br> Your final order is 1,2,3,4,5<br><br><br>Omgne Sort in this game will allow you to sort correctly by using the balance 8 times. Press Enter to learn it!""]","enter","",""
"","","","","","html-keyboard-response","38","94543","0.0-6.0","27","1","2025-02-02 03:47:21","bc01a2b6f61d06f6604adb8657495020","75.88.105.191","Mozilla/5.0 (Macintosh; Intel Mac OS X 10_15_7) AppleWebKit/605.1.15 (KHTML, like Gecko) Version/17.3.1 Safari/605.1.15","Macintosh","Safari","17.3.1","OS X","10_15_7","https://app.prolific.com/","en-US,en;q=0.9","67549868a9ea0e2c285a8f14","679edb085803f58d6bbd31ca","679ee5f3fdc71b640a413ae5","","3268","<p>Welcome to the learning phase! <br><br> You will learn by six examples. The following learning trials will not be used to calculate your performance. <br><br> Press Enter to continue.<p/>","enter","",""
"","","","","","html-keyboard-response","39","96446","0.0-7.0","27","1","2025-02-02 03:47:21","bc01a2b6f61d06f6604adb8657495020","75.88.105.191","Mozilla/5.0 (Macintosh; Intel Mac OS X 10_15_7) AppleWebKit/605.1.15 (KHTML, like Gecko) Version/17.3.1 Safari/605.1.15","Macintosh","Safari","17.3.1","OS X","10_15_7","https://app.prolific.com/","en-US,en;q=0.9","67549868a9ea0e2c285a8f14","679edb085803f58d6bbd31ca","679ee5f3fdc71b640a413ae5","","1900","[""Example 1<br><br>You will watch Omnge Sort in action. Try to identify any patterns in the comparisons made by this method. <br><br>Press Enter to continue.""]","enter","",""
"","","","","","html-keyboard-response","40","96950","0.0-8.0","27","1","2025-02-02 03:47:21","bc01a2b6f61d06f6604adb8657495020","75.88.105.191","Mozilla/5.0 (Macintosh; Intel Mac OS X 10_15_7) AppleWebKit/605.1.15 (KHTML, like Gecko) Version/17.3.1 Safari/605.1.15","Macintosh","Safari","17.3.1","OS X","10_15_7","https://app.prolific.com/","en-US,en;q=0.9","67549868a9ea0e2c285a8f14","679edb085803f58d6bbd31ca","679ee5f3fdc71b640a413ae5","","null","<img id='selected' src='G_3.jpg' height='90'> <img src='G_9.jpg' height='90'> <img src='G_1.jpg' height='90'> <img src='G_7.jpg' height='90'> <img src='G_5.jpg' height='90'>","null","Animation0",""
"","","","","","html-keyboard-response","41","97456","0.0-9.0","27","1","2025-02-02 03:47:21","bc01a2b6f61d06f6604adb8657495020","75.88.105.191","Mozilla/5.0 (Macintosh; Intel Mac OS X 10_15_7) AppleWebKit/605.1.15 (KHTML, like Gecko) Version/17.3.1 Safari/605.1.15","Macintosh","Safari","17.3.1","OS X","10_15_7","https://app.prolific.com/","en-US,en;q=0.9","67549868a9ea0e2c285a8f14","679edb085803f58d6bbd31ca","679ee5f3fdc71b640a413ae5","","null","<img id='selected' src='G_3.jpg' height='90'> <img id='selected' src='G_9.jpg' height='90'> <img src='G_1.jpg' height='90'> <img src='G_7.jpg' height='90'> <img src='G_5.jpg' height='90'>","null","Animation0",""
"","","","","","html-keyboard-response","42","97961","0.0-10.0","27","1","2025-02-02 03:47:21","bc01a2b6f61d06f6604adb8657495020","75.88.105.191","Mozilla/5.0 (Macintosh; Intel Mac OS X 10_15_7) AppleWebKit/605.1.15 (KHTML, like Gecko) Version/17.3.1 Safari/605.1.15","Macintosh","Safari","17.3.1","OS X","10_15_7","https://app.prolific.com/","en-US,en;q=0.9","67549868a9ea0e2c285a8f14","679edb085803f58d6bbd31ca","679ee5f3fdc71b640a413ae5","","null","<img id='swapped' src='G_9.jpg' height='90'> <img id='swapped' src='G_3.jpg' height='90'> <img src='G_1.jpg' height='90'> <img src='G_7.jpg' height='90'> <img src='G_5.jpg' height='90'>","null","Animation0",""
"","","","","","html-keyboard-response","43","98265","0.0-11.0","27","1","2025-02-02 03:47:21","bc01a2b6f61d06f6604adb8657495020","75.88.105.191","Mozilla/5.0 (Macintosh; Intel Mac OS X 10_15_7) AppleWebKit/605.1.15 (KHTML, like Gecko) Version/17.3.1 Safari/605.1.15","Macintosh","Safari","17.3.1","OS X","10_15_7","https://app.prolific.com/","en-US,en;q=0.9","67549868a9ea0e2c285a8f14","679edb085803f58d6bbd31ca","679ee5f3fdc71b640a413ae5","","null","<img  src='G_9.jpg' height='90'> <img  src='G_3.jpg' height='90'> <img src='G_1.jpg' height='90'> <img src='G_7.jpg' height='90'> <img src='G_5.jpg' height='90'>","null","Animation0",""
"","","","","","html-keyboard-response","44","98770","0.0-12.0","27","1","2025-02-02 03:47:21","bc01a2b6f61d06f6604adb8657495020","75.88.105.191","Mozilla/5.0 (Macintosh; Intel Mac OS X 10_15_7) AppleWebKit/605.1.15 (KHTML, like Gecko) Version/17.3.1 Safari/605.1.15","Macintosh","Safari","17.3.1","OS X","10_15_7","https://app.prolific.com/","en-US,en;q=0.9","67549868a9ea0e2c285a8f14","679edb085803f58d6bbd31ca","679ee5f3fdc71b640a413ae5","","null","<img  src='G_9.jpg' height='90'> <img id='selected'  src='G_3.jpg' height='90'> <img src='G_1.jpg' height='90'> <img src='G_7.jpg' height='90'> <img src='G_5.jpg' height='90'>","null","Animation0",""
"","","","","","html-keyboard-response","45","99276","0.0-13.0","27","1","2025-02-02 03:47:21","bc01a2b6f61d06f6604adb8657495020","75.88.105.191","Mozilla/5.0 (Macintosh; Intel Mac OS X 10_15_7) AppleWebKit/605.1.15 (KHTML, like Gecko) Version/17.3.1 Safari/605.1.15","Macintosh","Safari","17.3.1","OS X","10_15_7","https://app.prolific.com/","en-US,en;q=0.9","67549868a9ea0e2c285a8f14","679edb085803f58d6bbd31ca","679ee5f3fdc71b640a413ae5","","null","<img  src='G_9.jpg' height='90'> <img id='selected'  src='G_3.jpg' height='90'> <img id='selected' src='G_1.jpg' height='90'> <img src='G_7.jpg' height='90'> <img src='G_5.jpg' height='90'>","null","Animation0",""
"","","","","","html-keyboard-response","46","99782","0.0-14.0","27","1","2025-02-02 03:47:21","bc01a2b6f61d06f6604adb8657495020","75.88.105.191","Mozilla/5.0 (Macintosh; Intel Mac OS X 10_15_7) AppleWebKit/605.1.15 (KHTML, like Gecko) Version/17.3.1 Safari/605.1.15","Macintosh","Safari","17.3.1","OS X","10_15_7","https://app.prolific.com/","en-US,en;q=0.9","67549868a9ea0e2c285a8f14","679edb085803f58d6bbd31ca","679ee5f3fdc71b640a413ae5","","null","<img  src='G_9.jpg' height='90'> <img id='selected'  src='G_3.jpg' height='90'> <img id='selected' src='G_1.jpg' height='90'> <img src='G_7.jpg' height='90'> <img src='G_5.jpg' height='90'>","null","Animation0",""
"","","","","","html-keyboard-response","47","100087","0.0-15.0","27","1","2025-02-02 03:47:21","bc01a2b6f61d06f6604adb8657495020","75.88.105.191","Mozilla/5.0 (Macintosh; Intel Mac OS X 10_15_7) AppleWebKit/605.1.15 (KHTML, like Gecko) Version/17.3.1 Safari/605.1.15","Macintosh","Safari","17.3.1","OS X","10_15_7","https://app.prolific.com/","en-US,en;q=0.9","67549868a9ea0e2c285a8f14","679edb085803f58d6bbd31ca","679ee5f3fdc71b640a413ae5","","null","<img  src='G_9.jpg' height='90'> <img   src='G_3.jpg' height='90'> <img  src='G_1.jpg' height='90'> <img src='G_7.jpg' height='90'> <img src='G_5.jpg' height='90'>","null","Animation0",""
"","","","","","html-keyboard-response","48","100593","0.0-16.0","27","1","2025-02-02 03:47:21","bc01a2b6f61d06f6604adb8657495020","75.88.105.191","Mozilla/5.0 (Macintosh; Intel Mac OS X 10_15_7) AppleWebKit/605.1.15 (KHTML, like Gecko) Version/17.3.1 Safari/605.1.15","Macintosh","Safari","17.3.1","OS X","10_15_7","https://app.prolific.com/","en-US,en;q=0.9","67549868a9ea0e2c285a8f14","679edb085803f58d6bbd31ca","679ee5f3fdc71b640a413ae5","","null","<img  src='G_9.jpg' height='90'> <img   src='G_3.jpg' height='90'> <img id='selected'  src='G_1.jpg' height='90'> <img src='G_7.jpg' height='90'> <img src='G_5.jpg' height='90'>","null","Animation0",""
"","","","","","html-keyboard-response","49","101098","0.0-17.0","27","1","2025-02-02 03:47:21","bc01a2b6f61d06f6604adb8657495020","75.88.105.191","Mozilla/5.0 (Macintosh; Intel Mac OS X 10_15_7) AppleWebKit/605.1.15 (KHTML, like Gecko) Version/17.3.1 Safari/605.1.15","Macintosh","Safari","17.3.1","OS X","10_15_7","https://app.prolific.com/","en-US,en;q=0.9","67549868a9ea0e2c285a8f14","679edb085803f58d6bbd31ca","679ee5f3fdc71b640a413ae5","","null","<img  src='G_9.jpg' height='90'> <img   src='G_3.jpg' height='90'> <img id='selected'  src='G_1.jpg' height='90'> <img id='selected' src='G_7.jpg' height='90'> <img src='G_5.jpg' height='90'>","null","Animation0",""
"","","","","","html-keyboard-response","50","101604","0.0-18.0","27","1","2025-02-02 03:47:21","bc01a2b6f61d06f6604adb8657495020","75.88.105.191","Mozilla/5.0 (Macintosh; Intel Mac OS X 10_15_7) AppleWebKit/605.1.15 (KHTML, like Gecko) Version/17.3.1 Safari/605.1.15","Macintosh","Safari","17.3.1","OS X","10_15_7","https://app.prolific.com/","en-US,en;q=0.9","67549868a9ea0e2c285a8f14","679edb085803f58d6bbd31ca","679ee5f3fdc71b640a413ae5","","null","<img  src='G_9.jpg' height='90'> <img   src='G_3.jpg' height='90'> <img id='selected'  src='G_1.jpg' height='90'> <img id='selected' src='G_7.jpg' height='90'> <img src='G_5.jpg' height='90'>","null","Animation0",""
"","","","","","html-keyboard-response","51","101909","0.0-19.0","27","1","2025-02-02 03:47:21","bc01a2b6f61d06f6604adb8657495020","75.88.105.191","Mozilla/5.0 (Macintosh; Intel Mac OS X 10_15_7) AppleWebKit/605.1.15 (KHTML, like Gecko) Version/17.3.1 Safari/605.1.15","Macintosh","Safari","17.3.1","OS X","10_15_7","https://app.prolific.com/","en-US,en;q=0.9","67549868a9ea0e2c285a8f14","679edb085803f58d6bbd31ca","679ee5f3fdc71b640a413ae5","","null","<img  src='G_9.jpg' height='90'> <img   src='G_3.jpg' height='90'> <img   src='G_1.jpg' height='90'> <img  src='G_7.jpg' height='90'> <img src='G_5.jpg' height='90'>","null","Animation0",""
"","","","","","html-keyboard-response","52","102414","0.0-20.0","27","1","2025-02-02 03:47:21","bc01a2b6f61d06f6604adb8657495020","75.88.105.191","Mozilla/5.0 (Macintosh; Intel Mac OS X 10_15_7) AppleWebKit/605.1.15 (KHTML, like Gecko) Version/17.3.1 Safari/605.1.15","Macintosh","Safari","17.3.1","OS X","10_15_7","https://app.prolific.com/","en-US,en;q=0.9","67549868a9ea0e2c285a8f14","679edb085803f58d6bbd31ca","679ee5f3fdc71b640a413ae5","","null","<img  src='G_9.jpg' height='90'> <img   src='G_3.jpg' height='90'> <img   src='G_1.jpg' height='90'> <img id='selected'  src='G_7.jpg' height='90'> <img src='G_5.jpg' height='90'>","null","Animation0",""
"","","","","","html-keyboard-response","53","102919","0.0-21.0","27","1","2025-02-02 03:47:21","bc01a2b6f61d06f6604adb8657495020","75.88.105.191","Mozilla/5.0 (Macintosh; Intel Mac OS X 10_15_7) AppleWebKit/605.1.15 (KHTML, like Gecko) Version/17.3.1 Safari/605.1.15","Macintosh","Safari","17.3.1","OS X","10_15_7","https://app.prolific.com/","en-US,en;q=0.9","67549868a9ea0e2c285a8f14","679edb085803f58d6bbd31ca","679ee5f3fdc71b640a413ae5","","null","<img  src='G_9.jpg' height='90'> <img   src='G_3.jpg' height='90'> <img   src='G_1.jpg' height='90'> <img id='selected'  src='G_7.jpg' height='90'> <img id='selected' src='G_5.jpg' height='90'>","null","Animation0",""
"","","","","","html-keyboard-response","54","103422","0.0-22.0","27","1","2025-02-02 03:47:21","bc01a2b6f61d06f6604adb8657495020","75.88.105.191","Mozilla/5.0 (Macintosh; Intel Mac OS X 10_15_7) AppleWebKit/605.1.15 (KHTML, like Gecko) Version/17.3.1 Safari/605.1.15","Macintosh","Safari","17.3.1","OS X","10_15_7","https://app.prolific.com/","en-US,en;q=0.9","67549868a9ea0e2c285a8f14","679edb085803f58d6bbd31ca","679ee5f3fdc71b640a413ae5","","null","<img  src='G_9.jpg' height='90'> <img   src='G_3.jpg' height='90'> <img   src='G_1.jpg' height='90'> <img id='selected'  src='G_7.jpg' height='90'> <img id='selected' src='G_5.jpg' height='90'>","null","Animation0",""
"","","","","","html-keyboard-response","55","103727","0.0-23.0","27","1","2025-02-02 03:47:21","bc01a2b6f61d06f6604adb8657495020","75.88.105.191","Mozilla/5.0 (Macintosh; Intel Mac OS X 10_15_7) AppleWebKit/605.1.15 (KHTML, like Gecko) Version/17.3.1 Safari/605.1.15","Macintosh","Safari","17.3.1","OS X","10_15_7","https://app.prolific.com/","en-US,en;q=0.9","67549868a9ea0e2c285a8f14","679edb085803f58d6bbd31ca","679ee5f3fdc71b640a413ae5","","null","<img  src='G_9.jpg' height='90'> <img   src='G_3.jpg' height='90'> <img   src='G_1.jpg' height='90'> <img   src='G_7.jpg' height='90'> <img  src='G_5.jpg' height='90'>","null","Animation0",""
"","","","","","html-keyboard-response","56","107242","0.0-24.0","27","1","2025-02-02 03:47:21","bc01a2b6f61d06f6604adb8657495020","75.88.105.191","Mozilla/5.0 (Macintosh; Intel Mac OS X 10_15_7) AppleWebKit/605.1.15 (KHTML, like Gecko) Version/17.3.1 Safari/605.1.15","Macintosh","Safari","17.3.1","OS X","10_15_7","https://app.prolific.com/","en-US,en;q=0.9","67549868a9ea0e2c285a8f14","679edb085803f58d6bbd31ca","679ee5f3fdc71b640a413ae5","","3511","[""Did you notice any patterns? <br><br>Press Enter to watch that example again and follow the steps of Omgne Sort.""]","enter","",""
"","","","","","html-button-response","57","107647","0.0-25.0","27","1","2025-02-02 03:47:21","bc01a2b6f61d06f6604adb8657495020","75.88.105.191","Mozilla/5.0 (Macintosh; Intel Mac OS X 10_15_7) AppleWebKit/605.1.15 (KHTML, like Gecko) Version/17.3.1 Safari/605.1.15","Macintosh","Safari","17.3.1","OS X","10_15_7","https://app.prolific.com/","en-US,en;q=0.9","67549868a9ea0e2c285a8f14","679edb085803f58d6bbd31ca","679ee5f3fdc71b640a413ae5","","null","<img id='selected' src='G_3.jpg' height='90'> <img src='G_9.jpg' height='90'> <img src='G_1.jpg' height='90'> <img src='G_7.jpg' height='90'> <img src='G_5.jpg' height='90'>","null","Learning example 0",""
"","","","","","html-button-response","58","107954","0.0-26.0","27","1","2025-02-02 03:47:21","bc01a2b6f61d06f6604adb8657495020","75.88.105.191","Mozilla/5.0 (Macintosh; Intel Mac OS X 10_15_7) AppleWebKit/605.1.15 (KHTML, like Gecko) Version/17.3.1 Safari/605.1.15","Macintosh","Safari","17.3.1","OS X","10_15_7","https://app.prolific.com/","en-US,en;q=0.9","67549868a9ea0e2c285a8f14","679edb085803f58d6bbd31ca","679ee5f3fdc71b640a413ae5","","null","<img id='selected' src='G_3.jpg' height='90'> <img id='selected' src='G_9.jpg' height='90'> <img src='G_1.jpg' height='90'> <img src='G_7.jpg' height='90'> <img src='G_5.jpg' height='90'>","null","Learning example 0",""
"","","","","","html-button-response","59","108261","0.0-27.0","27","1","2025-02-02 03:47:21","bc01a2b6f61d06f6604adb8657495020","75.88.105.191","Mozilla/5.0 (Macintosh; Intel Mac OS X 10_15_7) AppleWebKit/605.1.15 (KHTML, like Gecko) Version/17.3.1 Safari/605.1.15","Macintosh","Safari","17.3.1","OS X","10_15_7","https://app.prolific.com/","en-US,en;q=0.9","67549868a9ea0e2c285a8f14","679edb085803f58d6bbd31ca","679ee5f3fdc71b640a413ae5","","null","<img id='swapped' src='G_9.jpg' height='90'> <img id='swapped' src='G_3.jpg' height='90'> <img src='G_1.jpg' height='90'> <img src='G_7.jpg' height='90'> <img src='G_5.jpg' height='90'>","null","Learning example 0",""
"","","","","","html-button-response","60","109737","0.0-28.0-0.0-0.0","27","1","2025-02-02 03:47:21","bc01a2b6f61d06f6604adb8657495020","75.88.105.191","Mozilla/5.0 (Macintosh; Intel Mac OS X 10_15_7) AppleWebKit/605.1.15 (KHTML, like Gecko) Version/17.3.1 Safari/605.1.15","Macintosh","Safari","17.3.1","OS X","10_15_7","https://app.prolific.com/","en-US,en;q=0.9","67549868a9ea0e2c285a8f14","679edb085803f58d6bbd31ca","679ee5f3fdc71b640a413ae5","","1471","<img id='swapped' src='G_9.jpg' height='90'> <img id='swapped' src='G_3.jpg' height='90'> <img src='G_1.jpg' height='90'> <img src='G_7.jpg' height='90'> <img src='G_5.jpg' height='90'>","0","Learning example 0",""
"","","","","","html-button-response","61","110347","0.0-28.1-0.1-0.1","27","1","2025-02-02 03:47:21","bc01a2b6f61d06f6604adb8657495020","75.88.105.191","Mozilla/5.0 (Macintosh; Intel Mac OS X 10_15_7) AppleWebKit/605.1.15 (KHTML, like Gecko) Version/17.3.1 Safari/605.1.15","Macintosh","Safari","17.3.1","OS X","10_15_7","https://app.prolific.com/","en-US,en;q=0.9","67549868a9ea0e2c285a8f14","679edb085803f58d6bbd31ca","679ee5f3fdc71b640a413ae5","","608","<img id='swapped' src='G_9.jpg' height='90'> <img id='swapped' src='G_3.jpg' height='90'> <img src='G_1.jpg' height='90'> <img src='G_7.jpg' height='90'> <img src='G_5.jpg' height='90'>","1","Learning example 0",""
"","","","","","html-button-response","62","110551","0.0-29.0","27","1","2025-02-02 03:47:21","bc01a2b6f61d06f6604adb8657495020","75.88.105.191","Mozilla/5.0 (Macintosh; Intel Mac OS X 10_15_7) AppleWebKit/605.1.15 (KHTML, like Gecko) Version/17.3.1 Safari/605.1.15","Macintosh","Safari","17.3.1","OS X","10_15_7","https://app.prolific.com/","en-US,en;q=0.9","67549868a9ea0e2c285a8f14","679edb085803f58d6bbd31ca","679ee5f3fdc71b640a413ae5","","null","<img  src='G_9.jpg' height='90'> <img  src='G_3.jpg' height='90'> <img src='G_1.jpg' height='90'> <img src='G_7.jpg' height='90'> <img src='G_5.jpg' height='90'>","null","Learning example 0",""
"","","","","","html-button-response","63","110957","0.0-30.0","27","1","2025-02-02 03:47:21","bc01a2b6f61d06f6604adb8657495020","75.88.105.191","Mozilla/5.0 (Macintosh; Intel Mac OS X 10_15_7) AppleWebKit/605.1.15 (KHTML, like Gecko) Version/17.3.1 Safari/605.1.15","Macintosh","Safari","17.3.1","OS X","10_15_7","https://app.prolific.com/","en-US,en;q=0.9","67549868a9ea0e2c285a8f14","679edb085803f58d6bbd31ca","679ee5f3fdc71b640a413ae5","","null","<img  src='G_9.jpg' height='90'> <img id='selected'  src='G_3.jpg' height='90'> <img src='G_1.jpg' height='90'> <img src='G_7.jpg' height='90'> <img src='G_5.jpg' height='90'>","null","Learning example 0",""
"","","","","","html-button-response","64","111276","0.0-31.0","27","1","2025-02-02 03:47:21","bc01a2b6f61d06f6604adb8657495020","75.88.105.191","Mozilla/5.0 (Macintosh; Intel Mac OS X 10_15_7) AppleWebKit/605.1.15 (KHTML, like Gecko) Version/17.3.1 Safari/605.1.15","Macintosh","Safari","17.3.1","OS X","10_15_7","https://app.prolific.com/","en-US,en;q=0.9","67549868a9ea0e2c285a8f14","679edb085803f58d6bbd31ca","679ee5f3fdc71b640a413ae5","","null","<img  src='G_9.jpg' height='90'> <img id='selected'  src='G_3.jpg' height='90'> <img id='selected' src='G_1.jpg' height='90'> <img src='G_7.jpg' height='90'> <img src='G_5.jpg' height='90'>","null","Learning example 0",""
"","","","","","html-button-response","65","111581","0.0-32.0","27","1","2025-02-02 03:47:21","bc01a2b6f61d06f6604adb8657495020","75.88.105.191","Mozilla/5.0 (Macintosh; Intel Mac OS X 10_15_7) AppleWebKit/605.1.15 (KHTML, like Gecko) Version/17.3.1 Safari/605.1.15","Macintosh","Safari","17.3.1","OS X","10_15_7","https://app.prolific.com/","en-US,en;q=0.9","67549868a9ea0e2c285a8f14","679edb085803f58d6bbd31ca","679ee5f3fdc71b640a413ae5","","null","<img  src='G_9.jpg' height='90'> <img id='selected'  src='G_3.jpg' height='90'> <img id='selected' src='G_1.jpg' height='90'> <img src='G_7.jpg' height='90'> <img src='G_5.jpg' height='90'>","null","Learning example 0",""
"","","","","","html-button-response","66","112197","0.0-33.0-0.0-0.0","27","1","2025-02-02 03:47:21","bc01a2b6f61d06f6604adb8657495020","75.88.105.191","Mozilla/5.0 (Macintosh; Intel Mac OS X 10_15_7) AppleWebKit/605.1.15 (KHTML, like Gecko) Version/17.3.1 Safari/605.1.15","Macintosh","Safari","17.3.1","OS X","10_15_7","https://app.prolific.com/","en-US,en;q=0.9","67549868a9ea0e2c285a8f14","679edb085803f58d6bbd31ca","679ee5f3fdc71b640a413ae5","","612","<img  src='G_9.jpg' height='90'> <img id='selected'  src='G_3.jpg' height='90'> <img id='selected' src='G_1.jpg' height='90'> <img src='G_7.jpg' height='90'> <img src='G_5.jpg' height='90'>","1","Learning example 0",""
"","","","","","html-button-response","67","112979","0.0-33.1-0.1-0.1","27","1","2025-02-02 03:47:21","bc01a2b6f61d06f6604adb8657495020","75.88.105.191","Mozilla/5.0 (Macintosh; Intel Mac OS X 10_15_7) AppleWebKit/605.1.15 (KHTML, like Gecko) Version/17.3.1 Safari/605.1.15","Macintosh","Safari","17.3.1","OS X","10_15_7","https://app.prolific.com/","en-US,en;q=0.9","67549868a9ea0e2c285a8f14","679edb085803f58d6bbd31ca","679ee5f3fdc71b640a413ae5","","778","<img  src='G_9.jpg' height='90'> <img id='selected'  src='G_3.jpg' height='90'> <img id='selected' src='G_1.jpg' height='90'> <img src='G_7.jpg' height='90'> <img src='G_5.jpg' height='90'>","2","Learning example 0",""
"","","","","","html-button-response","68","113182","0.0-34.0","27","1","2025-02-02 03:47:21","bc01a2b6f61d06f6604adb8657495020","75.88.105.191","Mozilla/5.0 (Macintosh; Intel Mac OS X 10_15_7) AppleWebKit/605.1.15 (KHTML, like Gecko) Version/17.3.1 Safari/605.1.15","Macintosh","Safari","17.3.1","OS X","10_15_7","https://app.prolific.com/","en-US,en;q=0.9","67549868a9ea0e2c285a8f14","679edb085803f58d6bbd31ca","679ee5f3fdc71b640a413ae5","","null","<img  src='G_9.jpg' height='90'> <img   src='G_3.jpg' height='90'> <img  src='G_1.jpg' height='90'> <img src='G_7.jpg' height='90'> <img src='G_5.jpg' height='90'>","null","Learning example 0",""
"","","","","","html-button-response","69","113589","0.0-35.0","27","1","2025-02-02 03:47:21","bc01a2b6f61d06f6604adb8657495020","75.88.105.191","Mozilla/5.0 (Macintosh; Intel Mac OS X 10_15_7) AppleWebKit/605.1.15 (KHTML, like Gecko) Version/17.3.1 Safari/605.1.15","Macintosh","Safari","17.3.1","OS X","10_15_7","https://app.prolific.com/","en-US,en;q=0.9","67549868a9ea0e2c285a8f14","679edb085803f58d6bbd31ca","679ee5f3fdc71b640a413ae5","","null","<img  src='G_9.jpg' height='90'> <img   src='G_3.jpg' height='90'> <img id='selected'  src='G_1.jpg' height='90'> <img src='G_7.jpg' height='90'> <img src='G_5.jpg' height='90'>","null","Learning example 0",""
"","","","","","html-button-response","70","113895","0.0-36.0","27","1","2025-02-02 03:47:21","bc01a2b6f61d06f6604adb8657495020","75.88.105.191","Mozilla/5.0 (Macintosh; Intel Mac OS X 10_15_7) AppleWebKit/605.1.15 (KHTML, like Gecko) Version/17.3.1 Safari/605.1.15","Macintosh","Safari","17.3.1","OS X","10_15_7","https://app.prolific.com/","en-US,en;q=0.9","67549868a9ea0e2c285a8f14","679edb085803f58d6bbd31ca","679ee5f3fdc71b640a413ae5","","null","<img  src='G_9.jpg' height='90'> <img   src='G_3.jpg' height='90'> <img id='selected'  src='G_1.jpg' height='90'> <img id='selected' src='G_7.jpg' height='90'> <img src='G_5.jpg' height='90'>","null","Learning example 0",""
"","","","","","html-button-response","71","114202","0.0-37.0","27","1","2025-02-02 03:47:21","bc01a2b6f61d06f6604adb8657495020","75.88.105.191","Mozilla/5.0 (Macintosh; Intel Mac OS X 10_15_7) AppleWebKit/605.1.15 (KHTML, like Gecko) Version/17.3.1 Safari/605.1.15","Macintosh","Safari","17.3.1","OS X","10_15_7","https://app.prolific.com/","en-US,en;q=0.9","67549868a9ea0e2c285a8f14","679edb085803f58d6bbd31ca","679ee5f3fdc71b640a413ae5","","null","<img  src='G_9.jpg' height='90'> <img   src='G_3.jpg' height='90'> <img id='selected'  src='G_1.jpg' height='90'> <img id='selected' src='G_7.jpg' height='90'> <img src='G_5.jpg' height='90'>","null","Learning example 0",""
"","","","","","html-button-response","72","114449","0.0-38.0-0.0-0.0","27","1","2025-02-02 03:47:21","bc01a2b6f61d06f6604adb8657495020","75.88.105.191","Mozilla/5.0 (Macintosh; Intel Mac OS X 10_15_7) AppleWebKit/605.1.15 (KHTML, like Gecko) Version/17.3.1 Safari/605.1.15","Macintosh","Safari","17.3.1","OS X","10_15_7","https://app.prolific.com/","en-US,en;q=0.9","67549868a9ea0e2c285a8f14","679edb085803f58d6bbd31ca","679ee5f3fdc71b640a413ae5","","243","<img  src='G_9.jpg' height='90'> <img   src='G_3.jpg' height='90'> <img id='selected'  src='G_1.jpg' height='90'> <img id='selected' src='G_7.jpg' height='90'> <img src='G_5.jpg' height='90'>","2","Learning example 0",""
"","","","","","html-button-response","73","115165","0.0-38.1-0.1-0.1","27","1","2025-02-02 03:47:21","bc01a2b6f61d06f6604adb8657495020","75.88.105.191","Mozilla/5.0 (Macintosh; Intel Mac OS X 10_15_7) AppleWebKit/605.1.15 (KHTML, like Gecko) Version/17.3.1 Safari/605.1.15","Macintosh","Safari","17.3.1","OS X","10_15_7","https://app.prolific.com/","en-US,en;q=0.9","67549868a9ea0e2c285a8f14","679edb085803f58d6bbd31ca","679ee5f3fdc71b640a413ae5","","713","<img  src='G_9.jpg' height='90'> <img   src='G_3.jpg' height='90'> <img id='selected'  src='G_1.jpg' height='90'> <img id='selected' src='G_7.jpg' height='90'> <img src='G_5.jpg' height='90'>","3","Learning example 0",""
"","","","","","html-button-response","74","115369","0.0-39.0","27","1","2025-02-02 03:47:21","bc01a2b6f61d06f6604adb8657495020","75.88.105.191","Mozilla/5.0 (Macintosh; Intel Mac OS X 10_15_7) AppleWebKit/605.1.15 (KHTML, like Gecko) Version/17.3.1 Safari/605.1.15","Macintosh","Safari","17.3.1","OS X","10_15_7","https://app.prolific.com/","en-US,en;q=0.9","67549868a9ea0e2c285a8f14","679edb085803f58d6bbd31ca","679ee5f3fdc71b640a413ae5","","null","<img  src='G_9.jpg' height='90'> <img   src='G_3.jpg' height='90'> <img   src='G_1.jpg' height='90'> <img  src='G_7.jpg' height='90'> <img src='G_5.jpg' height='90'>","null","Learning example 0",""
"","","","","","html-button-response","75","115776","0.0-40.0","27","1","2025-02-02 03:47:21","bc01a2b6f61d06f6604adb8657495020","75.88.105.191","Mozilla/5.0 (Macintosh; Intel Mac OS X 10_15_7) AppleWebKit/605.1.15 (KHTML, like Gecko) Version/17.3.1 Safari/605.1.15","Macintosh","Safari","17.3.1","OS X","10_15_7","https://app.prolific.com/","en-US,en;q=0.9","67549868a9ea0e2c285a8f14","679edb085803f58d6bbd31ca","679ee5f3fdc71b640a413ae5","","null","<img  src='G_9.jpg' height='90'> <img   src='G_3.jpg' height='90'> <img   src='G_1.jpg' height='90'> <img id='selected'  src='G_7.jpg' height='90'> <img src='G_5.jpg' height='90'>","null","Learning example 0",""
"","","","","","html-button-response","76","116082","0.0-41.0","27","1","2025-02-02 03:47:21","bc01a2b6f61d06f6604adb8657495020","75.88.105.191","Mozilla/5.0 (Macintosh; Intel Mac OS X 10_15_7) AppleWebKit/605.1.15 (KHTML, like Gecko) Version/17.3.1 Safari/605.1.15","Macintosh","Safari","17.3.1","OS X","10_15_7","https://app.prolific.com/","en-US,en;q=0.9","67549868a9ea0e2c285a8f14","679edb085803f58d6bbd31ca","679ee5f3fdc71b640a413ae5","","null","<img  src='G_9.jpg' height='90'> <img   src='G_3.jpg' height='90'> <img   src='G_1.jpg' height='90'> <img id='selected'  src='G_7.jpg' height='90'> <img id='selected' src='G_5.jpg' height='90'>","null","Learning example 0",""
"","","","","","html-button-response","77","116388","0.0-42.0","27","1","2025-02-02 03:47:21","bc01a2b6f61d06f6604adb8657495020","75.88.105.191","Mozilla/5.0 (Macintosh; Intel Mac OS X 10_15_7) AppleWebKit/605.1.15 (KHTML, like Gecko) Version/17.3.1 Safari/605.1.15","Macintosh","Safari","17.3.1","OS X","10_15_7","https://app.prolific.com/","en-US,en;q=0.9","67549868a9ea0e2c285a8f14","679edb085803f58d6bbd31ca","679ee5f3fdc71b640a413ae5","","null","<img  src='G_9.jpg' height='90'> <img   src='G_3.jpg' height='90'> <img   src='G_1.jpg' height='90'> <img id='selected'  src='G_7.jpg' height='90'> <img id='selected' src='G_5.jpg' height='90'>","null","Learning example 0",""
"","","","","","html-button-response","78","118046","0.0-43.0-0.0-0.0","27","1","2025-02-02 03:47:21","bc01a2b6f61d06f6604adb8657495020","75.88.105.191","Mozilla/5.0 (Macintosh; Intel Mac OS X 10_15_7) AppleWebKit/605.1.15 (KHTML, like Gecko) Version/17.3.1 Safari/605.1.15","Macintosh","Safari","17.3.1","OS X","10_15_7","https://app.prolific.com/","en-US,en;q=0.9","67549868a9ea0e2c285a8f14","679edb085803f58d6bbd31ca","679ee5f3fdc71b640a413ae5","","1655","<img  src='G_9.jpg' height='90'> <img   src='G_3.jpg' height='90'> <img   src='G_1.jpg' height='90'> <img id='selected'  src='G_7.jpg' height='90'> <img id='selected' src='G_5.jpg' height='90'>","3","Learning example 0",""
"","","","","","html-button-response","79","119031","0.0-43.1-0.1-0.1","27","1","2025-02-02 03:47:21","bc01a2b6f61d06f6604adb8657495020","75.88.105.191","Mozilla/5.0 (Macintosh; Intel Mac OS X 10_15_7) AppleWebKit/605.1.15 (KHTML, like Gecko) Version/17.3.1 Safari/605.1.15","Macintosh","Safari","17.3.1","OS X","10_15_7","https://app.prolific.com/","en-US,en;q=0.9","67549868a9ea0e2c285a8f14","679edb085803f58d6bbd31ca","679ee5f3fdc71b640a413ae5","","982","<img  src='G_9.jpg' height='90'> <img   src='G_3.jpg' height='90'> <img   src='G_1.jpg' height='90'> <img id='selected'  src='G_7.jpg' height='90'> <img id='selected' src='G_5.jpg' height='90'>","4","Learning example 0",""
"","","","","","html-button-response","80","119235","0.0-44.0","27","1","2025-02-02 03:47:21","bc01a2b6f61d06f6604adb8657495020","75.88.105.191","Mozilla/5.0 (Macintosh; Intel Mac OS X 10_15_7) AppleWebKit/605.1.15 (KHTML, like Gecko) Version/17.3.1 Safari/605.1.15","Macintosh","Safari","17.3.1","OS X","10_15_7","https://app.prolific.com/","en-US,en;q=0.9","67549868a9ea0e2c285a8f14","679edb085803f58d6bbd31ca","679ee5f3fdc71b640a413ae5","","null","<img  src='G_9.jpg' height='90'> <img   src='G_3.jpg' height='90'> <img   src='G_1.jpg' height='90'> <img   src='G_7.jpg' height='90'> <img  src='G_5.jpg' height='90'>","null","Learning example 0",""
"","","","","","html-keyboard-response","81","120968","0.0-45.0","27","1","2025-02-02 03:47:21","bc01a2b6f61d06f6604adb8657495020","75.88.105.191","Mozilla/5.0 (Macintosh; Intel Mac OS X 10_15_7) AppleWebKit/605.1.15 (KHTML, like Gecko) Version/17.3.1 Safari/605.1.15","Macintosh","Safari","17.3.1","OS X","10_15_7","https://app.prolific.com/","en-US,en;q=0.9","67549868a9ea0e2c285a8f14","679edb085803f58d6bbd31ca","679ee5f3fdc71b640a413ae5","","1728","[""Final order was 1,2,3,4,5. The initial order was 2,1,3,4,5.<br>It took 1 swaps to sort it correctly with Omgne Sort. <br><br>Press Enter to continue.""]","enter","",""
"","","","","","html-keyboard-response","82","122897","0.0-46.0","27","1","2025-02-02 03:47:21","bc01a2b6f61d06f6604adb8657495020","75.88.105.191","Mozilla/5.0 (Macintosh; Intel Mac OS X 10_15_7) AppleWebKit/605.1.15 (KHTML, like Gecko) Version/17.3.1 Safari/605.1.15","Macintosh","Safari","17.3.1","OS X","10_15_7","https://app.prolific.com/","en-US,en;q=0.9","67549868a9ea0e2c285a8f14","679edb085803f58d6bbd31ca","679ee5f3fdc71b640a413ae5","","1925","[""Example 2<br><br>You will watch Omnge Sort in action. Try to identify any patterns in the comparisons made by this method. <br><br>Press Enter to continue.""]","enter","",""
"","","","","","html-keyboard-response","83","123403","0.0-47.0","27","1","2025-02-02 03:47:21","bc01a2b6f61d06f6604adb8657495020","75.88.105.191","Mozilla/5.0 (Macintosh; Intel Mac OS X 10_15_7) AppleWebKit/605.1.15 (KHTML, like Gecko) Version/17.3.1 Safari/605.1.15","Macintosh","Safari","17.3.1","OS X","10_15_7","https://app.prolific.com/","en-US,en;q=0.9","67549868a9ea0e2c285a8f14","679edb085803f58d6bbd31ca","679ee5f3fdc71b640a413ae5","","null","<img id='selected' src='G_1.jpg' height='90'> <img src='G_4.jpg' height='90'> <img src='G_5.jpg' height='90'> <img src='G_6.jpg' height='90'> <img src='G_8.jpg' height='90'> <img src='G_3.jpg' height='90'> <img src='G_7.jpg' height='90'> <img src='G_2.jpg' height='90'>","null","Animation1",""
"","","","","","html-keyboard-response","84","123909","0.0-48.0","27","1","2025-02-02 03:47:21","bc01a2b6f61d06f6604adb8657495020","75.88.105.191","Mozilla/5.0 (Macintosh; Intel Mac OS X 10_15_7) AppleWebKit/605.1.15 (KHTML, like Gecko) Version/17.3.1 Safari/605.1.15","Macintosh","Safari","17.3.1","OS X","10_15_7","https://app.prolific.com/","en-US,en;q=0.9","67549868a9ea0e2c285a8f14","679edb085803f58d6bbd31ca","679ee5f3fdc71b640a413ae5","","null","<img id='selected' src='G_1.jpg' height='90'> <img id='selected' src='G_4.jpg' height='90'> <img src='G_5.jpg' height='90'> <img src='G_6.jpg' height='90'> <img src='G_8.jpg' height='90'> <img src='G_3.jpg' height='90'> <img src='G_7.jpg' height='90'> <img src='G_2.jpg' height='90'>","null","Animation1",""
"","","","","","html-keyboard-response","85","124416","0.0-49.0","27","1","2025-02-02 03:47:21","bc01a2b6f61d06f6604adb8657495020","75.88.105.191","Mozilla/5.0 (Macintosh; Intel Mac OS X 10_15_7) AppleWebKit/605.1.15 (KHTML, like Gecko) Version/17.3.1 Safari/605.1.15","Macintosh","Safari","17.3.1","OS X","10_15_7","https://app.prolific.com/","en-US,en;q=0.9","67549868a9ea0e2c285a8f14","679edb085803f58d6bbd31ca","679ee5f3fdc71b640a413ae5","","null","<img id='selected' src='G_1.jpg' height='90'> <img id='selected' src='G_4.jpg' height='90'> <img src='G_5.jpg' height='90'> <img src='G_6.jpg' height='90'> <img src='G_8.jpg' height='90'> <img src='G_3.jpg' height='90'> <img src='G_7.jpg' height='90'> <img src='G_2.jpg' height='90'>","null","Animation1",""
"","","","","","html-keyboard-response","86","124723","0.0-50.0","27","1","2025-02-02 03:47:21","bc01a2b6f61d06f6604adb8657495020","75.88.105.191","Mozilla/5.0 (Macintosh; Intel Mac OS X 10_15_7) AppleWebKit/605.1.15 (KHTML, like Gecko) Version/17.3.1 Safari/605.1.15","Macintosh","Safari","17.3.1","OS X","10_15_7","https://app.prolific.com/","en-US,en;q=0.9","67549868a9ea0e2c285a8f14","679edb085803f58d6bbd31ca","679ee5f3fdc71b640a413ae5","","null","<img  src='G_1.jpg' height='90'> <img  src='G_4.jpg' height='90'> <img src='G_5.jpg' height='90'> <img src='G_6.jpg' height='90'> <img src='G_8.jpg' height='90'> <img src='G_3.jpg' height='90'> <img src='G_7.jpg' height='90'> <img src='G_2.jpg' height='90'>","null","Animation1",""
"","","","","","html-keyboard-response","87","125230","0.0-51.0","27","1","2025-02-02 03:47:21","bc01a2b6f61d06f6604adb8657495020","75.88.105.191","Mozilla/5.0 (Macintosh; Intel Mac OS X 10_15_7) AppleWebKit/605.1.15 (KHTML, like Gecko) Version/17.3.1 Safari/605.1.15","Macintosh","Safari","17.3.1","OS X","10_15_7","https://app.prolific.com/","en-US,en;q=0.9","67549868a9ea0e2c285a8f14","679edb085803f58d6bbd31ca","679ee5f3fdc71b640a413ae5","","null","<img  src='G_1.jpg' height='90'> <img id='selected'  src='G_4.jpg' height='90'> <img src='G_5.jpg' height='90'> <img src='G_6.jpg' height='90'> <img src='G_8.jpg' height='90'> <img src='G_3.jpg' height='90'> <img src='G_7.jpg' height='90'> <img src='G_2.jpg' height='90'>","null","Animation1",""
"","","","","","html-keyboard-response","88","125738","0.0-52.0","27","1","2025-02-02 03:47:21","bc01a2b6f61d06f6604adb8657495020","75.88.105.191","Mozilla/5.0 (Macintosh; Intel Mac OS X 10_15_7) AppleWebKit/605.1.15 (KHTML, like Gecko) Version/17.3.1 Safari/605.1.15","Macintosh","Safari","17.3.1","OS X","10_15_7","https://app.prolific.com/","en-US,en;q=0.9","67549868a9ea0e2c285a8f14","679edb085803f58d6bbd31ca","679ee5f3fdc71b640a413ae5","","null","<img  src='G_1.jpg' height='90'> <img id='selected'  src='G_4.jpg' height='90'> <img id='selected' src='G_5.jpg' height='90'> <img src='G_6.jpg' height='90'> <img src='G_8.jpg' height='90'> <img src='G_3.jpg' height='90'> <img src='G_7.jpg' height='90'> <img src='G_2.jpg' height='90'>","null","Animation1",""
"","","","","","html-keyboard-response","89","126245","0.0-53.0","27","1","2025-02-02 03:47:21","bc01a2b6f61d06f6604adb8657495020","75.88.105.191","Mozilla/5.0 (Macintosh; Intel Mac OS X 10_15_7) AppleWebKit/605.1.15 (KHTML, like Gecko) Version/17.3.1 Safari/605.1.15","Macintosh","Safari","17.3.1","OS X","10_15_7","https://app.prolific.com/","en-US,en;q=0.9","67549868a9ea0e2c285a8f14","679edb085803f58d6bbd31ca","679ee5f3fdc71b640a413ae5","","null","<img  src='G_1.jpg' height='90'> <img id='swapped' src='G_5.jpg' height='90'> <img id='swapped'  src='G_4.jpg' height='90'> <img src='G_6.jpg' height='90'> <img src='G_8.jpg' height='90'> <img src='G_3.jpg' height='90'> <img src='G_7.jpg' height='90'> <img src='G_2.jpg' height='90'>","null","Animation1",""
"","","","","","html-keyboard-response","90","126551","0.0-54.0","27","1","2025-02-02 03:47:21","bc01a2b6f61d06f6604adb8657495020","75.88.105.191","Mozilla/5.0 (Macintosh; Intel Mac OS X 10_15_7) AppleWebKit/605.1.15 (KHTML, like Gecko) Version/17.3.1 Safari/605.1.15","Macintosh","Safari","17.3.1","OS X","10_15_7","https://app.prolific.com/","en-US,en;q=0.9","67549868a9ea0e2c285a8f14","679edb085803f58d6bbd31ca","679ee5f3fdc71b640a413ae5","","null","<img  src='G_1.jpg' height='90'> <img  src='G_5.jpg' height='90'> <img   src='G_4.jpg' height='90'> <img src='G_6.jpg' height='90'> <img src='G_8.jpg' height='90'> <img src='G_3.jpg' height='90'> <img src='G_7.jpg' height='90'> <img src='G_2.jpg' height='90'>","null","Animation1",""
"","","","","","html-keyboard-response","91","127058","0.0-55.0","27","1","2025-02-02 03:47:21","bc01a2b6f61d06f6604adb8657495020","75.88.105.191","Mozilla/5.0 (Macintosh; Intel Mac OS X 10_15_7) AppleWebKit/605.1.15 (KHTML, like Gecko) Version/17.3.1 Safari/605.1.15","Macintosh","Safari","17.3.1","OS X","10_15_7","https://app.prolific.com/","en-US,en;q=0.9","67549868a9ea0e2c285a8f14","679edb085803f58d6bbd31ca","679ee5f3fdc71b640a413ae5","","null","<img id='selected'  src='G_1.jpg' height='90'> <img  src='G_5.jpg' height='90'> <img   src='G_4.jpg' height='90'> <img src='G_6.jpg' height='90'> <img src='G_8.jpg' height='90'> <img src='G_3.jpg' height='90'> <img src='G_7.jpg' height='90'> <img src='G_2.jpg' height='90'>","null","Animation1",""
"","","","","","html-keyboard-response","92","127565","0.0-56.0","27","1","2025-02-02 03:47:21","bc01a2b6f61d06f6604adb8657495020","75.88.105.191","Mozilla/5.0 (Macintosh; Intel Mac OS X 10_15_7) AppleWebKit/605.1.15 (KHTML, like Gecko) Version/17.3.1 Safari/605.1.15","Macintosh","Safari","17.3.1","OS X","10_15_7","https://app.prolific.com/","en-US,en;q=0.9","67549868a9ea0e2c285a8f14","679edb085803f58d6bbd31ca","679ee5f3fdc71b640a413ae5","","null","<img id='selected'  src='G_1.jpg' height='90'> <img id='selected'  src='G_5.jpg' height='90'> <img   src='G_4.jpg' height='90'> <img src='G_6.jpg' height='90'> <img src='G_8.jpg' height='90'> <img src='G_3.jpg' height='90'> <img src='G_7.jpg' height='90'> <img src='G_2.jpg' height='90'>","null","Animation1",""
"","","","","","html-keyboard-response","93","128072","0.0-57.0","27","1","2025-02-02 03:47:21","bc01a2b6f61d06f6604adb8657495020","75.88.105.191","Mozilla/5.0 (Macintosh; Intel Mac OS X 10_15_7) AppleWebKit/605.1.15 (KHTML, like Gecko) Version/17.3.1 Safari/605.1.15","Macintosh","Safari","17.3.1","OS X","10_15_7","https://app.prolific.com/","en-US,en;q=0.9","67549868a9ea0e2c285a8f14","679edb085803f58d6bbd31ca","679ee5f3fdc71b640a413ae5","","null","<img id='swapped'  src='G_5.jpg' height='90'> <img id='swapped'  src='G_1.jpg' height='90'> <img   src='G_4.jpg' height='90'> <img src='G_6.jpg' height='90'> <img src='G_8.jpg' height='90'> <img src='G_3.jpg' height='90'> <img src='G_7.jpg' height='90'> <img src='G_2.jpg' height='90'>","null","Animation1",""
"","","","","","html-keyboard-response","94","128377","0.0-58.0","27","1","2025-02-02 03:47:21","bc01a2b6f61d06f6604adb8657495020","75.88.105.191","Mozilla/5.0 (Macintosh; Intel Mac OS X 10_15_7) AppleWebKit/605.1.15 (KHTML, like Gecko) Version/17.3.1 Safari/605.1.15","Macintosh","Safari","17.3.1","OS X","10_15_7","https://app.prolific.com/","en-US,en;q=0.9","67549868a9ea0e2c285a8f14","679edb085803f58d6bbd31ca","679ee5f3fdc71b640a413ae5","","null","<img   src='G_5.jpg' height='90'> <img   src='G_1.jpg' height='90'> <img   src='G_4.jpg' height='90'> <img src='G_6.jpg' height='90'> <img src='G_8.jpg' height='90'> <img src='G_3.jpg' height='90'> <img src='G_7.jpg' height='90'> <img src='G_2.jpg' height='90'>","null","Animation1",""
"","","","","","html-keyboard-response","95","128887","0.0-59.0","27","1","2025-02-02 03:47:21","bc01a2b6f61d06f6604adb8657495020","75.88.105.191","Mozilla/5.0 (Macintosh; Intel Mac OS X 10_15_7) AppleWebKit/605.1.15 (KHTML, like Gecko) Version/17.3.1 Safari/605.1.15","Macintosh","Safari","17.3.1","OS X","10_15_7","https://app.prolific.com/","en-US,en;q=0.9","67549868a9ea0e2c285a8f14","679edb085803f58d6bbd31ca","679ee5f3fdc71b640a413ae5","","null","<img   src='G_5.jpg' height='90'> <img   src='G_1.jpg' height='90'> <img id='selected'   src='G_4.jpg' height='90'> <img src='G_6.jpg' height='90'> <img src='G_8.jpg' height='90'> <img src='G_3.jpg' height='90'> <img src='G_7.jpg' height='90'> <img src='G_2.jpg' height='90'>","null","Animation1",""
"","","","","","html-keyboard-response","96","129395","0.0-60.0","27","1","2025-02-02 03:47:21","bc01a2b6f61d06f6604adb8657495020","75.88.105.191","Mozilla/5.0 (Macintosh; Intel Mac OS X 10_15_7) AppleWebKit/605.1.15 (KHTML, like Gecko) Version/17.3.1 Safari/605.1.15","Macintosh","Safari","17.3.1","OS X","10_15_7","https://app.prolific.com/","en-US,en;q=0.9","67549868a9ea0e2c285a8f14","679edb085803f58d6bbd31ca","679ee5f3fdc71b640a413ae5","","null","<img   src='G_5.jpg' height='90'> <img   src='G_1.jpg' height='90'> <img id='selected'   src='G_4.jpg' height='90'> <img id='selected' src='G_6.jpg' height='90'> <img src='G_8.jpg' height='90'> <img src='G_3.jpg' height='90'> <img src='G_7.jpg' height='90'> <img src='G_2.jpg' height='90'>","null","Animation1",""
"","","","","","html-keyboard-response","97","129902","0.0-61.0","27","1","2025-02-02 03:47:21","bc01a2b6f61d06f6604adb8657495020","75.88.105.191","Mozilla/5.0 (Macintosh; Intel Mac OS X 10_15_7) AppleWebKit/605.1.15 (KHTML, like Gecko) Version/17.3.1 Safari/605.1.15","Macintosh","Safari","17.3.1","OS X","10_15_7","https://app.prolific.com/","en-US,en;q=0.9","67549868a9ea0e2c285a8f14","679edb085803f58d6bbd31ca","679ee5f3fdc71b640a413ae5","","null","<img   src='G_5.jpg' height='90'> <img   src='G_1.jpg' height='90'> <img id='swapped' src='G_6.jpg' height='90'> <img id='swapped'   src='G_4.jpg' height='90'> <img src='G_8.jpg' height='90'> <img src='G_3.jpg' height='90'> <img src='G_7.jpg' height='90'> <img src='G_2.jpg' height='90'>","null","Animation1",""
"","","","","","html-keyboard-response","98","130209","0.0-62.0","27","1","2025-02-02 03:47:21","bc01a2b6f61d06f6604adb8657495020","75.88.105.191","Mozilla/5.0 (Macintosh; Intel Mac OS X 10_15_7) AppleWebKit/605.1.15 (KHTML, like Gecko) Version/17.3.1 Safari/605.1.15","Macintosh","Safari","17.3.1","OS X","10_15_7","https://app.prolific.com/","en-US,en;q=0.9","67549868a9ea0e2c285a8f14","679edb085803f58d6bbd31ca","679ee5f3fdc71b640a413ae5","","null","<img   src='G_5.jpg' height='90'> <img   src='G_1.jpg' height='90'> <img  src='G_6.jpg' height='90'> <img    src='G_4.jpg' height='90'> <img src='G_8.jpg' height='90'> <img src='G_3.jpg' height='90'> <img src='G_7.jpg' height='90'> <img src='G_2.jpg' height='90'>","null","Animation1",""
"","","","","","html-keyboard-response","99","130717","0.0-63.0","27","1","2025-02-02 03:47:21","bc01a2b6f61d06f6604adb8657495020","75.88.105.191","Mozilla/5.0 (Macintosh; Intel Mac OS X 10_15_7) AppleWebKit/605.1.15 (KHTML, like Gecko) Version/17.3.1 Safari/605.1.15","Macintosh","Safari","17.3.1","OS X","10_15_7","https://app.prolific.com/","en-US,en;q=0.9","67549868a9ea0e2c285a8f14","679edb085803f58d6bbd31ca","679ee5f3fdc71b640a413ae5","","null","<img   src='G_5.jpg' height='90'> <img id='selected'   src='G_1.jpg' height='90'> <img  src='G_6.jpg' height='90'> <img    src='G_4.jpg' height='90'> <img src='G_8.jpg' height='90'> <img src='G_3.jpg' height='90'> <img src='G_7.jpg' height='90'> <img src='G_2.jpg' height='90'>","null","Animation1",""
"","","","","","html-keyboard-response","100","131222","0.0-64.0","27","1","2025-02-02 03:47:21","bc01a2b6f61d06f6604adb8657495020","75.88.105.191","Mozilla/5.0 (Macintosh; Intel Mac OS X 10_15_7) AppleWebKit/605.1.15 (KHTML, like Gecko) Version/17.3.1 Safari/605.1.15","Macintosh","Safari","17.3.1","OS X","10_15_7","https://app.prolific.com/","en-US,en;q=0.9","67549868a9ea0e2c285a8f14","679edb085803f58d6bbd31ca","679ee5f3fdc71b640a413ae5","","null","<img   src='G_5.jpg' height='90'> <img id='selected'   src='G_1.jpg' height='90'> <img id='selected'  src='G_6.jpg' height='90'> <img    src='G_4.jpg' height='90'> <img src='G_8.jpg' height='90'> <img src='G_3.jpg' height='90'> <img src='G_7.jpg' height='90'> <img src='G_2.jpg' height='90'>","null","Animation1",""
"","","","","","html-keyboard-response","101","131729","0.0-65.0","27","1","2025-02-02 03:47:21","bc01a2b6f61d06f6604adb8657495020","75.88.105.191","Mozilla/5.0 (Macintosh; Intel Mac OS X 10_15_7) AppleWebKit/605.1.15 (KHTML, like Gecko) Version/17.3.1 Safari/605.1.15","Macintosh","Safari","17.3.1","OS X","10_15_7","https://app.prolific.com/","en-US,en;q=0.9","67549868a9ea0e2c285a8f14","679edb085803f58d6bbd31ca","679ee5f3fdc71b640a413ae5","","null","<img   src='G_5.jpg' height='90'> <img id='swapped'  src='G_6.jpg' height='90'> <img id='swapped'   src='G_1.jpg' height='90'> <img    src='G_4.jpg' height='90'> <img src='G_8.jpg' height='90'> <img src='G_3.jpg' height='90'> <img src='G_7.jpg' height='90'> <img src='G_2.jpg' height='90'>","null","Animation1",""
"","","","","","html-keyboard-response","102","132034","0.0-66.0","27","1","2025-02-02 03:47:21","bc01a2b6f61d06f6604adb8657495020","75.88.105.191","Mozilla/5.0 (Macintosh; Intel Mac OS X 10_15_7) AppleWebKit/605.1.15 (KHTML, like Gecko) Version/17.3.1 Safari/605.1.15","Macintosh","Safari","17.3.1","OS X","10_15_7","https://app.prolific.com/","en-US,en;q=0.9","67549868a9ea0e2c285a8f14","679edb085803f58d6bbd31ca","679ee5f3fdc71b640a413ae5","","null","<img   src='G_5.jpg' height='90'> <img   src='G_6.jpg' height='90'> <img    src='G_1.jpg' height='90'> <img    src='G_4.jpg' height='90'> <img src='G_8.jpg' height='90'> <img src='G_3.jpg' height='90'> <img src='G_7.jpg' height='90'> <img src='G_2.jpg' height='90'>","null","Animation1",""
"","","","","","html-keyboard-response","103","132540","0.0-67.0","27","1","2025-02-02 03:47:21","bc01a2b6f61d06f6604adb8657495020","75.88.105.191","Mozilla/5.0 (Macintosh; Intel Mac OS X 10_15_7) AppleWebKit/605.1.15 (KHTML, like Gecko) Version/17.3.1 Safari/605.1.15","Macintosh","Safari","17.3.1","OS X","10_15_7","https://app.prolific.com/","en-US,en;q=0.9","67549868a9ea0e2c285a8f14","679edb085803f58d6bbd31ca","679ee5f3fdc71b640a413ae5","","null","<img id='selected'   src='G_5.jpg' height='90'> <img   src='G_6.jpg' height='90'> <img    src='G_1.jpg' height='90'> <img    src='G_4.jpg' height='90'> <img src='G_8.jpg' height='90'> <img src='G_3.jpg' height='90'> <img src='G_7.jpg' height='90'> <img src='G_2.jpg' height='90'>","null","Animation1",""
"","","","","","html-keyboard-response","104","133047","0.0-68.0","27","1","2025-02-02 03:47:21","bc01a2b6f61d06f6604adb8657495020","75.88.105.191","Mozilla/5.0 (Macintosh; Intel Mac OS X 10_15_7) AppleWebKit/605.1.15 (KHTML, like Gecko) Version/17.3.1 Safari/605.1.15","Macintosh","Safari","17.3.1","OS X","10_15_7","https://app.prolific.com/","en-US,en;q=0.9","67549868a9ea0e2c285a8f14","679edb085803f58d6bbd31ca","679ee5f3fdc71b640a413ae5","","null","<img id='selected'   src='G_5.jpg' height='90'> <img id='selected'   src='G_6.jpg' height='90'> <img    src='G_1.jpg' height='90'> <img    src='G_4.jpg' height='90'> <img src='G_8.jpg' height='90'> <img src='G_3.jpg' height='90'> <img src='G_7.jpg' height='90'> <img src='G_2.jpg' height='90'>","null","Animation1",""
"","","","","","html-keyboard-response","105","133553","0.0-69.0","27","1","2025-02-02 03:47:21","bc01a2b6f61d06f6604adb8657495020","75.88.105.191","Mozilla/5.0 (Macintosh; Intel Mac OS X 10_15_7) AppleWebKit/605.1.15 (KHTML, like Gecko) Version/17.3.1 Safari/605.1.15","Macintosh","Safari","17.3.1","OS X","10_15_7","https://app.prolific.com/","en-US,en;q=0.9","67549868a9ea0e2c285a8f14","679edb085803f58d6bbd31ca","679ee5f3fdc71b640a413ae5","","null","<img id='swapped'   src='G_6.jpg' height='90'> <img id='swapped'   src='G_5.jpg' height='90'> <img    src='G_1.jpg' height='90'> <img    src='G_4.jpg' height='90'> <img src='G_8.jpg' height='90'> <img src='G_3.jpg' height='90'> <img src='G_7.jpg' height='90'> <img src='G_2.jpg' height='90'>","null","Animation1",""
"","","","","","html-keyboard-response","106","133860","0.0-70.0","27","1","2025-02-02 03:47:21","bc01a2b6f61d06f6604adb8657495020","75.88.105.191","Mozilla/5.0 (Macintosh; Intel Mac OS X 10_15_7) AppleWebKit/605.1.15 (KHTML, like Gecko) Version/17.3.1 Safari/605.1.15","Macintosh","Safari","17.3.1","OS X","10_15_7","https://app.prolific.com/","en-US,en;q=0.9","67549868a9ea0e2c285a8f14","679edb085803f58d6bbd31ca","679ee5f3fdc71b640a413ae5","","null","<img    src='G_6.jpg' height='90'> <img    src='G_5.jpg' height='90'> <img    src='G_1.jpg' height='90'> <img    src='G_4.jpg' height='90'> <img src='G_8.jpg' height='90'> <img src='G_3.jpg' height='90'> <img src='G_7.jpg' height='90'> <img src='G_2.jpg' height='90'>","null","Animation1",""
"","","","","","html-keyboard-response","107","134368","0.0-71.0","27","1","2025-02-02 03:47:21","bc01a2b6f61d06f6604adb8657495020","75.88.105.191","Mozilla/5.0 (Macintosh; Intel Mac OS X 10_15_7) AppleWebKit/605.1.15 (KHTML, like Gecko) Version/17.3.1 Safari/605.1.15","Macintosh","Safari","17.3.1","OS X","10_15_7","https://app.prolific.com/","en-US,en;q=0.9","67549868a9ea0e2c285a8f14","679edb085803f58d6bbd31ca","679ee5f3fdc71b640a413ae5","","null","<img    src='G_6.jpg' height='90'> <img    src='G_5.jpg' height='90'> <img    src='G_1.jpg' height='90'> <img id='selected'    src='G_4.jpg' height='90'> <img src='G_8.jpg' height='90'> <img src='G_3.jpg' height='90'> <img src='G_7.jpg' height='90'> <img src='G_2.jpg' height='90'>","null","Animation1",""
"","","","","","html-keyboard-response","108","134874","0.0-72.0","27","1","2025-02-02 03:47:21","bc01a2b6f61d06f6604adb8657495020","75.88.105.191","Mozilla/5.0 (Macintosh; Intel Mac OS X 10_15_7) AppleWebKit/605.1.15 (KHTML, like Gecko) Version/17.3.1 Safari/605.1.15","Macintosh","Safari","17.3.1","OS X","10_15_7","https://app.prolific.com/","en-US,en;q=0.9","67549868a9ea0e2c285a8f14","679edb085803f58d6bbd31ca","679ee5f3fdc71b640a413ae5","","null","<img    src='G_6.jpg' height='90'> <img    src='G_5.jpg' height='90'> <img    src='G_1.jpg' height='90'> <img id='selected'    src='G_4.jpg' height='90'> <img id='selected' src='G_8.jpg' height='90'> <img src='G_3.jpg' height='90'> <img src='G_7.jpg' height='90'> <img src='G_2.jpg' height='90'>","null","Animation1",""
"","","","","","html-keyboard-response","109","135382","0.0-73.0","27","1","2025-02-02 03:47:21","bc01a2b6f61d06f6604adb8657495020","75.88.105.191","Mozilla/5.0 (Macintosh; Intel Mac OS X 10_15_7) AppleWebKit/605.1.15 (KHTML, like Gecko) Version/17.3.1 Safari/605.1.15","Macintosh","Safari","17.3.1","OS X","10_15_7","https://app.prolific.com/","en-US,en;q=0.9","67549868a9ea0e2c285a8f14","679edb085803f58d6bbd31ca","679ee5f3fdc71b640a413ae5","","null","<img    src='G_6.jpg' height='90'> <img    src='G_5.jpg' height='90'> <img    src='G_1.jpg' height='90'> <img id='swapped' src='G_8.jpg' height='90'> <img id='swapped'    src='G_4.jpg' height='90'> <img src='G_3.jpg' height='90'> <img src='G_7.jpg' height='90'> <img src='G_2.jpg' height='90'>","null","Animation1",""
"","","","","","html-keyboard-response","110","135689","0.0-74.0","27","1","2025-02-02 03:47:21","bc01a2b6f61d06f6604adb8657495020","75.88.105.191","Mozilla/5.0 (Macintosh; Intel Mac OS X 10_15_7) AppleWebKit/605.1.15 (KHTML, like Gecko) Version/17.3.1 Safari/605.1.15","Macintosh","Safari","17.3.1","OS X","10_15_7","https://app.prolific.com/","en-US,en;q=0.9","67549868a9ea0e2c285a8f14","679edb085803f58d6bbd31ca","679ee5f3fdc71b640a413ae5","","null","<img    src='G_6.jpg' height='90'> <img    src='G_5.jpg' height='90'> <img    src='G_1.jpg' height='90'> <img  src='G_8.jpg' height='90'> <img     src='G_4.jpg' height='90'> <img src='G_3.jpg' height='90'> <img src='G_7.jpg' height='90'> <img src='G_2.jpg' height='90'>","null","Animation1",""
"","","","","","html-keyboard-response","111","136196","0.0-75.0","27","1","2025-02-02 03:47:21","bc01a2b6f61d06f6604adb8657495020","75.88.105.191","Mozilla/5.0 (Macintosh; Intel Mac OS X 10_15_7) AppleWebKit/605.1.15 (KHTML, like Gecko) Version/17.3.1 Safari/605.1.15","Macintosh","Safari","17.3.1","OS X","10_15_7","https://app.prolific.com/","en-US,en;q=0.9","67549868a9ea0e2c285a8f14","679edb085803f58d6bbd31ca","679ee5f3fdc71b640a413ae5","","null","<img    src='G_6.jpg' height='90'> <img    src='G_5.jpg' height='90'> <img id='selected'    src='G_1.jpg' height='90'> <img  src='G_8.jpg' height='90'> <img     src='G_4.jpg' height='90'> <img src='G_3.jpg' height='90'> <img src='G_7.jpg' height='90'> <img src='G_2.jpg' height='90'>","null","Animation1",""
"","","","","","html-keyboard-response","112","136704","0.0-76.0","27","1","2025-02-02 03:47:21","bc01a2b6f61d06f6604adb8657495020","75.88.105.191","Mozilla/5.0 (Macintosh; Intel Mac OS X 10_15_7) AppleWebKit/605.1.15 (KHTML, like Gecko) Version/17.3.1 Safari/605.1.15","Macintosh","Safari","17.3.1","OS X","10_15_7","https://app.prolific.com/","en-US,en;q=0.9","67549868a9ea0e2c285a8f14","679edb085803f58d6bbd31ca","679ee5f3fdc71b640a413ae5","","null","<img    src='G_6.jpg' height='90'> <img    src='G_5.jpg' height='90'> <img id='selected'    src='G_1.jpg' height='90'> <img id='selected'  src='G_8.jpg' height='90'> <img     src='G_4.jpg' height='90'> <img src='G_3.jpg' height='90'> <img src='G_7.jpg' height='90'> <img src='G_2.jpg' height='90'>","null","Animation1",""
"","","","","","html-keyboard-response","113","137211","0.0-77.0","27","1","2025-02-02 03:47:21","bc01a2b6f61d06f6604adb8657495020","75.88.105.191","Mozilla/5.0 (Macintosh; Intel Mac OS X 10_15_7) AppleWebKit/605.1.15 (KHTML, like Gecko) Version/17.3.1 Safari/605.1.15","Macintosh","Safari","17.3.1","OS X","10_15_7","https://app.prolific.com/","en-US,en;q=0.9","67549868a9ea0e2c285a8f14","679edb085803f58d6bbd31ca","679ee5f3fdc71b640a413ae5","","null","<img    src='G_6.jpg' height='90'> <img    src='G_5.jpg' height='90'> <img id='swapped'  src='G_8.jpg' height='90'> <img id='swapped'    src='G_1.jpg' height='90'> <img     src='G_4.jpg' height='90'> <img src='G_3.jpg' height='90'> <img src='G_7.jpg' height='90'> <img src='G_2.jpg' height='90'>","null","Animation1",""
"","","","","","html-keyboard-response","114","137518","0.0-78.0","27","1","2025-02-02 03:47:21","bc01a2b6f61d06f6604adb8657495020","75.88.105.191","Mozilla/5.0 (Macintosh; Intel Mac OS X 10_15_7) AppleWebKit/605.1.15 (KHTML, like Gecko) Version/17.3.1 Safari/605.1.15","Macintosh","Safari","17.3.1","OS X","10_15_7","https://app.prolific.com/","en-US,en;q=0.9","67549868a9ea0e2c285a8f14","679edb085803f58d6bbd31ca","679ee5f3fdc71b640a413ae5","","null","<img    src='G_6.jpg' height='90'> <img    src='G_5.jpg' height='90'> <img   src='G_8.jpg' height='90'> <img     src='G_1.jpg' height='90'> <img     src='G_4.jpg' height='90'> <img src='G_3.jpg' height='90'> <img src='G_7.jpg' height='90'> <img src='G_2.jpg' height='90'>","null","Animation1",""
"","","","","","html-keyboard-response","115","138025","0.0-79.0","27","1","2025-02-02 03:47:21","bc01a2b6f61d06f6604adb8657495020","75.88.105.191","Mozilla/5.0 (Macintosh; Intel Mac OS X 10_15_7) AppleWebKit/605.1.15 (KHTML, like Gecko) Version/17.3.1 Safari/605.1.15","Macintosh","Safari","17.3.1","OS X","10_15_7","https://app.prolific.com/","en-US,en;q=0.9","67549868a9ea0e2c285a8f14","679edb085803f58d6bbd31ca","679ee5f3fdc71b640a413ae5","","null","<img    src='G_6.jpg' height='90'> <img id='selected'    src='G_5.jpg' height='90'> <img   src='G_8.jpg' height='90'> <img     src='G_1.jpg' height='90'> <img     src='G_4.jpg' height='90'> <img src='G_3.jpg' height='90'> <img src='G_7.jpg' height='90'> <img src='G_2.jpg' height='90'>","null","Animation1",""
"","","","","","html-keyboard-response","116","138529","0.0-80.0","27","1","2025-02-02 03:47:21","bc01a2b6f61d06f6604adb8657495020","75.88.105.191","Mozilla/5.0 (Macintosh; Intel Mac OS X 10_15_7) AppleWebKit/605.1.15 (KHTML, like Gecko) Version/17.3.1 Safari/605.1.15","Macintosh","Safari","17.3.1","OS X","10_15_7","https://app.prolific.com/","en-US,en;q=0.9","67549868a9ea0e2c285a8f14","679edb085803f58d6bbd31ca","679ee5f3fdc71b640a413ae5","","null","<img    src='G_6.jpg' height='90'> <img id='selected'    src='G_5.jpg' height='90'> <img id='selected'   src='G_8.jpg' height='90'> <img     src='G_1.jpg' height='90'> <img     src='G_4.jpg' height='90'> <img src='G_3.jpg' height='90'> <img src='G_7.jpg' height='90'> <img src='G_2.jpg' height='90'>","null","Animation1",""
"","","","","","html-keyboard-response","117","139037","0.0-81.0","27","1","2025-02-02 03:47:21","bc01a2b6f61d06f6604adb8657495020","75.88.105.191","Mozilla/5.0 (Macintosh; Intel Mac OS X 10_15_7) AppleWebKit/605.1.15 (KHTML, like Gecko) Version/17.3.1 Safari/605.1.15","Macintosh","Safari","17.3.1","OS X","10_15_7","https://app.prolific.com/","en-US,en;q=0.9","67549868a9ea0e2c285a8f14","679edb085803f58d6bbd31ca","679ee5f3fdc71b640a413ae5","","null","<img    src='G_6.jpg' height='90'> <img id='swapped'   src='G_8.jpg' height='90'> <img id='swapped'    src='G_5.jpg' height='90'> <img     src='G_1.jpg' height='90'> <img     src='G_4.jpg' height='90'> <img src='G_3.jpg' height='90'> <img src='G_7.jpg' height='90'> <img src='G_2.jpg' height='90'>","null","Animation1",""
"","","","","","html-keyboard-response","118","139345","0.0-82.0","27","1","2025-02-02 03:47:21","bc01a2b6f61d06f6604adb8657495020","75.88.105.191","Mozilla/5.0 (Macintosh; Intel Mac OS X 10_15_7) AppleWebKit/605.1.15 (KHTML, like Gecko) Version/17.3.1 Safari/605.1.15","Macintosh","Safari","17.3.1","OS X","10_15_7","https://app.prolific.com/","en-US,en;q=0.9","67549868a9ea0e2c285a8f14","679edb085803f58d6bbd31ca","679ee5f3fdc71b640a413ae5","","null","<img    src='G_6.jpg' height='90'> <img    src='G_8.jpg' height='90'> <img     src='G_5.jpg' height='90'> <img     src='G_1.jpg' height='90'> <img     src='G_4.jpg' height='90'> <img src='G_3.jpg' height='90'> <img src='G_7.jpg' height='90'> <img src='G_2.jpg' height='90'>","null","Animation1",""
"","","","","","html-keyboard-response","119","139852","0.0-83.0","27","1","2025-02-02 03:47:21","bc01a2b6f61d06f6604adb8657495020","75.88.105.191","Mozilla/5.0 (Macintosh; Intel Mac OS X 10_15_7) AppleWebKit/605.1.15 (KHTML, like Gecko) Version/17.3.1 Safari/605.1.15","Macintosh","Safari","17.3.1","OS X","10_15_7","https://app.prolific.com/","en-US,en;q=0.9","67549868a9ea0e2c285a8f14","679edb085803f58d6bbd31ca","679ee5f3fdc71b640a413ae5","","null","<img id='selected'    src='G_6.jpg' height='90'> <img    src='G_8.jpg' height='90'> <img     src='G_5.jpg' height='90'> <img     src='G_1.jpg' height='90'> <img     src='G_4.jpg' height='90'> <img src='G_3.jpg' height='90'> <img src='G_7.jpg' height='90'> <img src='G_2.jpg' height='90'>","null","Animation1",""
"","","","","","html-keyboard-response","120","140359","0.0-84.0","27","1","2025-02-02 03:47:21","bc01a2b6f61d06f6604adb8657495020","75.88.105.191","Mozilla/5.0 (Macintosh; Intel Mac OS X 10_15_7) AppleWebKit/605.1.15 (KHTML, like Gecko) Version/17.3.1 Safari/605.1.15","Macintosh","Safari","17.3.1","OS X","10_15_7","https://app.prolific.com/","en-US,en;q=0.9","67549868a9ea0e2c285a8f14","679edb085803f58d6bbd31ca","679ee5f3fdc71b640a413ae5","","null","<img id='selected'    src='G_6.jpg' height='90'> <img id='selected'    src='G_8.jpg' height='90'> <img     src='G_5.jpg' height='90'> <img     src='G_1.jpg' height='90'> <img     src='G_4.jpg' height='90'> <img src='G_3.jpg' height='90'> <img src='G_7.jpg' height='90'> <img src='G_2.jpg' height='90'>","null","Animation1",""
"","","","","","html-keyboard-response","121","140867","0.0-85.0","27","1","2025-02-02 03:47:21","bc01a2b6f61d06f6604adb8657495020","75.88.105.191","Mozilla/5.0 (Macintosh; Intel Mac OS X 10_15_7) AppleWebKit/605.1.15 (KHTML, like Gecko) Version/17.3.1 Safari/605.1.15","Macintosh","Safari","17.3.1","OS X","10_15_7","https://app.prolific.com/","en-US,en;q=0.9","67549868a9ea0e2c285a8f14","679edb085803f58d6bbd31ca","679ee5f3fdc71b640a413ae5","","null","<img id='selected'    src='G_6.jpg' height='90'> <img id='selected'    src='G_8.jpg' height='90'> <img     src='G_5.jpg' height='90'> <img     src='G_1.jpg' height='90'> <img     src='G_4.jpg' height='90'> <img src='G_3.jpg' height='90'> <img src='G_7.jpg' height='90'> <img src='G_2.jpg' height='90'>","null","Animation1",""
"","","","","","html-keyboard-response","122","141174","0.0-86.0","27","1","2025-02-02 03:47:21","bc01a2b6f61d06f6604adb8657495020","75.88.105.191","Mozilla/5.0 (Macintosh; Intel Mac OS X 10_15_7) AppleWebKit/605.1.15 (KHTML, like Gecko) Version/17.3.1 Safari/605.1.15","Macintosh","Safari","17.3.1","OS X","10_15_7","https://app.prolific.com/","en-US,en;q=0.9","67549868a9ea0e2c285a8f14","679edb085803f58d6bbd31ca","679ee5f3fdc71b640a413ae5","","null","<img     src='G_6.jpg' height='90'> <img     src='G_8.jpg' height='90'> <img     src='G_5.jpg' height='90'> <img     src='G_1.jpg' height='90'> <img     src='G_4.jpg' height='90'> <img src='G_3.jpg' height='90'> <img src='G_7.jpg' height='90'> <img src='G_2.jpg' height='90'>","null","Animation1",""
"","","","","","html-keyboard-response","123","141682","0.0-87.0","27","1","2025-02-02 03:47:21","bc01a2b6f61d06f6604adb8657495020","75.88.105.191","Mozilla/5.0 (Macintosh; Intel Mac OS X 10_15_7) AppleWebKit/605.1.15 (KHTML, like Gecko) Version/17.3.1 Safari/605.1.15","Macintosh","Safari","17.3.1","OS X","10_15_7","https://app.prolific.com/","en-US,en;q=0.9","67549868a9ea0e2c285a8f14","679edb085803f58d6bbd31ca","679ee5f3fdc71b640a413ae5","","null","<img     src='G_6.jpg' height='90'> <img     src='G_8.jpg' height='90'> <img     src='G_5.jpg' height='90'> <img     src='G_1.jpg' height='90'> <img id='selected'     src='G_4.jpg' height='90'> <img src='G_3.jpg' height='90'> <img src='G_7.jpg' height='90'> <img src='G_2.jpg' height='90'>","null","Animation1",""
"","","","","","html-keyboard-response","124","142190","0.0-88.0","27","1","2025-02-02 03:47:21","bc01a2b6f61d06f6604adb8657495020","75.88.105.191","Mozilla/5.0 (Macintosh; Intel Mac OS X 10_15_7) AppleWebKit/605.1.15 (KHTML, like Gecko) Version/17.3.1 Safari/605.1.15","Macintosh","Safari","17.3.1","OS X","10_15_7","https://app.prolific.com/","en-US,en;q=0.9","67549868a9ea0e2c285a8f14","679edb085803f58d6bbd31ca","679ee5f3fdc71b640a413ae5","","null","<img     src='G_6.jpg' height='90'> <img     src='G_8.jpg' height='90'> <img     src='G_5.jpg' height='90'> <img     src='G_1.jpg' height='90'> <img id='selected'     src='G_4.jpg' height='90'> <img id='selected' src='G_3.jpg' height='90'> <img src='G_7.jpg' height='90'> <img src='G_2.jpg' height='90'>","null","Animation1",""
"","","","","","html-keyboard-response","125","142697","0.0-89.0","27","1","2025-02-02 03:47:21","bc01a2b6f61d06f6604adb8657495020","75.88.105.191","Mozilla/5.0 (Macintosh; Intel Mac OS X 10_15_7) AppleWebKit/605.1.15 (KHTML, like Gecko) Version/17.3.1 Safari/605.1.15","Macintosh","Safari","17.3.1","OS X","10_15_7","https://app.prolific.com/","en-US,en;q=0.9","67549868a9ea0e2c285a8f14","679edb085803f58d6bbd31ca","679ee5f3fdc71b640a413ae5","","null","<img     src='G_6.jpg' height='90'> <img     src='G_8.jpg' height='90'> <img     src='G_5.jpg' height='90'> <img     src='G_1.jpg' height='90'> <img id='swapped' src='G_3.jpg' height='90'> <img id='swapped'     src='G_4.jpg' height='90'> <img src='G_7.jpg' height='90'> <img src='G_2.jpg' height='90'>","null","Animation1",""
"","","","","","html-keyboard-response","126","143005","0.0-90.0","27","1","2025-02-02 03:47:21","bc01a2b6f61d06f6604adb8657495020","75.88.105.191","Mozilla/5.0 (Macintosh; Intel Mac OS X 10_15_7) AppleWebKit/605.1.15 (KHTML, like Gecko) Version/17.3.1 Safari/605.1.15","Macintosh","Safari","17.3.1","OS X","10_15_7","https://app.prolific.com/","en-US,en;q=0.9","67549868a9ea0e2c285a8f14","679edb085803f58d6bbd31ca","679ee5f3fdc71b640a413ae5","","null","<img     src='G_6.jpg' height='90'> <img     src='G_8.jpg' height='90'> <img     src='G_5.jpg' height='90'> <img     src='G_1.jpg' height='90'> <img  src='G_3.jpg' height='90'> <img      src='G_4.jpg' height='90'> <img src='G_7.jpg' height='90'> <img src='G_2.jpg' height='90'>","null","Animation1",""
"","","","","","html-keyboard-response","127","143510","0.0-91.0","27","1","2025-02-02 03:47:21","bc01a2b6f61d06f6604adb8657495020","75.88.105.191","Mozilla/5.0 (Macintosh; Intel Mac OS X 10_15_7) AppleWebKit/605.1.15 (KHTML, like Gecko) Version/17.3.1 Safari/605.1.15","Macintosh","Safari","17.3.1","OS X","10_15_7","https://app.prolific.com/","en-US,en;q=0.9","67549868a9ea0e2c285a8f14","679edb085803f58d6bbd31ca","679ee5f3fdc71b640a413ae5","","null","<img     src='G_6.jpg' height='90'> <img     src='G_8.jpg' height='90'> <img     src='G_5.jpg' height='90'> <img id='selected'     src='G_1.jpg' height='90'> <img  src='G_3.jpg' height='90'> <img      src='G_4.jpg' height='90'> <img src='G_7.jpg' height='90'> <img src='G_2.jpg' height='90'>","null","Animation1",""
"","","","","","html-keyboard-response","128","144015","0.0-92.0","27","1","2025-02-02 03:47:21","bc01a2b6f61d06f6604adb8657495020","75.88.105.191","Mozilla/5.0 (Macintosh; Intel Mac OS X 10_15_7) AppleWebKit/605.1.15 (KHTML, like Gecko) Version/17.3.1 Safari/605.1.15","Macintosh","Safari","17.3.1","OS X","10_15_7","https://app.prolific.com/","en-US,en;q=0.9","67549868a9ea0e2c285a8f14","679edb085803f58d6bbd31ca","679ee5f3fdc71b640a413ae5","","null","<img     src='G_6.jpg' height='90'> <img     src='G_8.jpg' height='90'> <img     src='G_5.jpg' height='90'> <img id='selected'     src='G_1.jpg' height='90'> <img id='selected'  src='G_3.jpg' height='90'> <img      src='G_4.jpg' height='90'> <img src='G_7.jpg' height='90'> <img src='G_2.jpg' height='90'>","null","Animation1",""
"","","","","","html-keyboard-response","129","144520","0.0-93.0","27","1","2025-02-02 03:47:21","bc01a2b6f61d06f6604adb8657495020","75.88.105.191","Mozilla/5.0 (Macintosh; Intel Mac OS X 10_15_7) AppleWebKit/605.1.15 (KHTML, like Gecko) Version/17.3.1 Safari/605.1.15","Macintosh","Safari","17.3.1","OS X","10_15_7","https://app.prolific.com/","en-US,en;q=0.9","67549868a9ea0e2c285a8f14","679edb085803f58d6bbd31ca","679ee5f3fdc71b640a413ae5","","null","<img     src='G_6.jpg' height='90'> <img     src='G_8.jpg' height='90'> <img     src='G_5.jpg' height='90'> <img id='selected'     src='G_1.jpg' height='90'> <img id='selected'  src='G_3.jpg' height='90'> <img      src='G_4.jpg' height='90'> <img src='G_7.jpg' height='90'> <img src='G_2.jpg' height='90'>","null","Animation1",""
"","","","","","html-keyboard-response","130","144828","0.0-94.0","27","1","2025-02-02 03:47:21","bc01a2b6f61d06f6604adb8657495020","75.88.105.191","Mozilla/5.0 (Macintosh; Intel Mac OS X 10_15_7) AppleWebKit/605.1.15 (KHTML, like Gecko) Version/17.3.1 Safari/605.1.15","Macintosh","Safari","17.3.1","OS X","10_15_7","https://app.prolific.com/","en-US,en;q=0.9","67549868a9ea0e2c285a8f14","679edb085803f58d6bbd31ca","679ee5f3fdc71b640a413ae5","","null","<img     src='G_6.jpg' height='90'> <img     src='G_8.jpg' height='90'> <img     src='G_5.jpg' height='90'> <img      src='G_1.jpg' height='90'> <img   src='G_3.jpg' height='90'> <img      src='G_4.jpg' height='90'> <img src='G_7.jpg' height='90'> <img src='G_2.jpg' height='90'>","null","Animation1",""
"","","","","","html-keyboard-response","131","145337","0.0-95.0","27","1","2025-02-02 03:47:21","bc01a2b6f61d06f6604adb8657495020","75.88.105.191","Mozilla/5.0 (Macintosh; Intel Mac OS X 10_15_7) AppleWebKit/605.1.15 (KHTML, like Gecko) Version/17.3.1 Safari/605.1.15","Macintosh","Safari","17.3.1","OS X","10_15_7","https://app.prolific.com/","en-US,en;q=0.9","67549868a9ea0e2c285a8f14","679edb085803f58d6bbd31ca","679ee5f3fdc71b640a413ae5","","null","<img     src='G_6.jpg' height='90'> <img     src='G_8.jpg' height='90'> <img     src='G_5.jpg' height='90'> <img      src='G_1.jpg' height='90'> <img   src='G_3.jpg' height='90'> <img id='selected'      src='G_4.jpg' height='90'> <img src='G_7.jpg' height='90'> <img src='G_2.jpg' height='90'>","null","Animation1",""
"","","","","","html-keyboard-response","132","145845","0.0-96.0","27","1","2025-02-02 03:47:21","bc01a2b6f61d06f6604adb8657495020","75.88.105.191","Mozilla/5.0 (Macintosh; Intel Mac OS X 10_15_7) AppleWebKit/605.1.15 (KHTML, like Gecko) Version/17.3.1 Safari/605.1.15","Macintosh","Safari","17.3.1","OS X","10_15_7","https://app.prolific.com/","en-US,en;q=0.9","67549868a9ea0e2c285a8f14","679edb085803f58d6bbd31ca","679ee5f3fdc71b640a413ae5","","null","<img     src='G_6.jpg' height='90'> <img     src='G_8.jpg' height='90'> <img     src='G_5.jpg' height='90'> <img      src='G_1.jpg' height='90'> <img   src='G_3.jpg' height='90'> <img id='selected'      src='G_4.jpg' height='90'> <img id='selected' src='G_7.jpg' height='90'> <img src='G_2.jpg' height='90'>","null","Animation1",""
"","","","","","html-keyboard-response","133","146353","0.0-97.0","27","1","2025-02-02 03:47:21","bc01a2b6f61d06f6604adb8657495020","75.88.105.191","Mozilla/5.0 (Macintosh; Intel Mac OS X 10_15_7) AppleWebKit/605.1.15 (KHTML, like Gecko) Version/17.3.1 Safari/605.1.15","Macintosh","Safari","17.3.1","OS X","10_15_7","https://app.prolific.com/","en-US,en;q=0.9","67549868a9ea0e2c285a8f14","679edb085803f58d6bbd31ca","679ee5f3fdc71b640a413ae5","","null","<img     src='G_6.jpg' height='90'> <img     src='G_8.jpg' height='90'> <img     src='G_5.jpg' height='90'> <img      src='G_1.jpg' height='90'> <img   src='G_3.jpg' height='90'> <img id='selected'      src='G_4.jpg' height='90'> <img id='selected' src='G_7.jpg' height='90'> <img src='G_2.jpg' height='90'>","null","Animation1",""
"","","","","","html-keyboard-response","134","146660","0.0-98.0","27","1","2025-02-02 03:47:21","bc01a2b6f61d06f6604adb8657495020","75.88.105.191","Mozilla/5.0 (Macintosh; Intel Mac OS X 10_15_7) AppleWebKit/605.1.15 (KHTML, like Gecko) Version/17.3.1 Safari/605.1.15","Macintosh","Safari","17.3.1","OS X","10_15_7","https://app.prolific.com/","en-US,en;q=0.9","67549868a9ea0e2c285a8f14","679edb085803f58d6bbd31ca","679ee5f3fdc71b640a413ae5","","null","<img     src='G_6.jpg' height='90'> <img     src='G_8.jpg' height='90'> <img     src='G_5.jpg' height='90'> <img      src='G_1.jpg' height='90'> <img   src='G_3.jpg' height='90'> <img       src='G_4.jpg' height='90'> <img  src='G_7.jpg' height='90'> <img src='G_2.jpg' height='90'>","null","Animation1",""
"","","","","","html-keyboard-response","135","147169","0.0-99.0","27","1","2025-02-02 03:47:21","bc01a2b6f61d06f6604adb8657495020","75.88.105.191","Mozilla/5.0 (Macintosh; Intel Mac OS X 10_15_7) AppleWebKit/605.1.15 (KHTML, like Gecko) Version/17.3.1 Safari/605.1.15","Macintosh","Safari","17.3.1","OS X","10_15_7","https://app.prolific.com/","en-US,en;q=0.9","67549868a9ea0e2c285a8f14","679edb085803f58d6bbd31ca","679ee5f3fdc71b640a413ae5","","null","<img     src='G_6.jpg' height='90'> <img     src='G_8.jpg' height='90'> <img     src='G_5.jpg' height='90'> <img      src='G_1.jpg' height='90'> <img   src='G_3.jpg' height='90'> <img       src='G_4.jpg' height='90'> <img id='selected'  src='G_7.jpg' height='90'> <img src='G_2.jpg' height='90'>","null","Animation1",""
"","","","","","html-keyboard-response","136","147677","0.0-100.0","27","1","2025-02-02 03:47:21","bc01a2b6f61d06f6604adb8657495020","75.88.105.191","Mozilla/5.0 (Macintosh; Intel Mac OS X 10_15_7) AppleWebKit/605.1.15 (KHTML, like Gecko) Version/17.3.1 Safari/605.1.15","Macintosh","Safari","17.3.1","OS X","10_15_7","https://app.prolific.com/","en-US,en;q=0.9","67549868a9ea0e2c285a8f14","679edb085803f58d6bbd31ca","679ee5f3fdc71b640a413ae5","","null","<img     src='G_6.jpg' height='90'> <img     src='G_8.jpg' height='90'> <img     src='G_5.jpg' height='90'> <img      src='G_1.jpg' height='90'> <img   src='G_3.jpg' height='90'> <img       src='G_4.jpg' height='90'> <img id='selected'  src='G_7.jpg' height='90'> <img id='selected' src='G_2.jpg' height='90'>","null","Animation1",""
"","","","","","html-keyboard-response","137","148184","0.0-101.0","27","1","2025-02-02 03:47:21","bc01a2b6f61d06f6604adb8657495020","75.88.105.191","Mozilla/5.0 (Macintosh; Intel Mac OS X 10_15_7) AppleWebKit/605.1.15 (KHTML, like Gecko) Version/17.3.1 Safari/605.1.15","Macintosh","Safari","17.3.1","OS X","10_15_7","https://app.prolific.com/","en-US,en;q=0.9","67549868a9ea0e2c285a8f14","679edb085803f58d6bbd31ca","679ee5f3fdc71b640a413ae5","","null","<img     src='G_6.jpg' height='90'> <img     src='G_8.jpg' height='90'> <img     src='G_5.jpg' height='90'> <img      src='G_1.jpg' height='90'> <img   src='G_3.jpg' height='90'> <img       src='G_4.jpg' height='90'> <img id='swapped' src='G_2.jpg' height='90'> <img id='swapped'  src='G_7.jpg' height='90'>","null","Animation1",""
"","","","","","html-keyboard-response","138","148491","0.0-102.0","27","1","2025-02-02 03:47:21","bc01a2b6f61d06f6604adb8657495020","75.88.105.191","Mozilla/5.0 (Macintosh; Intel Mac OS X 10_15_7) AppleWebKit/605.1.15 (KHTML, like Gecko) Version/17.3.1 Safari/605.1.15","Macintosh","Safari","17.3.1","OS X","10_15_7","https://app.prolific.com/","en-US,en;q=0.9","67549868a9ea0e2c285a8f14","679edb085803f58d6bbd31ca","679ee5f3fdc71b640a413ae5","","null","<img     src='G_6.jpg' height='90'> <img     src='G_8.jpg' height='90'> <img     src='G_5.jpg' height='90'> <img      src='G_1.jpg' height='90'> <img   src='G_3.jpg' height='90'> <img       src='G_4.jpg' height='90'> <img  src='G_2.jpg' height='90'> <img   src='G_7.jpg' height='90'>","null","Animation1",""
"","","","","","html-keyboard-response","139","149000","0.0-103.0","27","1","2025-02-02 03:47:21","bc01a2b6f61d06f6604adb8657495020","75.88.105.191","Mozilla/5.0 (Macintosh; Intel Mac OS X 10_15_7) AppleWebKit/605.1.15 (KHTML, like Gecko) Version/17.3.1 Safari/605.1.15","Macintosh","Safari","17.3.1","OS X","10_15_7","https://app.prolific.com/","en-US,en;q=0.9","67549868a9ea0e2c285a8f14","679edb085803f58d6bbd31ca","679ee5f3fdc71b640a413ae5","","null","<img     src='G_6.jpg' height='90'> <img     src='G_8.jpg' height='90'> <img     src='G_5.jpg' height='90'> <img      src='G_1.jpg' height='90'> <img   src='G_3.jpg' height='90'> <img id='selected'       src='G_4.jpg' height='90'> <img  src='G_2.jpg' height='90'> <img   src='G_7.jpg' height='90'>","null","Animation1",""
"","","","","","html-keyboard-response","140","149508","0.0-104.0","27","1","2025-02-02 03:47:21","bc01a2b6f61d06f6604adb8657495020","75.88.105.191","Mozilla/5.0 (Macintosh; Intel Mac OS X 10_15_7) AppleWebKit/605.1.15 (KHTML, like Gecko) Version/17.3.1 Safari/605.1.15","Macintosh","Safari","17.3.1","OS X","10_15_7","https://app.prolific.com/","en-US,en;q=0.9","67549868a9ea0e2c285a8f14","679edb085803f58d6bbd31ca","679ee5f3fdc71b640a413ae5","","null","<img     src='G_6.jpg' height='90'> <img     src='G_8.jpg' height='90'> <img     src='G_5.jpg' height='90'> <img      src='G_1.jpg' height='90'> <img   src='G_3.jpg' height='90'> <img id='selected'       src='G_4.jpg' height='90'> <img id='selected'  src='G_2.jpg' height='90'> <img   src='G_7.jpg' height='90'>","null","Animation1",""
"","","","","","html-keyboard-response","141","150017","0.0-105.0","27","1","2025-02-02 03:47:21","bc01a2b6f61d06f6604adb8657495020","75.88.105.191","Mozilla/5.0 (Macintosh; Intel Mac OS X 10_15_7) AppleWebKit/605.1.15 (KHTML, like Gecko) Version/17.3.1 Safari/605.1.15","Macintosh","Safari","17.3.1","OS X","10_15_7","https://app.prolific.com/","en-US,en;q=0.9","67549868a9ea0e2c285a8f14","679edb085803f58d6bbd31ca","679ee5f3fdc71b640a413ae5","","null","<img     src='G_6.jpg' height='90'> <img     src='G_8.jpg' height='90'> <img     src='G_5.jpg' height='90'> <img      src='G_1.jpg' height='90'> <img   src='G_3.jpg' height='90'> <img id='selected'       src='G_4.jpg' height='90'> <img id='selected'  src='G_2.jpg' height='90'> <img   src='G_7.jpg' height='90'>","null","Animation1",""
"","","","","","html-keyboard-response","142","150325","0.0-106.0","27","1","2025-02-02 03:47:21","bc01a2b6f61d06f6604adb8657495020","75.88.105.191","Mozilla/5.0 (Macintosh; Intel Mac OS X 10_15_7) AppleWebKit/605.1.15 (KHTML, like Gecko) Version/17.3.1 Safari/605.1.15","Macintosh","Safari","17.3.1","OS X","10_15_7","https://app.prolific.com/","en-US,en;q=0.9","67549868a9ea0e2c285a8f14","679edb085803f58d6bbd31ca","679ee5f3fdc71b640a413ae5","","null","<img     src='G_6.jpg' height='90'> <img     src='G_8.jpg' height='90'> <img     src='G_5.jpg' height='90'> <img      src='G_1.jpg' height='90'> <img   src='G_3.jpg' height='90'> <img        src='G_4.jpg' height='90'> <img   src='G_2.jpg' height='90'> <img   src='G_7.jpg' height='90'>","null","Animation1",""
"","","","","","html-keyboard-response","143","159079","0.0-107.0","27","1","2025-02-02 03:47:21","bc01a2b6f61d06f6604adb8657495020","75.88.105.191","Mozilla/5.0 (Macintosh; Intel Mac OS X 10_15_7) AppleWebKit/605.1.15 (KHTML, like Gecko) Version/17.3.1 Safari/605.1.15","Macintosh","Safari","17.3.1","OS X","10_15_7","https://app.prolific.com/","en-US,en;q=0.9","67549868a9ea0e2c285a8f14","679edb085803f58d6bbd31ca","679ee5f3fdc71b640a413ae5","","8746","[""Did you notice any patterns? <br><br>Press Enter to watch that example again and follow the steps of Omgne Sort.""]","enter","",""
"","","","","","html-button-response","144","159488","0.0-108.0","27","1","2025-02-02 03:47:21","bc01a2b6f61d06f6604adb8657495020","75.88.105.191","Mozilla/5.0 (Macintosh; Intel Mac OS X 10_15_7) AppleWebKit/605.1.15 (KHTML, like Gecko) Version/17.3.1 Safari/605.1.15","Macintosh","Safari","17.3.1","OS X","10_15_7","https://app.prolific.com/","en-US,en;q=0.9","67549868a9ea0e2c285a8f14","679edb085803f58d6bbd31ca","679ee5f3fdc71b640a413ae5","","null","<img id='selected' src='G_1.jpg' height='90'> <img src='G_4.jpg' height='90'> <img src='G_5.jpg' height='90'> <img src='G_6.jpg' height='90'> <img src='G_8.jpg' height='90'> <img src='G_3.jpg' height='90'> <img src='G_7.jpg' height='90'> <img src='G_2.jpg' height='90'>","null","Learning example 1",""
"","","","","","html-button-response","145","159798","0.0-109.0","27","1","2025-02-02 03:47:21","bc01a2b6f61d06f6604adb8657495020","75.88.105.191","Mozilla/5.0 (Macintosh; Intel Mac OS X 10_15_7) AppleWebKit/605.1.15 (KHTML, like Gecko) Version/17.3.1 Safari/605.1.15","Macintosh","Safari","17.3.1","OS X","10_15_7","https://app.prolific.com/","en-US,en;q=0.9","67549868a9ea0e2c285a8f14","679edb085803f58d6bbd31ca","679ee5f3fdc71b640a413ae5","","null","<img id='selected' src='G_1.jpg' height='90'> <img id='selected' src='G_4.jpg' height='90'> <img src='G_5.jpg' height='90'> <img src='G_6.jpg' height='90'> <img src='G_8.jpg' height='90'> <img src='G_3.jpg' height='90'> <img src='G_7.jpg' height='90'> <img src='G_2.jpg' height='90'>","null","Learning example 1",""
"","","","","","html-button-response","146","160107","0.0-110.0","27","1","2025-02-02 03:47:21","bc01a2b6f61d06f6604adb8657495020","75.88.105.191","Mozilla/5.0 (Macintosh; Intel Mac OS X 10_15_7) AppleWebKit/605.1.15 (KHTML, like Gecko) Version/17.3.1 Safari/605.1.15","Macintosh","Safari","17.3.1","OS X","10_15_7","https://app.prolific.com/","en-US,en;q=0.9","67549868a9ea0e2c285a8f14","679edb085803f58d6bbd31ca","679ee5f3fdc71b640a413ae5","","null","<img id='selected' src='G_1.jpg' height='90'> <img id='selected' src='G_4.jpg' height='90'> <img src='G_5.jpg' height='90'> <img src='G_6.jpg' height='90'> <img src='G_8.jpg' height='90'> <img src='G_3.jpg' height='90'> <img src='G_7.jpg' height='90'> <img src='G_2.jpg' height='90'>","null","Learning example 1",""
"","","","","","html-button-response","147","168196","0.0-111.0-0.0-0.0","27","1","2025-02-02 03:47:21","bc01a2b6f61d06f6604adb8657495020","75.88.105.191","Mozilla/5.0 (Macintosh; Intel Mac OS X 10_15_7) AppleWebKit/605.1.15 (KHTML, like Gecko) Version/17.3.1 Safari/605.1.15","Macintosh","Safari","17.3.1","OS X","10_15_7","https://app.prolific.com/","en-US,en;q=0.9","67549868a9ea0e2c285a8f14","679edb085803f58d6bbd31ca","679ee5f3fdc71b640a413ae5","","8084","<img id='selected' src='G_1.jpg' height='90'> <img id='selected' src='G_4.jpg' height='90'> <img src='G_5.jpg' height='90'> <img src='G_6.jpg' height='90'> <img src='G_8.jpg' height='90'> <img src='G_3.jpg' height='90'> <img src='G_7.jpg' height='90'> <img src='G_2.jpg' height='90'>","0","Learning example 1",""
"","","","","","html-button-response","148","168886","0.0-111.1-0.1-0.1","27","1","2025-02-02 03:47:21","bc01a2b6f61d06f6604adb8657495020","75.88.105.191","Mozilla/5.0 (Macintosh; Intel Mac OS X 10_15_7) AppleWebKit/605.1.15 (KHTML, like Gecko) Version/17.3.1 Safari/605.1.15","Macintosh","Safari","17.3.1","OS X","10_15_7","https://app.prolific.com/","en-US,en;q=0.9","67549868a9ea0e2c285a8f14","679edb085803f58d6bbd31ca","679ee5f3fdc71b640a413ae5","","686","<img id='selected' src='G_1.jpg' height='90'> <img id='selected' src='G_4.jpg' height='90'> <img src='G_5.jpg' height='90'> <img src='G_6.jpg' height='90'> <img src='G_8.jpg' height='90'> <img src='G_3.jpg' height='90'> <img src='G_7.jpg' height='90'> <img src='G_2.jpg' height='90'>","1","Learning example 1",""
