"success","timeout","failed_images","failed_audio","failed_video","trial_type","trial_index","time_elapsed","internal_node_id","run_id","condition","recorded_at","source_code_version","ip","user_agent","device","browser","browser_version","platform","platform_version","referer","accept_language","PROLIFIC_PID","STUDY_ID","SESSION_ID","view_history","rt","stimulus","response","phase","question_order","presented_choices"
"true","false","[]","[]","[]","preload","0","581","0.0-0.0","28","1","2025-02-02 03:47:45","bc01a2b6f61d06f6604adb8657495020","12.74.236.119","Mozilla/5.0 (Windows NT 10.0; Win64; x64) AppleWebKit/537.36 (KHTML, like Gecko) Chrome/132.0.0.0 Safari/537.36 Edg/132.0.0.0","WebKit","Edge","132.0.0.0","Windows","10.0","https://app.prolific.com/","en-US,en;q=0.9","670db0b5fbb9e80cbee561cc","679edb085803f58d6bbd31ca","679eeaae8946d6e2b913e42e","","","","","","",""
"","","","","","instructions","1","30096","0.0-1.0","28","1","2025-02-02 03:47:45","bc01a2b6f61d06f6604adb8657495020","12.74.236.119","Mozilla/5.0 (Windows NT 10.0; Win64; x64) AppleWebKit/537.36 (KHTML, like Gecko) Chrome/132.0.0.0 Safari/537.36 Edg/132.0.0.0","WebKit","Edge","132.0.0.0","Windows","10.0","https://app.prolific.com/","en-US,en;q=0.9","670db0b5fbb9e80cbee561cc","679edb085803f58d6bbd31ca","679eeaae8946d6e2b913e42e","[{""page_index"":0,""viewing_time"":29512}]","29512","","","","",""
"","","","","","html-keyboard-response","2","30611","0.0-2.0","28","1","2025-02-02 03:47:45","bc01a2b6f61d06f6604adb8657495020","12.74.236.119","Mozilla/5.0 (Windows NT 10.0; Win64; x64) AppleWebKit/537.36 (KHTML, like Gecko) Chrome/132.0.0.0 Safari/537.36 Edg/132.0.0.0","WebKit","Edge","132.0.0.0","Windows","10.0","https://app.prolific.com/","en-US,en;q=0.9","670db0b5fbb9e80cbee561cc","679edb085803f58d6bbd31ca","679eeaae8946d6e2b913e42e","","null","<p> + <p/>","null","","",""
"","","","","","instructions","3","66272","0.0-3.0","28","1","2025-02-02 03:47:45","bc01a2b6f61d06f6604adb8657495020","12.74.236.119","Mozilla/5.0 (Windows NT 10.0; Win64; x64) AppleWebKit/537.36 (KHTML, like Gecko) Chrome/132.0.0.0 Safari/537.36 Edg/132.0.0.0","WebKit","Edge","132.0.0.0","Windows","10.0","https://app.prolific.com/","en-US,en;q=0.9","670db0b5fbb9e80cbee561cc","679edb085803f58d6bbd31ca","679eeaae8946d6e2b913e42e","[{""page_index"":0,""viewing_time"":2910},{""page_index"":1,""viewing_time"":9765},{""page_index"":2,""viewing_time"":9299},{""page_index"":3,""viewing_time"":3576},{""page_index"":4,""viewing_time"":10111}]","35660","","","","",""
"","","","","","html-button-response","4","81325","0.0-4.0-0.0-0.0","28","1","2025-02-02 03:47:45","bc01a2b6f61d06f6604adb8657495020","12.74.236.119","Mozilla/5.0 (Windows NT 10.0; Win64; x64) AppleWebKit/537.36 (KHTML, like Gecko) Chrome/132.0.0.0 Safari/537.36 Edg/132.0.0.0","WebKit","Edge","132.0.0.0","Windows","10.0","https://app.prolific.com/","en-US,en;q=0.9","670db0b5fbb9e80cbee561cc","679edb085803f58d6bbd31ca","679eeaae8946d6e2b913e42e","","15049","","0","Intro Trial","",""
"","","","","","html-button-response","5","82108","0.0-4.1-0.1-0.1","28","1","2025-02-02 03:47:45","bc01a2b6f61d06f6604adb8657495020","12.74.236.119","Mozilla/5.0 (Windows NT 10.0; Win64; x64) AppleWebKit/537.36 (KHTML, like Gecko) Chrome/132.0.0.0 Safari/537.36 Edg/132.0.0.0","WebKit","Edge","132.0.0.0","Windows","10.0","https://app.prolific.com/","en-US,en;q=0.9","670db0b5fbb9e80cbee561cc","679edb085803f58d6bbd31ca","679eeaae8946d6e2b913e42e","","778","","1","Intro Trial","",""
"","","","","","html-button-response","6","85046","0.0-4.2-0.2-0.2","28","1","2025-02-02 03:47:45","bc01a2b6f61d06f6604adb8657495020","12.74.236.119","Mozilla/5.0 (Windows NT 10.0; Win64; x64) AppleWebKit/537.36 (KHTML, like Gecko) Chrome/132.0.0.0 Safari/537.36 Edg/132.0.0.0","WebKit","Edge","132.0.0.0","Windows","10.0","https://app.prolific.com/","en-US,en;q=0.9","670db0b5fbb9e80cbee561cc","679edb085803f58d6bbd31ca","679eeaae8946d6e2b913e42e","","2933","","1","Intro Trial","",""
"","","","","","html-button-response","7","85602","0.0-4.3-0.3-0.3","28","1","2025-02-02 03:47:45","bc01a2b6f61d06f6604adb8657495020","12.74.236.119","Mozilla/5.0 (Windows NT 10.0; Win64; x64) AppleWebKit/537.36 (KHTML, like Gecko) Chrome/132.0.0.0 Safari/537.36 Edg/132.0.0.0","WebKit","Edge","132.0.0.0","Windows","10.0","https://app.prolific.com/","en-US,en;q=0.9","670db0b5fbb9e80cbee561cc","679edb085803f58d6bbd31ca","679eeaae8946d6e2b913e42e","","552","","2","Intro Trial","",""
"","","","","","html-button-response","8","87143","0.0-4.4-0.4-0.4","28","1","2025-02-02 03:47:45","bc01a2b6f61d06f6604adb8657495020","12.74.236.119","Mozilla/5.0 (Windows NT 10.0; Win64; x64) AppleWebKit/537.36 (KHTML, like Gecko) Chrome/132.0.0.0 Safari/537.36 Edg/132.0.0.0","WebKit","Edge","132.0.0.0","Windows","10.0","https://app.prolific.com/","en-US,en;q=0.9","670db0b5fbb9e80cbee561cc","679edb085803f58d6bbd31ca","679eeaae8946d6e2b913e42e","","1536","","0","Intro Trial","",""
"","","","","","html-button-response","9","87905","0.0-4.5-0.5-0.5","28","1","2025-02-02 03:47:45","bc01a2b6f61d06f6604adb8657495020","12.74.236.119","Mozilla/5.0 (Windows NT 10.0; Win64; x64) AppleWebKit/537.36 (KHTML, like Gecko) Chrome/132.0.0.0 Safari/537.36 Edg/132.0.0.0","WebKit","Edge","132.0.0.0","Windows","10.0","https://app.prolific.com/","en-US,en;q=0.9","670db0b5fbb9e80cbee561cc","679edb085803f58d6bbd31ca","679eeaae8946d6e2b913e42e","","757","","1","Intro Trial","",""
"","","","","","html-button-response","10","90149","0.0-4.6-0.6-0.6","28","1","2025-02-02 03:47:45","bc01a2b6f61d06f6604adb8657495020","12.74.236.119","Mozilla/5.0 (Windows NT 10.0; Win64; x64) AppleWebKit/537.36 (KHTML, like Gecko) Chrome/132.0.0.0 Safari/537.36 Edg/132.0.0.0","WebKit","Edge","132.0.0.0","Windows","10.0","https://app.prolific.com/","en-US,en;q=0.9","670db0b5fbb9e80cbee561cc","679edb085803f58d6bbd31ca","679eeaae8946d6e2b913e42e","","2240","","2","Intro Trial","",""
"","","","","","html-button-response","11","90980","0.0-4.7-0.7-0.7","28","1","2025-02-02 03:47:45","bc01a2b6f61d06f6604adb8657495020","12.74.236.119","Mozilla/5.0 (Windows NT 10.0; Win64; x64) AppleWebKit/537.36 (KHTML, like Gecko) Chrome/132.0.0.0 Safari/537.36 Edg/132.0.0.0","WebKit","Edge","132.0.0.0","Windows","10.0","https://app.prolific.com/","en-US,en;q=0.9","670db0b5fbb9e80cbee561cc","679edb085803f58d6bbd31ca","679eeaae8946d6e2b913e42e","","826","","3","Intro Trial","",""
"","","","","","html-button-response","12","92295","0.0-4.8-0.8-0.8","28","1","2025-02-02 03:47:45","bc01a2b6f61d06f6604adb8657495020","12.74.236.119","Mozilla/5.0 (Windows NT 10.0; Win64; x64) AppleWebKit/537.36 (KHTML, like Gecko) Chrome/132.0.0.0 Safari/537.36 Edg/132.0.0.0","WebKit","Edge","132.0.0.0","Windows","10.0","https://app.prolific.com/","en-US,en;q=0.9","670db0b5fbb9e80cbee561cc","679edb085803f58d6bbd31ca","679eeaae8946d6e2b913e42e","","1311","","3","Intro Trial","",""
"","","","","","html-button-response","13","93093","0.0-4.9-0.9-0.9","28","1","2025-02-02 03:47:45","bc01a2b6f61d06f6604adb8657495020","12.74.236.119","Mozilla/5.0 (Windows NT 10.0; Win64; x64) AppleWebKit/537.36 (KHTML, like Gecko) Chrome/132.0.0.0 Safari/537.36 Edg/132.0.0.0","WebKit","Edge","132.0.0.0","Windows","10.0","https://app.prolific.com/","en-US,en;q=0.9","670db0b5fbb9e80cbee561cc","679edb085803f58d6bbd31ca","679eeaae8946d6e2b913e42e","","793","","4","Intro Trial","",""
"","","","","","html-button-response","14","94609","0.0-4.10-0.10-0.10","28","1","2025-02-02 03:47:45","bc01a2b6f61d06f6604adb8657495020","12.74.236.119","Mozilla/5.0 (Windows NT 10.0; Win64; x64) AppleWebKit/537.36 (KHTML, like Gecko) Chrome/132.0.0.0 Safari/537.36 Edg/132.0.0.0","WebKit","Edge","132.0.0.0","Windows","10.0","https://app.prolific.com/","en-US,en;q=0.9","670db0b5fbb9e80cbee561cc","679edb085803f58d6bbd31ca","679eeaae8946d6e2b913e42e","","1512","","2","Intro Trial","",""
"","","","","","html-button-response","15","95165","0.0-4.11-0.11-0.11","28","1","2025-02-02 03:47:45","bc01a2b6f61d06f6604adb8657495020","12.74.236.119","Mozilla/5.0 (Windows NT 10.0; Win64; x64) AppleWebKit/537.36 (KHTML, like Gecko) Chrome/132.0.0.0 Safari/537.36 Edg/132.0.0.0","WebKit","Edge","132.0.0.0","Windows","10.0","https://app.prolific.com/","en-US,en;q=0.9","670db0b5fbb9e80cbee561cc","679edb085803f58d6bbd31ca","679eeaae8946d6e2b913e42e","","550","","3","Intro Trial","",""
"","","","","","html-button-response","16","96481","0.0-4.12-0.12-0.12","28","1","2025-02-02 03:47:45","bc01a2b6f61d06f6604adb8657495020","12.74.236.119","Mozilla/5.0 (Windows NT 10.0; Win64; x64) AppleWebKit/537.36 (KHTML, like Gecko) Chrome/132.0.0.0 Safari/537.36 Edg/132.0.0.0","WebKit","Edge","132.0.0.0","Windows","10.0","https://app.prolific.com/","en-US,en;q=0.9","670db0b5fbb9e80cbee561cc","679edb085803f58d6bbd31ca","679eeaae8946d6e2b913e42e","","1313","","1","Intro Trial","",""
"","","","","","html-button-response","17","97063","0.0-4.13-0.13-0.13","28","1","2025-02-02 03:47:45","bc01a2b6f61d06f6604adb8657495020","12.74.236.119","Mozilla/5.0 (Windows NT 10.0; Win64; x64) AppleWebKit/537.36 (KHTML, like Gecko) Chrome/132.0.0.0 Safari/537.36 Edg/132.0.0.0","WebKit","Edge","132.0.0.0","Windows","10.0","https://app.prolific.com/","en-US,en;q=0.9","670db0b5fbb9e80cbee561cc","679edb085803f58d6bbd31ca","679eeaae8946d6e2b913e42e","","578","","2","Intro Trial","",""
"","","","","","html-button-response","18","98247","0.0-4.14-0.14-0.14","28","1","2025-02-02 03:47:45","bc01a2b6f61d06f6604adb8657495020","12.74.236.119","Mozilla/5.0 (Windows NT 10.0; Win64; x64) AppleWebKit/537.36 (KHTML, like Gecko) Chrome/132.0.0.0 Safari/537.36 Edg/132.0.0.0","WebKit","Edge","132.0.0.0","Windows","10.0","https://app.prolific.com/","en-US,en;q=0.9","670db0b5fbb9e80cbee561cc","679edb085803f58d6bbd31ca","679eeaae8946d6e2b913e42e","","1179","","0","Intro Trial","",""
"","","","","","html-button-response","19","98796","0.0-4.15-0.15-0.15","28","1","2025-02-02 03:47:45","bc01a2b6f61d06f6604adb8657495020","12.74.236.119","Mozilla/5.0 (Windows NT 10.0; Win64; x64) AppleWebKit/537.36 (KHTML, like Gecko) Chrome/132.0.0.0 Safari/537.36 Edg/132.0.0.0","WebKit","Edge","132.0.0.0","Windows","10.0","https://app.prolific.com/","en-US,en;q=0.9","670db0b5fbb9e80cbee561cc","679edb085803f58d6bbd31ca","679eeaae8946d6e2b913e42e","","545","","1","Intro Trial","",""
"","","","","","html-button-response","20","102146","0.0-4.16-0.16-0.16","28","1","2025-02-02 03:47:45","bc01a2b6f61d06f6604adb8657495020","12.74.236.119","Mozilla/5.0 (Windows NT 10.0; Win64; x64) AppleWebKit/537.36 (KHTML, like Gecko) Chrome/132.0.0.0 Safari/537.36 Edg/132.0.0.0","WebKit","Edge","132.0.0.0","Windows","10.0","https://app.prolific.com/","en-US,en;q=0.9","670db0b5fbb9e80cbee561cc","679edb085803f58d6bbd31ca","679eeaae8946d6e2b913e42e","","3345","","5","Intro Trial","",""
"","","","","","html-keyboard-response","21","112627","0.0-5.0","28","1","2025-02-02 03:47:45","bc01a2b6f61d06f6604adb8657495020","12.74.236.119","Mozilla/5.0 (Windows NT 10.0; Win64; x64) AppleWebKit/537.36 (KHTML, like Gecko) Chrome/132.0.0.0 Safari/537.36 Edg/132.0.0.0","WebKit","Edge","132.0.0.0","Windows","10.0","https://app.prolific.com/","en-US,en;q=0.9","670db0b5fbb9e80cbee561cc","679edb085803f58d6bbd31ca","679eeaae8946d6e2b913e42e","","10477","[""You sorted correctly by using the balance 8 times. <br><br> <img src='G_5.jpg' height='90'><img src='G_2.jpg' height='90'><img src='G_3.jpg' height='90'><img src='G_1.jpg' height='90'><img src='G_4.jpg' height='90'><br><br> Your final order is 1,2,3,4,5<br><br><br>Omgne Sort in this game will allow you to sort correctly by using the balance 8 times. Press Enter to learn it!""]","enter","","",""
"","","","","","html-keyboard-response","22","117582","0.0-6.0","28","1","2025-02-02 03:47:45","bc01a2b6f61d06f6604adb8657495020","12.74.236.119","Mozilla/5.0 (Windows NT 10.0; Win64; x64) AppleWebKit/537.36 (KHTML, like Gecko) Chrome/132.0.0.0 Safari/537.36 Edg/132.0.0.0","WebKit","Edge","132.0.0.0","Windows","10.0","https://app.prolific.com/","en-US,en;q=0.9","670db0b5fbb9e80cbee561cc","679edb085803f58d6bbd31ca","679eeaae8946d6e2b913e42e","","4953","<p>Welcome to the learning phase! <br><br> You will learn by six examples. The following learning trials will not be used to calculate your performance. <br><br> Press Enter to continue.<p/>","enter","","",""
"","","","","","html-keyboard-response","23","122841","0.0-7.0","28","1","2025-02-02 03:47:45","bc01a2b6f61d06f6604adb8657495020","12.74.236.119","Mozilla/5.0 (Windows NT 10.0; Win64; x64) AppleWebKit/537.36 (KHTML, like Gecko) Chrome/132.0.0.0 Safari/537.36 Edg/132.0.0.0","WebKit","Edge","132.0.0.0","Windows","10.0","https://app.prolific.com/","en-US,en;q=0.9","670db0b5fbb9e80cbee561cc","679edb085803f58d6bbd31ca","679eeaae8946d6e2b913e42e","","5258","[""Example 1<br><br>You will watch Omnge Sort in action. Try to identify any patterns in the comparisons made by this method. <br><br>Press Enter to continue.""]","enter","","",""
"","","","","","html-keyboard-response","24","123352","0.0-8.0","28","1","2025-02-02 03:47:45","bc01a2b6f61d06f6604adb8657495020","12.74.236.119","Mozilla/5.0 (Windows NT 10.0; Win64; x64) AppleWebKit/537.36 (KHTML, like Gecko) Chrome/132.0.0.0 Safari/537.36 Edg/132.0.0.0","WebKit","Edge","132.0.0.0","Windows","10.0","https://app.prolific.com/","en-US,en;q=0.9","670db0b5fbb9e80cbee561cc","679edb085803f58d6bbd31ca","679eeaae8946d6e2b913e42e","","null","<img id='selected' src='G_5.jpg' height='90'> <img src='G_1.jpg' height='90'> <img src='G_3.jpg' height='90'> <img src='G_7.jpg' height='90'> <img src='G_9.jpg' height='90'>","null","Animation0","",""
"","","","","","html-keyboard-response","25","123867","0.0-9.0","28","1","2025-02-02 03:47:45","bc01a2b6f61d06f6604adb8657495020","12.74.236.119","Mozilla/5.0 (Windows NT 10.0; Win64; x64) AppleWebKit/537.36 (KHTML, like Gecko) Chrome/132.0.0.0 Safari/537.36 Edg/132.0.0.0","WebKit","Edge","132.0.0.0","Windows","10.0","https://app.prolific.com/","en-US,en;q=0.9","670db0b5fbb9e80cbee561cc","679edb085803f58d6bbd31ca","679eeaae8946d6e2b913e42e","","null","<img id='selected' src='G_5.jpg' height='90'> <img id='selected' src='G_1.jpg' height='90'> <img src='G_3.jpg' height='90'> <img src='G_7.jpg' height='90'> <img src='G_9.jpg' height='90'>","null","Animation0","",""
"","","","","","html-keyboard-response","26","124385","0.0-10.0","28","1","2025-02-02 03:47:45","bc01a2b6f61d06f6604adb8657495020","12.74.236.119","Mozilla/5.0 (Windows NT 10.0; Win64; x64) AppleWebKit/537.36 (KHTML, like Gecko) Chrome/132.0.0.0 Safari/537.36 Edg/132.0.0.0","WebKit","Edge","132.0.0.0","Windows","10.0","https://app.prolific.com/","en-US,en;q=0.9","670db0b5fbb9e80cbee561cc","679edb085803f58d6bbd31ca","679eeaae8946d6e2b913e42e","","null","<img id='swapped' src='G_1.jpg' height='90'> <img id='swapped' src='G_5.jpg' height='90'> <img src='G_3.jpg' height='90'> <img src='G_7.jpg' height='90'> <img src='G_9.jpg' height='90'>","null","Animation0","",""
"","","","","","html-keyboard-response","27","124698","0.0-11.0","28","1","2025-02-02 03:47:45","bc01a2b6f61d06f6604adb8657495020","12.74.236.119","Mozilla/5.0 (Windows NT 10.0; Win64; x64) AppleWebKit/537.36 (KHTML, like Gecko) Chrome/132.0.0.0 Safari/537.36 Edg/132.0.0.0","WebKit","Edge","132.0.0.0","Windows","10.0","https://app.prolific.com/","en-US,en;q=0.9","670db0b5fbb9e80cbee561cc","679edb085803f58d6bbd31ca","679eeaae8946d6e2b913e42e","","null","<img  src='G_1.jpg' height='90'> <img  src='G_5.jpg' height='90'> <img src='G_3.jpg' height='90'> <img src='G_7.jpg' height='90'> <img src='G_9.jpg' height='90'>","null","Animation0","",""
"","","","","","html-keyboard-response","28","125213","0.0-12.0","28","1","2025-02-02 03:47:45","bc01a2b6f61d06f6604adb8657495020","12.74.236.119","Mozilla/5.0 (Windows NT 10.0; Win64; x64) AppleWebKit/537.36 (KHTML, like Gecko) Chrome/132.0.0.0 Safari/537.36 Edg/132.0.0.0","WebKit","Edge","132.0.0.0","Windows","10.0","https://app.prolific.com/","en-US,en;q=0.9","670db0b5fbb9e80cbee561cc","679edb085803f58d6bbd31ca","679eeaae8946d6e2b913e42e","","null","<img  src='G_1.jpg' height='90'> <img id='selected'  src='G_5.jpg' height='90'> <img src='G_3.jpg' height='90'> <img src='G_7.jpg' height='90'> <img src='G_9.jpg' height='90'>","null","Animation0","",""
"","","","","","html-keyboard-response","29","125729","0.0-13.0","28","1","2025-02-02 03:47:45","bc01a2b6f61d06f6604adb8657495020","12.74.236.119","Mozilla/5.0 (Windows NT 10.0; Win64; x64) AppleWebKit/537.36 (KHTML, like Gecko) Chrome/132.0.0.0 Safari/537.36 Edg/132.0.0.0","WebKit","Edge","132.0.0.0","Windows","10.0","https://app.prolific.com/","en-US,en;q=0.9","670db0b5fbb9e80cbee561cc","679edb085803f58d6bbd31ca","679eeaae8946d6e2b913e42e","","null","<img  src='G_1.jpg' height='90'> <img id='selected'  src='G_5.jpg' height='90'> <img id='selected' src='G_3.jpg' height='90'> <img src='G_7.jpg' height='90'> <img src='G_9.jpg' height='90'>","null","Animation0","",""
"","","","","","html-keyboard-response","30","126243","0.0-14.0","28","1","2025-02-02 03:47:45","bc01a2b6f61d06f6604adb8657495020","12.74.236.119","Mozilla/5.0 (Windows NT 10.0; Win64; x64) AppleWebKit/537.36 (KHTML, like Gecko) Chrome/132.0.0.0 Safari/537.36 Edg/132.0.0.0","WebKit","Edge","132.0.0.0","Windows","10.0","https://app.prolific.com/","en-US,en;q=0.9","670db0b5fbb9e80cbee561cc","679edb085803f58d6bbd31ca","679eeaae8946d6e2b913e42e","","null","<img  src='G_1.jpg' height='90'> <img id='selected'  src='G_5.jpg' height='90'> <img id='selected' src='G_3.jpg' height='90'> <img src='G_7.jpg' height='90'> <img src='G_9.jpg' height='90'>","null","Animation0","",""
"","","","","","html-keyboard-response","31","126559","0.0-15.0","28","1","2025-02-02 03:47:45","bc01a2b6f61d06f6604adb8657495020","12.74.236.119","Mozilla/5.0 (Windows NT 10.0; Win64; x64) AppleWebKit/537.36 (KHTML, like Gecko) Chrome/132.0.0.0 Safari/537.36 Edg/132.0.0.0","WebKit","Edge","132.0.0.0","Windows","10.0","https://app.prolific.com/","en-US,en;q=0.9","670db0b5fbb9e80cbee561cc","679edb085803f58d6bbd31ca","679eeaae8946d6e2b913e42e","","null","<img  src='G_1.jpg' height='90'> <img   src='G_5.jpg' height='90'> <img  src='G_3.jpg' height='90'> <img src='G_7.jpg' height='90'> <img src='G_9.jpg' height='90'>","null","Animation0","",""
"","","","","","html-keyboard-response","32","127065","0.0-16.0","28","1","2025-02-02 03:47:45","bc01a2b6f61d06f6604adb8657495020","12.74.236.119","Mozilla/5.0 (Windows NT 10.0; Win64; x64) AppleWebKit/537.36 (KHTML, like Gecko) Chrome/132.0.0.0 Safari/537.36 Edg/132.0.0.0","WebKit","Edge","132.0.0.0","Windows","10.0","https://app.prolific.com/","en-US,en;q=0.9","670db0b5fbb9e80cbee561cc","679edb085803f58d6bbd31ca","679eeaae8946d6e2b913e42e","","null","<img  src='G_1.jpg' height='90'> <img   src='G_5.jpg' height='90'> <img id='selected'  src='G_3.jpg' height='90'> <img src='G_7.jpg' height='90'> <img src='G_9.jpg' height='90'>","null","Animation0","",""
"","","","","","html-keyboard-response","33","127578","0.0-17.0","28","1","2025-02-02 03:47:45","bc01a2b6f61d06f6604adb8657495020","12.74.236.119","Mozilla/5.0 (Windows NT 10.0; Win64; x64) AppleWebKit/537.36 (KHTML, like Gecko) Chrome/132.0.0.0 Safari/537.36 Edg/132.0.0.0","WebKit","Edge","132.0.0.0","Windows","10.0","https://app.prolific.com/","en-US,en;q=0.9","670db0b5fbb9e80cbee561cc","679edb085803f58d6bbd31ca","679eeaae8946d6e2b913e42e","","null","<img  src='G_1.jpg' height='90'> <img   src='G_5.jpg' height='90'> <img id='selected'  src='G_3.jpg' height='90'> <img id='selected' src='G_7.jpg' height='90'> <img src='G_9.jpg' height='90'>","null","Animation0","",""
"","","","","","html-keyboard-response","34","128090","0.0-18.0","28","1","2025-02-02 03:47:45","bc01a2b6f61d06f6604adb8657495020","12.74.236.119","Mozilla/5.0 (Windows NT 10.0; Win64; x64) AppleWebKit/537.36 (KHTML, like Gecko) Chrome/132.0.0.0 Safari/537.36 Edg/132.0.0.0","WebKit","Edge","132.0.0.0","Windows","10.0","https://app.prolific.com/","en-US,en;q=0.9","670db0b5fbb9e80cbee561cc","679edb085803f58d6bbd31ca","679eeaae8946d6e2b913e42e","","null","<img  src='G_1.jpg' height='90'> <img   src='G_5.jpg' height='90'> <img id='selected'  src='G_3.jpg' height='90'> <img id='selected' src='G_7.jpg' height='90'> <img src='G_9.jpg' height='90'>","null","Animation0","",""
"","","","","","html-keyboard-response","35","128402","0.0-19.0","28","1","2025-02-02 03:47:45","bc01a2b6f61d06f6604adb8657495020","12.74.236.119","Mozilla/5.0 (Windows NT 10.0; Win64; x64) AppleWebKit/537.36 (KHTML, like Gecko) Chrome/132.0.0.0 Safari/537.36 Edg/132.0.0.0","WebKit","Edge","132.0.0.0","Windows","10.0","https://app.prolific.com/","en-US,en;q=0.9","670db0b5fbb9e80cbee561cc","679edb085803f58d6bbd31ca","679eeaae8946d6e2b913e42e","","null","<img  src='G_1.jpg' height='90'> <img   src='G_5.jpg' height='90'> <img   src='G_3.jpg' height='90'> <img  src='G_7.jpg' height='90'> <img src='G_9.jpg' height='90'>","null","Animation0","",""
"","","","","","html-keyboard-response","36","128919","0.0-20.0","28","1","2025-02-02 03:47:45","bc01a2b6f61d06f6604adb8657495020","12.74.236.119","Mozilla/5.0 (Windows NT 10.0; Win64; x64) AppleWebKit/537.36 (KHTML, like Gecko) Chrome/132.0.0.0 Safari/537.36 Edg/132.0.0.0","WebKit","Edge","132.0.0.0","Windows","10.0","https://app.prolific.com/","en-US,en;q=0.9","670db0b5fbb9e80cbee561cc","679edb085803f58d6bbd31ca","679eeaae8946d6e2b913e42e","","null","<img  src='G_1.jpg' height='90'> <img   src='G_5.jpg' height='90'> <img   src='G_3.jpg' height='90'> <img id='selected'  src='G_7.jpg' height='90'> <img src='G_9.jpg' height='90'>","null","Animation0","",""
"","","","","","html-keyboard-response","37","129433","0.0-21.0","28","1","2025-02-02 03:47:45","bc01a2b6f61d06f6604adb8657495020","12.74.236.119","Mozilla/5.0 (Windows NT 10.0; Win64; x64) AppleWebKit/537.36 (KHTML, like Gecko) Chrome/132.0.0.0 Safari/537.36 Edg/132.0.0.0","WebKit","Edge","132.0.0.0","Windows","10.0","https://app.prolific.com/","en-US,en;q=0.9","670db0b5fbb9e80cbee561cc","679edb085803f58d6bbd31ca","679eeaae8946d6e2b913e42e","","null","<img  src='G_1.jpg' height='90'> <img   src='G_5.jpg' height='90'> <img   src='G_3.jpg' height='90'> <img id='selected'  src='G_7.jpg' height='90'> <img id='selected' src='G_9.jpg' height='90'>","null","Animation0","",""
"","","","","","html-keyboard-response","38","129951","0.0-22.0","28","1","2025-02-02 03:47:45","bc01a2b6f61d06f6604adb8657495020","12.74.236.119","Mozilla/5.0 (Windows NT 10.0; Win64; x64) AppleWebKit/537.36 (KHTML, like Gecko) Chrome/132.0.0.0 Safari/537.36 Edg/132.0.0.0","WebKit","Edge","132.0.0.0","Windows","10.0","https://app.prolific.com/","en-US,en;q=0.9","670db0b5fbb9e80cbee561cc","679edb085803f58d6bbd31ca","679eeaae8946d6e2b913e42e","","null","<img  src='G_1.jpg' height='90'> <img   src='G_5.jpg' height='90'> <img   src='G_3.jpg' height='90'> <img id='selected'  src='G_7.jpg' height='90'> <img id='selected' src='G_9.jpg' height='90'>","null","Animation0","",""
"","","","","","html-keyboard-response","39","130267","0.0-23.0","28","1","2025-02-02 03:47:45","bc01a2b6f61d06f6604adb8657495020","12.74.236.119","Mozilla/5.0 (Windows NT 10.0; Win64; x64) AppleWebKit/537.36 (KHTML, like Gecko) Chrome/132.0.0.0 Safari/537.36 Edg/132.0.0.0","WebKit","Edge","132.0.0.0","Windows","10.0","https://app.prolific.com/","en-US,en;q=0.9","670db0b5fbb9e80cbee561cc","679edb085803f58d6bbd31ca","679eeaae8946d6e2b913e42e","","null","<img  src='G_1.jpg' height='90'> <img   src='G_5.jpg' height='90'> <img   src='G_3.jpg' height='90'> <img   src='G_7.jpg' height='90'> <img  src='G_9.jpg' height='90'>","null","Animation0","",""
"","","","","","html-keyboard-response","40","135309","0.0-24.0","28","1","2025-02-02 03:47:45","bc01a2b6f61d06f6604adb8657495020","12.74.236.119","Mozilla/5.0 (Windows NT 10.0; Win64; x64) AppleWebKit/537.36 (KHTML, like Gecko) Chrome/132.0.0.0 Safari/537.36 Edg/132.0.0.0","WebKit","Edge","132.0.0.0","Windows","10.0","https://app.prolific.com/","en-US,en;q=0.9","670db0b5fbb9e80cbee561cc","679edb085803f58d6bbd31ca","679eeaae8946d6e2b913e42e","","5038","[""Did you notice any patterns? <br><br>Press Enter to watch that example again and follow the steps of Omgne Sort.""]","enter","","",""
"","","","","","html-button-response","41","135722","0.0-25.0","28","1","2025-02-02 03:47:45","bc01a2b6f61d06f6604adb8657495020","12.74.236.119","Mozilla/5.0 (Windows NT 10.0; Win64; x64) AppleWebKit/537.36 (KHTML, like Gecko) Chrome/132.0.0.0 Safari/537.36 Edg/132.0.0.0","WebKit","Edge","132.0.0.0","Windows","10.0","https://app.prolific.com/","en-US,en;q=0.9","670db0b5fbb9e80cbee561cc","679edb085803f58d6bbd31ca","679eeaae8946d6e2b913e42e","","null","<img id='selected' src='G_5.jpg' height='90'> <img src='G_1.jpg' height='90'> <img src='G_3.jpg' height='90'> <img src='G_7.jpg' height='90'> <img src='G_9.jpg' height='90'>","null","Learning example 0","",""
"","","","","","html-button-response","42","136033","0.0-26.0","28","1","2025-02-02 03:47:45","bc01a2b6f61d06f6604adb8657495020","12.74.236.119","Mozilla/5.0 (Windows NT 10.0; Win64; x64) AppleWebKit/537.36 (KHTML, like Gecko) Chrome/132.0.0.0 Safari/537.36 Edg/132.0.0.0","WebKit","Edge","132.0.0.0","Windows","10.0","https://app.prolific.com/","en-US,en;q=0.9","670db0b5fbb9e80cbee561cc","679edb085803f58d6bbd31ca","679eeaae8946d6e2b913e42e","","null","<img id='selected' src='G_5.jpg' height='90'> <img id='selected' src='G_1.jpg' height='90'> <img src='G_3.jpg' height='90'> <img src='G_7.jpg' height='90'> <img src='G_9.jpg' height='90'>","null","Learning example 0","",""
"","","","","","html-button-response","43","136353","0.0-27.0","28","1","2025-02-02 03:47:45","bc01a2b6f61d06f6604adb8657495020","12.74.236.119","Mozilla/5.0 (Windows NT 10.0; Win64; x64) AppleWebKit/537.36 (KHTML, like Gecko) Chrome/132.0.0.0 Safari/537.36 Edg/132.0.0.0","WebKit","Edge","132.0.0.0","Windows","10.0","https://app.prolific.com/","en-US,en;q=0.9","670db0b5fbb9e80cbee561cc","679edb085803f58d6bbd31ca","679eeaae8946d6e2b913e42e","","null","<img id='swapped' src='G_1.jpg' height='90'> <img id='swapped' src='G_5.jpg' height='90'> <img src='G_3.jpg' height='90'> <img src='G_7.jpg' height='90'> <img src='G_9.jpg' height='90'>","null","Learning example 0","",""
"","","","","","html-button-response","44","140668","0.0-28.0-0.0-0.0","28","1","2025-02-02 03:47:45","bc01a2b6f61d06f6604adb8657495020","12.74.236.119","Mozilla/5.0 (Windows NT 10.0; Win64; x64) AppleWebKit/537.36 (KHTML, like Gecko) Chrome/132.0.0.0 Safari/537.36 Edg/132.0.0.0","WebKit","Edge","132.0.0.0","Windows","10.0","https://app.prolific.com/","en-US,en;q=0.9","670db0b5fbb9e80cbee561cc","679edb085803f58d6bbd31ca","679eeaae8946d6e2b913e42e","","4309","<img id='swapped' src='G_1.jpg' height='90'> <img id='swapped' src='G_5.jpg' height='90'> <img src='G_3.jpg' height='90'> <img src='G_7.jpg' height='90'> <img src='G_9.jpg' height='90'>","0","Learning example 0","",""
"","","","","","html-button-response","45","141087","0.0-28.1-0.1-0.1","28","1","2025-02-02 03:47:45","bc01a2b6f61d06f6604adb8657495020","12.74.236.119","Mozilla/5.0 (Windows NT 10.0; Win64; x64) AppleWebKit/537.36 (KHTML, like Gecko) Chrome/132.0.0.0 Safari/537.36 Edg/132.0.0.0","WebKit","Edge","132.0.0.0","Windows","10.0","https://app.prolific.com/","en-US,en;q=0.9","670db0b5fbb9e80cbee561cc","679edb085803f58d6bbd31ca","679eeaae8946d6e2b913e42e","","413","<img id='swapped' src='G_1.jpg' height='90'> <img id='swapped' src='G_5.jpg' height='90'> <img src='G_3.jpg' height='90'> <img src='G_7.jpg' height='90'> <img src='G_9.jpg' height='90'>","0","Learning example 0","",""
"","","","","","html-button-response","46","141810","0.0-28.2-0.2-0.2","28","1","2025-02-02 03:47:45","bc01a2b6f61d06f6604adb8657495020","12.74.236.119","Mozilla/5.0 (Windows NT 10.0; Win64; x64) AppleWebKit/537.36 (KHTML, like Gecko) Chrome/132.0.0.0 Safari/537.36 Edg/132.0.0.0","WebKit","Edge","132.0.0.0","Windows","10.0","https://app.prolific.com/","en-US,en;q=0.9","670db0b5fbb9e80cbee561cc","679edb085803f58d6bbd31ca","679eeaae8946d6e2b913e42e","","717","<img id='swapped' src='G_1.jpg' height='90'> <img id='swapped' src='G_5.jpg' height='90'> <img src='G_3.jpg' height='90'> <img src='G_7.jpg' height='90'> <img src='G_9.jpg' height='90'>","1","Learning example 0","",""
"","","","","","html-button-response","47","142017","0.0-29.0","28","1","2025-02-02 03:47:45","bc01a2b6f61d06f6604adb8657495020","12.74.236.119","Mozilla/5.0 (Windows NT 10.0; Win64; x64) AppleWebKit/537.36 (KHTML, like Gecko) Chrome/132.0.0.0 Safari/537.36 Edg/132.0.0.0","WebKit","Edge","132.0.0.0","Windows","10.0","https://app.prolific.com/","en-US,en;q=0.9","670db0b5fbb9e80cbee561cc","679edb085803f58d6bbd31ca","679eeaae8946d6e2b913e42e","","null","<img  src='G_1.jpg' height='90'> <img  src='G_5.jpg' height='90'> <img src='G_3.jpg' height='90'> <img src='G_7.jpg' height='90'> <img src='G_9.jpg' height='90'>","null","Learning example 0","",""
"","","","","","html-button-response","48","142426","0.0-30.0","28","1","2025-02-02 03:47:45","bc01a2b6f61d06f6604adb8657495020","12.74.236.119","Mozilla/5.0 (Windows NT 10.0; Win64; x64) AppleWebKit/537.36 (KHTML, like Gecko) Chrome/132.0.0.0 Safari/537.36 Edg/132.0.0.0","WebKit","Edge","132.0.0.0","Windows","10.0","https://app.prolific.com/","en-US,en;q=0.9","670db0b5fbb9e80cbee561cc","679edb085803f58d6bbd31ca","679eeaae8946d6e2b913e42e","","null","<img  src='G_1.jpg' height='90'> <img id='selected'  src='G_5.jpg' height='90'> <img src='G_3.jpg' height='90'> <img src='G_7.jpg' height='90'> <img src='G_9.jpg' height='90'>","null","Learning example 0","",""
"","","","","","html-button-response","49","142742","0.0-31.0","28","1","2025-02-02 03:47:45","bc01a2b6f61d06f6604adb8657495020","12.74.236.119","Mozilla/5.0 (Windows NT 10.0; Win64; x64) AppleWebKit/537.36 (KHTML, like Gecko) Chrome/132.0.0.0 Safari/537.36 Edg/132.0.0.0","WebKit","Edge","132.0.0.0","Windows","10.0","https://app.prolific.com/","en-US,en;q=0.9","670db0b5fbb9e80cbee561cc","679edb085803f58d6bbd31ca","679eeaae8946d6e2b913e42e","","null","<img  src='G_1.jpg' height='90'> <img id='selected'  src='G_5.jpg' height='90'> <img id='selected' src='G_3.jpg' height='90'> <img src='G_7.jpg' height='90'> <img src='G_9.jpg' height='90'>","null","Learning example 0","",""
"","","","","","html-button-response","50","143057","0.0-32.0","28","1","2025-02-02 03:47:45","bc01a2b6f61d06f6604adb8657495020","12.74.236.119","Mozilla/5.0 (Windows NT 10.0; Win64; x64) AppleWebKit/537.36 (KHTML, like Gecko) Chrome/132.0.0.0 Safari/537.36 Edg/132.0.0.0","WebKit","Edge","132.0.0.0","Windows","10.0","https://app.prolific.com/","en-US,en;q=0.9","670db0b5fbb9e80cbee561cc","679edb085803f58d6bbd31ca","679eeaae8946d6e2b913e42e","","null","<img  src='G_1.jpg' height='90'> <img id='selected'  src='G_5.jpg' height='90'> <img id='selected' src='G_3.jpg' height='90'> <img src='G_7.jpg' height='90'> <img src='G_9.jpg' height='90'>","null","Learning example 0","",""
"","","","","","html-button-response","51","145190","0.0-33.0-0.0-0.0","28","1","2025-02-02 03:47:45","bc01a2b6f61d06f6604adb8657495020","12.74.236.119","Mozilla/5.0 (Windows NT 10.0; Win64; x64) AppleWebKit/537.36 (KHTML, like Gecko) Chrome/132.0.0.0 Safari/537.36 Edg/132.0.0.0","WebKit","Edge","132.0.0.0","Windows","10.0","https://app.prolific.com/","en-US,en;q=0.9","670db0b5fbb9e80cbee561cc","679edb085803f58d6bbd31ca","679eeaae8946d6e2b913e42e","","2127","<img  src='G_1.jpg' height='90'> <img id='selected'  src='G_5.jpg' height='90'> <img id='selected' src='G_3.jpg' height='90'> <img src='G_7.jpg' height='90'> <img src='G_9.jpg' height='90'>","1","Learning example 0","",""
"","","","","","html-button-response","52","145952","0.0-33.1-0.1-0.1","28","1","2025-02-02 03:47:45","bc01a2b6f61d06f6604adb8657495020","12.74.236.119","Mozilla/5.0 (Windows NT 10.0; Win64; x64) AppleWebKit/537.36 (KHTML, like Gecko) Chrome/132.0.0.0 Safari/537.36 Edg/132.0.0.0","WebKit","Edge","132.0.0.0","Windows","10.0","https://app.prolific.com/","en-US,en;q=0.9","670db0b5fbb9e80cbee561cc","679edb085803f58d6bbd31ca","679eeaae8946d6e2b913e42e","","755","<img  src='G_1.jpg' height='90'> <img id='selected'  src='G_5.jpg' height='90'> <img id='selected' src='G_3.jpg' height='90'> <img src='G_7.jpg' height='90'> <img src='G_9.jpg' height='90'>","2","Learning example 0","",""
"","","","","","html-button-response","53","146167","0.0-34.0","28","1","2025-02-02 03:47:45","bc01a2b6f61d06f6604adb8657495020","12.74.236.119","Mozilla/5.0 (Windows NT 10.0; Win64; x64) AppleWebKit/537.36 (KHTML, like Gecko) Chrome/132.0.0.0 Safari/537.36 Edg/132.0.0.0","WebKit","Edge","132.0.0.0","Windows","10.0","https://app.prolific.com/","en-US,en;q=0.9","670db0b5fbb9e80cbee561cc","679edb085803f58d6bbd31ca","679eeaae8946d6e2b913e42e","","null","<img  src='G_1.jpg' height='90'> <img   src='G_5.jpg' height='90'> <img  src='G_3.jpg' height='90'> <img src='G_7.jpg' height='90'> <img src='G_9.jpg' height='90'>","null","Learning example 0","",""
"","","","","","html-button-response","54","146574","0.0-35.0","28","1","2025-02-02 03:47:45","bc01a2b6f61d06f6604adb8657495020","12.74.236.119","Mozilla/5.0 (Windows NT 10.0; Win64; x64) AppleWebKit/537.36 (KHTML, like Gecko) Chrome/132.0.0.0 Safari/537.36 Edg/132.0.0.0","WebKit","Edge","132.0.0.0","Windows","10.0","https://app.prolific.com/","en-US,en;q=0.9","670db0b5fbb9e80cbee561cc","679edb085803f58d6bbd31ca","679eeaae8946d6e2b913e42e","","null","<img  src='G_1.jpg' height='90'> <img   src='G_5.jpg' height='90'> <img id='selected'  src='G_3.jpg' height='90'> <img src='G_7.jpg' height='90'> <img src='G_9.jpg' height='90'>","null","Learning example 0","",""
"","","","","","html-button-response","55","146897","0.0-36.0","28","1","2025-02-02 03:47:45","bc01a2b6f61d06f6604adb8657495020","12.74.236.119","Mozilla/5.0 (Windows NT 10.0; Win64; x64) AppleWebKit/537.36 (KHTML, like Gecko) Chrome/132.0.0.0 Safari/537.36 Edg/132.0.0.0","WebKit","Edge","132.0.0.0","Windows","10.0","https://app.prolific.com/","en-US,en;q=0.9","670db0b5fbb9e80cbee561cc","679edb085803f58d6bbd31ca","679eeaae8946d6e2b913e42e","","null","<img  src='G_1.jpg' height='90'> <img   src='G_5.jpg' height='90'> <img id='selected'  src='G_3.jpg' height='90'> <img id='selected' src='G_7.jpg' height='90'> <img src='G_9.jpg' height='90'>","null","Learning example 0","",""
"","","","","","html-button-response","56","147208","0.0-37.0","28","1","2025-02-02 03:47:45","bc01a2b6f61d06f6604adb8657495020","12.74.236.119","Mozilla/5.0 (Windows NT 10.0; Win64; x64) AppleWebKit/537.36 (KHTML, like Gecko) Chrome/132.0.0.0 Safari/537.36 Edg/132.0.0.0","WebKit","Edge","132.0.0.0","Windows","10.0","https://app.prolific.com/","en-US,en;q=0.9","670db0b5fbb9e80cbee561cc","679edb085803f58d6bbd31ca","679eeaae8946d6e2b913e42e","","null","<img  src='G_1.jpg' height='90'> <img   src='G_5.jpg' height='90'> <img id='selected'  src='G_3.jpg' height='90'> <img id='selected' src='G_7.jpg' height='90'> <img src='G_9.jpg' height='90'>","null","Learning example 0","",""
"","","","","","html-button-response","57","147977","0.0-38.0-0.0-0.0","28","1","2025-02-02 03:47:45","bc01a2b6f61d06f6604adb8657495020","12.74.236.119","Mozilla/5.0 (Windows NT 10.0; Win64; x64) AppleWebKit/537.36 (KHTML, like Gecko) Chrome/132.0.0.0 Safari/537.36 Edg/132.0.0.0","WebKit","Edge","132.0.0.0","Windows","10.0","https://app.prolific.com/","en-US,en;q=0.9","670db0b5fbb9e80cbee561cc","679edb085803f58d6bbd31ca","679eeaae8946d6e2b913e42e","","762","<img  src='G_1.jpg' height='90'> <img   src='G_5.jpg' height='90'> <img id='selected'  src='G_3.jpg' height='90'> <img id='selected' src='G_7.jpg' height='90'> <img src='G_9.jpg' height='90'>","2","Learning example 0","",""
"","","","","","html-button-response","58","148638","0.0-38.1-0.1-0.1","28","1","2025-02-02 03:47:45","bc01a2b6f61d06f6604adb8657495020","12.74.236.119","Mozilla/5.0 (Windows NT 10.0; Win64; x64) AppleWebKit/537.36 (KHTML, like Gecko) Chrome/132.0.0.0 Safari/537.36 Edg/132.0.0.0","WebKit","Edge","132.0.0.0","Windows","10.0","https://app.prolific.com/","en-US,en;q=0.9","670db0b5fbb9e80cbee561cc","679edb085803f58d6bbd31ca","679eeaae8946d6e2b913e42e","","654","<img  src='G_1.jpg' height='90'> <img   src='G_5.jpg' height='90'> <img id='selected'  src='G_3.jpg' height='90'> <img id='selected' src='G_7.jpg' height='90'> <img src='G_9.jpg' height='90'>","3","Learning example 0","",""
"","","","","","html-button-response","59","148853","0.0-39.0","28","1","2025-02-02 03:47:45","bc01a2b6f61d06f6604adb8657495020","12.74.236.119","Mozilla/5.0 (Windows NT 10.0; Win64; x64) AppleWebKit/537.36 (KHTML, like Gecko) Chrome/132.0.0.0 Safari/537.36 Edg/132.0.0.0","WebKit","Edge","132.0.0.0","Windows","10.0","https://app.prolific.com/","en-US,en;q=0.9","670db0b5fbb9e80cbee561cc","679edb085803f58d6bbd31ca","679eeaae8946d6e2b913e42e","","null","<img  src='G_1.jpg' height='90'> <img   src='G_5.jpg' height='90'> <img   src='G_3.jpg' height='90'> <img  src='G_7.jpg' height='90'> <img src='G_9.jpg' height='90'>","null","Learning example 0","",""
"","","","","","html-button-response","60","149266","0.0-40.0","28","1","2025-02-02 03:47:45","bc01a2b6f61d06f6604adb8657495020","12.74.236.119","Mozilla/5.0 (Windows NT 10.0; Win64; x64) AppleWebKit/537.36 (KHTML, like Gecko) Chrome/132.0.0.0 Safari/537.36 Edg/132.0.0.0","WebKit","Edge","132.0.0.0","Windows","10.0","https://app.prolific.com/","en-US,en;q=0.9","670db0b5fbb9e80cbee561cc","679edb085803f58d6bbd31ca","679eeaae8946d6e2b913e42e","","null","<img  src='G_1.jpg' height='90'> <img   src='G_5.jpg' height='90'> <img   src='G_3.jpg' height='90'> <img id='selected'  src='G_7.jpg' height='90'> <img src='G_9.jpg' height='90'>","null","Learning example 0","",""
"","","","","","html-button-response","61","149580","0.0-41.0","28","1","2025-02-02 03:47:45","bc01a2b6f61d06f6604adb8657495020","12.74.236.119","Mozilla/5.0 (Windows NT 10.0; Win64; x64) AppleWebKit/537.36 (KHTML, like Gecko) Chrome/132.0.0.0 Safari/537.36 Edg/132.0.0.0","WebKit","Edge","132.0.0.0","Windows","10.0","https://app.prolific.com/","en-US,en;q=0.9","670db0b5fbb9e80cbee561cc","679edb085803f58d6bbd31ca","679eeaae8946d6e2b913e42e","","null","<img  src='G_1.jpg' height='90'> <img   src='G_5.jpg' height='90'> <img   src='G_3.jpg' height='90'> <img id='selected'  src='G_7.jpg' height='90'> <img id='selected' src='G_9.jpg' height='90'>","null","Learning example 0","",""
"","","","","","html-button-response","62","149889","0.0-42.0","28","1","2025-02-02 03:47:45","bc01a2b6f61d06f6604adb8657495020","12.74.236.119","Mozilla/5.0 (Windows NT 10.0; Win64; x64) AppleWebKit/537.36 (KHTML, like Gecko) Chrome/132.0.0.0 Safari/537.36 Edg/132.0.0.0","WebKit","Edge","132.0.0.0","Windows","10.0","https://app.prolific.com/","en-US,en;q=0.9","670db0b5fbb9e80cbee561cc","679edb085803f58d6bbd31ca","679eeaae8946d6e2b913e42e","","null","<img  src='G_1.jpg' height='90'> <img   src='G_5.jpg' height='90'> <img   src='G_3.jpg' height='90'> <img id='selected'  src='G_7.jpg' height='90'> <img id='selected' src='G_9.jpg' height='90'>","null","Learning example 0","",""
"","","","","","html-button-response","63","150304","0.0-43.0-0.0-0.0","28","1","2025-02-02 03:47:45","bc01a2b6f61d06f6604adb8657495020","12.74.236.119","Mozilla/5.0 (Windows NT 10.0; Win64; x64) AppleWebKit/537.36 (KHTML, like Gecko) Chrome/132.0.0.0 Safari/537.36 Edg/132.0.0.0","WebKit","Edge","132.0.0.0","Windows","10.0","https://app.prolific.com/","en-US,en;q=0.9","670db0b5fbb9e80cbee561cc","679edb085803f58d6bbd31ca","679eeaae8946d6e2b913e42e","","408","<img  src='G_1.jpg' height='90'> <img   src='G_5.jpg' height='90'> <img   src='G_3.jpg' height='90'> <img id='selected'  src='G_7.jpg' height='90'> <img id='selected' src='G_9.jpg' height='90'>","3","Learning example 0","",""
"","","","","","html-button-response","64","151254","0.0-43.1-0.1-0.1","28","1","2025-02-02 03:47:45","bc01a2b6f61d06f6604adb8657495020","12.74.236.119","Mozilla/5.0 (Windows NT 10.0; Win64; x64) AppleWebKit/537.36 (KHTML, like Gecko) Chrome/132.0.0.0 Safari/537.36 Edg/132.0.0.0","WebKit","Edge","132.0.0.0","Windows","10.0","https://app.prolific.com/","en-US,en;q=0.9","670db0b5fbb9e80cbee561cc","679edb085803f58d6bbd31ca","679eeaae8946d6e2b913e42e","","943","<img  src='G_1.jpg' height='90'> <img   src='G_5.jpg' height='90'> <img   src='G_3.jpg' height='90'> <img id='selected'  src='G_7.jpg' height='90'> <img id='selected' src='G_9.jpg' height='90'>","4","Learning example 0","",""
"","","","","","html-button-response","65","151476","0.0-44.0","28","1","2025-02-02 03:47:45","bc01a2b6f61d06f6604adb8657495020","12.74.236.119","Mozilla/5.0 (Windows NT 10.0; Win64; x64) AppleWebKit/537.36 (KHTML, like Gecko) Chrome/132.0.0.0 Safari/537.36 Edg/132.0.0.0","WebKit","Edge","132.0.0.0","Windows","10.0","https://app.prolific.com/","en-US,en;q=0.9","670db0b5fbb9e80cbee561cc","679edb085803f58d6bbd31ca","679eeaae8946d6e2b913e42e","","null","<img  src='G_1.jpg' height='90'> <img   src='G_5.jpg' height='90'> <img   src='G_3.jpg' height='90'> <img   src='G_7.jpg' height='90'> <img  src='G_9.jpg' height='90'>","null","Learning example 0","",""
"","","","","","html-keyboard-response","66","156210","0.0-45.0","28","1","2025-02-02 03:47:45","bc01a2b6f61d06f6604adb8657495020","12.74.236.119","Mozilla/5.0 (Windows NT 10.0; Win64; x64) AppleWebKit/537.36 (KHTML, like Gecko) Chrome/132.0.0.0 Safari/537.36 Edg/132.0.0.0","WebKit","Edge","132.0.0.0","Windows","10.0","https://app.prolific.com/","en-US,en;q=0.9","670db0b5fbb9e80cbee561cc","679edb085803f58d6bbd31ca","679eeaae8946d6e2b913e42e","","4730","[""Final order was 1,2,3,4,5. The initial order was 2,1,3,4,5.<br>It took 1 swaps to sort it correctly with Omgne Sort. <br><br>Press Enter to continue.""]","enter","","",""
"","","","","","html-keyboard-response","67","158516","0.0-46.0","28","1","2025-02-02 03:47:45","bc01a2b6f61d06f6604adb8657495020","12.74.236.119","Mozilla/5.0 (Windows NT 10.0; Win64; x64) AppleWebKit/537.36 (KHTML, like Gecko) Chrome/132.0.0.0 Safari/537.36 Edg/132.0.0.0","WebKit","Edge","132.0.0.0","Windows","10.0","https://app.prolific.com/","en-US,en;q=0.9","670db0b5fbb9e80cbee561cc","679edb085803f58d6bbd31ca","679eeaae8946d6e2b913e42e","","2303","[""Example 2<br><br>You will watch Omnge Sort in action. Try to identify any patterns in the comparisons made by this method. <br><br>Press Enter to continue.""]","enter","","",""
"","","","","","html-keyboard-response","68","159028","0.0-47.0","28","1","2025-02-02 03:47:45","bc01a2b6f61d06f6604adb8657495020","12.74.236.119","Mozilla/5.0 (Windows NT 10.0; Win64; x64) AppleWebKit/537.36 (KHTML, like Gecko) Chrome/132.0.0.0 Safari/537.36 Edg/132.0.0.0","WebKit","Edge","132.0.0.0","Windows","10.0","https://app.prolific.com/","en-US,en;q=0.9","670db0b5fbb9e80cbee561cc","679edb085803f58d6bbd31ca","679eeaae8946d6e2b913e42e","","null","<img id='selected' src='G_4.jpg' height='90'> <img src='G_8.jpg' height='90'> <img src='G_1.jpg' height='90'> <img src='G_2.jpg' height='90'> <img src='G_5.jpg' height='90'> <img src='G_7.jpg' height='90'> <img src='G_6.jpg' height='90'> <img src='G_3.jpg' height='90'>","null","Animation1","",""
"","","","","","html-keyboard-response","69","159550","0.0-48.0","28","1","2025-02-02 03:47:45","bc01a2b6f61d06f6604adb8657495020","12.74.236.119","Mozilla/5.0 (Windows NT 10.0; Win64; x64) AppleWebKit/537.36 (KHTML, like Gecko) Chrome/132.0.0.0 Safari/537.36 Edg/132.0.0.0","WebKit","Edge","132.0.0.0","Windows","10.0","https://app.prolific.com/","en-US,en;q=0.9","670db0b5fbb9e80cbee561cc","679edb085803f58d6bbd31ca","679eeaae8946d6e2b913e42e","","null","<img id='selected' src='G_4.jpg' height='90'> <img id='selected' src='G_8.jpg' height='90'> <img src='G_1.jpg' height='90'> <img src='G_2.jpg' height='90'> <img src='G_5.jpg' height='90'> <img src='G_7.jpg' height='90'> <img src='G_6.jpg' height='90'> <img src='G_3.jpg' height='90'>","null","Animation1","",""
"","","","","","html-keyboard-response","70","160057","0.0-49.0","28","1","2025-02-02 03:47:45","bc01a2b6f61d06f6604adb8657495020","12.74.236.119","Mozilla/5.0 (Windows NT 10.0; Win64; x64) AppleWebKit/537.36 (KHTML, like Gecko) Chrome/132.0.0.0 Safari/537.36 Edg/132.0.0.0","WebKit","Edge","132.0.0.0","Windows","10.0","https://app.prolific.com/","en-US,en;q=0.9","670db0b5fbb9e80cbee561cc","679edb085803f58d6bbd31ca","679eeaae8946d6e2b913e42e","","null","<img id='selected' src='G_4.jpg' height='90'> <img id='selected' src='G_8.jpg' height='90'> <img src='G_1.jpg' height='90'> <img src='G_2.jpg' height='90'> <img src='G_5.jpg' height='90'> <img src='G_7.jpg' height='90'> <img src='G_6.jpg' height='90'> <img src='G_3.jpg' height='90'>","null","Animation1","",""
"","","","","","html-keyboard-response","71","160365","0.0-50.0","28","1","2025-02-02 03:47:45","bc01a2b6f61d06f6604adb8657495020","12.74.236.119","Mozilla/5.0 (Windows NT 10.0; Win64; x64) AppleWebKit/537.36 (KHTML, like Gecko) Chrome/132.0.0.0 Safari/537.36 Edg/132.0.0.0","WebKit","Edge","132.0.0.0","Windows","10.0","https://app.prolific.com/","en-US,en;q=0.9","670db0b5fbb9e80cbee561cc","679edb085803f58d6bbd31ca","679eeaae8946d6e2b913e42e","","null","<img  src='G_4.jpg' height='90'> <img  src='G_8.jpg' height='90'> <img src='G_1.jpg' height='90'> <img src='G_2.jpg' height='90'> <img src='G_5.jpg' height='90'> <img src='G_7.jpg' height='90'> <img src='G_6.jpg' height='90'> <img src='G_3.jpg' height='90'>","null","Animation1","",""
"","","","","","html-keyboard-response","72","160880","0.0-51.0","28","1","2025-02-02 03:47:45","bc01a2b6f61d06f6604adb8657495020","12.74.236.119","Mozilla/5.0 (Windows NT 10.0; Win64; x64) AppleWebKit/537.36 (KHTML, like Gecko) Chrome/132.0.0.0 Safari/537.36 Edg/132.0.0.0","WebKit","Edge","132.0.0.0","Windows","10.0","https://app.prolific.com/","en-US,en;q=0.9","670db0b5fbb9e80cbee561cc","679edb085803f58d6bbd31ca","679eeaae8946d6e2b913e42e","","null","<img  src='G_4.jpg' height='90'> <img id='selected'  src='G_8.jpg' height='90'> <img src='G_1.jpg' height='90'> <img src='G_2.jpg' height='90'> <img src='G_5.jpg' height='90'> <img src='G_7.jpg' height='90'> <img src='G_6.jpg' height='90'> <img src='G_3.jpg' height='90'>","null","Animation1","",""
"","","","","","html-keyboard-response","73","161398","0.0-52.0","28","1","2025-02-02 03:47:45","bc01a2b6f61d06f6604adb8657495020","12.74.236.119","Mozilla/5.0 (Windows NT 10.0; Win64; x64) AppleWebKit/537.36 (KHTML, like Gecko) Chrome/132.0.0.0 Safari/537.36 Edg/132.0.0.0","WebKit","Edge","132.0.0.0","Windows","10.0","https://app.prolific.com/","en-US,en;q=0.9","670db0b5fbb9e80cbee561cc","679edb085803f58d6bbd31ca","679eeaae8946d6e2b913e42e","","null","<img  src='G_4.jpg' height='90'> <img id='selected'  src='G_8.jpg' height='90'> <img id='selected' src='G_1.jpg' height='90'> <img src='G_2.jpg' height='90'> <img src='G_5.jpg' height='90'> <img src='G_7.jpg' height='90'> <img src='G_6.jpg' height='90'> <img src='G_3.jpg' height='90'>","null","Animation1","",""
"","","","","","html-keyboard-response","74","161913","0.0-53.0","28","1","2025-02-02 03:47:45","bc01a2b6f61d06f6604adb8657495020","12.74.236.119","Mozilla/5.0 (Windows NT 10.0; Win64; x64) AppleWebKit/537.36 (KHTML, like Gecko) Chrome/132.0.0.0 Safari/537.36 Edg/132.0.0.0","WebKit","Edge","132.0.0.0","Windows","10.0","https://app.prolific.com/","en-US,en;q=0.9","670db0b5fbb9e80cbee561cc","679edb085803f58d6bbd31ca","679eeaae8946d6e2b913e42e","","null","<img  src='G_4.jpg' height='90'> <img id='swapped' src='G_1.jpg' height='90'> <img id='swapped'  src='G_8.jpg' height='90'> <img src='G_2.jpg' height='90'> <img src='G_5.jpg' height='90'> <img src='G_7.jpg' height='90'> <img src='G_6.jpg' height='90'> <img src='G_3.jpg' height='90'>","null","Animation1","",""
"","","","","","html-keyboard-response","75","162228","0.0-54.0","28","1","2025-02-02 03:47:45","bc01a2b6f61d06f6604adb8657495020","12.74.236.119","Mozilla/5.0 (Windows NT 10.0; Win64; x64) AppleWebKit/537.36 (KHTML, like Gecko) Chrome/132.0.0.0 Safari/537.36 Edg/132.0.0.0","WebKit","Edge","132.0.0.0","Windows","10.0","https://app.prolific.com/","en-US,en;q=0.9","670db0b5fbb9e80cbee561cc","679edb085803f58d6bbd31ca","679eeaae8946d6e2b913e42e","","null","<img  src='G_4.jpg' height='90'> <img  src='G_1.jpg' height='90'> <img   src='G_8.jpg' height='90'> <img src='G_2.jpg' height='90'> <img src='G_5.jpg' height='90'> <img src='G_7.jpg' height='90'> <img src='G_6.jpg' height='90'> <img src='G_3.jpg' height='90'>","null","Animation1","",""
"","","","","","html-keyboard-response","76","162734","0.0-55.0","28","1","2025-02-02 03:47:45","bc01a2b6f61d06f6604adb8657495020","12.74.236.119","Mozilla/5.0 (Windows NT 10.0; Win64; x64) AppleWebKit/537.36 (KHTML, like Gecko) Chrome/132.0.0.0 Safari/537.36 Edg/132.0.0.0","WebKit","Edge","132.0.0.0","Windows","10.0","https://app.prolific.com/","en-US,en;q=0.9","670db0b5fbb9e80cbee561cc","679edb085803f58d6bbd31ca","679eeaae8946d6e2b913e42e","","null","<img id='selected'  src='G_4.jpg' height='90'> <img  src='G_1.jpg' height='90'> <img   src='G_8.jpg' height='90'> <img src='G_2.jpg' height='90'> <img src='G_5.jpg' height='90'> <img src='G_7.jpg' height='90'> <img src='G_6.jpg' height='90'> <img src='G_3.jpg' height='90'>","null","Animation1","",""
"","","","","","html-keyboard-response","77","163252","0.0-56.0","28","1","2025-02-02 03:47:45","bc01a2b6f61d06f6604adb8657495020","12.74.236.119","Mozilla/5.0 (Windows NT 10.0; Win64; x64) AppleWebKit/537.36 (KHTML, like Gecko) Chrome/132.0.0.0 Safari/537.36 Edg/132.0.0.0","WebKit","Edge","132.0.0.0","Windows","10.0","https://app.prolific.com/","en-US,en;q=0.9","670db0b5fbb9e80cbee561cc","679edb085803f58d6bbd31ca","679eeaae8946d6e2b913e42e","","null","<img id='selected'  src='G_4.jpg' height='90'> <img id='selected'  src='G_1.jpg' height='90'> <img   src='G_8.jpg' height='90'> <img src='G_2.jpg' height='90'> <img src='G_5.jpg' height='90'> <img src='G_7.jpg' height='90'> <img src='G_6.jpg' height='90'> <img src='G_3.jpg' height='90'>","null","Animation1","",""
"","","","","","html-keyboard-response","78","163759","0.0-57.0","28","1","2025-02-02 03:47:45","bc01a2b6f61d06f6604adb8657495020","12.74.236.119","Mozilla/5.0 (Windows NT 10.0; Win64; x64) AppleWebKit/537.36 (KHTML, like Gecko) Chrome/132.0.0.0 Safari/537.36 Edg/132.0.0.0","WebKit","Edge","132.0.0.0","Windows","10.0","https://app.prolific.com/","en-US,en;q=0.9","670db0b5fbb9e80cbee561cc","679edb085803f58d6bbd31ca","679eeaae8946d6e2b913e42e","","null","<img id='swapped'  src='G_1.jpg' height='90'> <img id='swapped'  src='G_4.jpg' height='90'> <img   src='G_8.jpg' height='90'> <img src='G_2.jpg' height='90'> <img src='G_5.jpg' height='90'> <img src='G_7.jpg' height='90'> <img src='G_6.jpg' height='90'> <img src='G_3.jpg' height='90'>","null","Animation1","",""
"","","","","","html-keyboard-response","79","164066","0.0-58.0","28","1","2025-02-02 03:47:45","bc01a2b6f61d06f6604adb8657495020","12.74.236.119","Mozilla/5.0 (Windows NT 10.0; Win64; x64) AppleWebKit/537.36 (KHTML, like Gecko) Chrome/132.0.0.0 Safari/537.36 Edg/132.0.0.0","WebKit","Edge","132.0.0.0","Windows","10.0","https://app.prolific.com/","en-US,en;q=0.9","670db0b5fbb9e80cbee561cc","679edb085803f58d6bbd31ca","679eeaae8946d6e2b913e42e","","null","<img   src='G_1.jpg' height='90'> <img   src='G_4.jpg' height='90'> <img   src='G_8.jpg' height='90'> <img src='G_2.jpg' height='90'> <img src='G_5.jpg' height='90'> <img src='G_7.jpg' height='90'> <img src='G_6.jpg' height='90'> <img src='G_3.jpg' height='90'>","null","Animation1","",""
"","","","","","html-keyboard-response","80","164585","0.0-59.0","28","1","2025-02-02 03:47:45","bc01a2b6f61d06f6604adb8657495020","12.74.236.119","Mozilla/5.0 (Windows NT 10.0; Win64; x64) AppleWebKit/537.36 (KHTML, like Gecko) Chrome/132.0.0.0 Safari/537.36 Edg/132.0.0.0","WebKit","Edge","132.0.0.0","Windows","10.0","https://app.prolific.com/","en-US,en;q=0.9","670db0b5fbb9e80cbee561cc","679edb085803f58d6bbd31ca","679eeaae8946d6e2b913e42e","","null","<img   src='G_1.jpg' height='90'> <img   src='G_4.jpg' height='90'> <img id='selected'   src='G_8.jpg' height='90'> <img src='G_2.jpg' height='90'> <img src='G_5.jpg' height='90'> <img src='G_7.jpg' height='90'> <img src='G_6.jpg' height='90'> <img src='G_3.jpg' height='90'>","null","Animation1","",""
"","","","","","html-keyboard-response","81","165105","0.0-60.0","28","1","2025-02-02 03:47:45","bc01a2b6f61d06f6604adb8657495020","12.74.236.119","Mozilla/5.0 (Windows NT 10.0; Win64; x64) AppleWebKit/537.36 (KHTML, like Gecko) Chrome/132.0.0.0 Safari/537.36 Edg/132.0.0.0","WebKit","Edge","132.0.0.0","Windows","10.0","https://app.prolific.com/","en-US,en;q=0.9","670db0b5fbb9e80cbee561cc","679edb085803f58d6bbd31ca","679eeaae8946d6e2b913e42e","","null","<img   src='G_1.jpg' height='90'> <img   src='G_4.jpg' height='90'> <img id='selected'   src='G_8.jpg' height='90'> <img id='selected' src='G_2.jpg' height='90'> <img src='G_5.jpg' height='90'> <img src='G_7.jpg' height='90'> <img src='G_6.jpg' height='90'> <img src='G_3.jpg' height='90'>","null","Animation1","",""
"","","","","","html-keyboard-response","82","165624","0.0-61.0","28","1","2025-02-02 03:47:45","bc01a2b6f61d06f6604adb8657495020","12.74.236.119","Mozilla/5.0 (Windows NT 10.0; Win64; x64) AppleWebKit/537.36 (KHTML, like Gecko) Chrome/132.0.0.0 Safari/537.36 Edg/132.0.0.0","WebKit","Edge","132.0.0.0","Windows","10.0","https://app.prolific.com/","en-US,en;q=0.9","670db0b5fbb9e80cbee561cc","679edb085803f58d6bbd31ca","679eeaae8946d6e2b913e42e","","null","<img   src='G_1.jpg' height='90'> <img   src='G_4.jpg' height='90'> <img id='swapped' src='G_2.jpg' height='90'> <img id='swapped'   src='G_8.jpg' height='90'> <img src='G_5.jpg' height='90'> <img src='G_7.jpg' height='90'> <img src='G_6.jpg' height='90'> <img src='G_3.jpg' height='90'>","null","Animation1","",""
"","","","","","html-keyboard-response","83","165938","0.0-62.0","28","1","2025-02-02 03:47:45","bc01a2b6f61d06f6604adb8657495020","12.74.236.119","Mozilla/5.0 (Windows NT 10.0; Win64; x64) AppleWebKit/537.36 (KHTML, like Gecko) Chrome/132.0.0.0 Safari/537.36 Edg/132.0.0.0","WebKit","Edge","132.0.0.0","Windows","10.0","https://app.prolific.com/","en-US,en;q=0.9","670db0b5fbb9e80cbee561cc","679edb085803f58d6bbd31ca","679eeaae8946d6e2b913e42e","","null","<img   src='G_1.jpg' height='90'> <img   src='G_4.jpg' height='90'> <img  src='G_2.jpg' height='90'> <img    src='G_8.jpg' height='90'> <img src='G_5.jpg' height='90'> <img src='G_7.jpg' height='90'> <img src='G_6.jpg' height='90'> <img src='G_3.jpg' height='90'>","null","Animation1","",""
"","","","","","html-keyboard-response","84","166449","0.0-63.0","28","1","2025-02-02 03:47:45","bc01a2b6f61d06f6604adb8657495020","12.74.236.119","Mozilla/5.0 (Windows NT 10.0; Win64; x64) AppleWebKit/537.36 (KHTML, like Gecko) Chrome/132.0.0.0 Safari/537.36 Edg/132.0.0.0","WebKit","Edge","132.0.0.0","Windows","10.0","https://app.prolific.com/","en-US,en;q=0.9","670db0b5fbb9e80cbee561cc","679edb085803f58d6bbd31ca","679eeaae8946d6e2b913e42e","","null","<img   src='G_1.jpg' height='90'> <img id='selected'   src='G_4.jpg' height='90'> <img  src='G_2.jpg' height='90'> <img    src='G_8.jpg' height='90'> <img src='G_5.jpg' height='90'> <img src='G_7.jpg' height='90'> <img src='G_6.jpg' height='90'> <img src='G_3.jpg' height='90'>","null","Animation1","",""
"","","","","","html-keyboard-response","85","166969","0.0-64.0","28","1","2025-02-02 03:47:45","bc01a2b6f61d06f6604adb8657495020","12.74.236.119","Mozilla/5.0 (Windows NT 10.0; Win64; x64) AppleWebKit/537.36 (KHTML, like Gecko) Chrome/132.0.0.0 Safari/537.36 Edg/132.0.0.0","WebKit","Edge","132.0.0.0","Windows","10.0","https://app.prolific.com/","en-US,en;q=0.9","670db0b5fbb9e80cbee561cc","679edb085803f58d6bbd31ca","679eeaae8946d6e2b913e42e","","null","<img   src='G_1.jpg' height='90'> <img id='selected'   src='G_4.jpg' height='90'> <img id='selected'  src='G_2.jpg' height='90'> <img    src='G_8.jpg' height='90'> <img src='G_5.jpg' height='90'> <img src='G_7.jpg' height='90'> <img src='G_6.jpg' height='90'> <img src='G_3.jpg' height='90'>","null","Animation1","",""
"","","","","","html-keyboard-response","86","167478","0.0-65.0","28","1","2025-02-02 03:47:45","bc01a2b6f61d06f6604adb8657495020","12.74.236.119","Mozilla/5.0 (Windows NT 10.0; Win64; x64) AppleWebKit/537.36 (KHTML, like Gecko) Chrome/132.0.0.0 Safari/537.36 Edg/132.0.0.0","WebKit","Edge","132.0.0.0","Windows","10.0","https://app.prolific.com/","en-US,en;q=0.9","670db0b5fbb9e80cbee561cc","679edb085803f58d6bbd31ca","679eeaae8946d6e2b913e42e","","null","<img   src='G_1.jpg' height='90'> <img id='swapped'  src='G_2.jpg' height='90'> <img id='swapped'   src='G_4.jpg' height='90'> <img    src='G_8.jpg' height='90'> <img src='G_5.jpg' height='90'> <img src='G_7.jpg' height='90'> <img src='G_6.jpg' height='90'> <img src='G_3.jpg' height='90'>","null","Animation1","",""
"","","","","","html-keyboard-response","87","167791","0.0-66.0","28","1","2025-02-02 03:47:45","bc01a2b6f61d06f6604adb8657495020","12.74.236.119","Mozilla/5.0 (Windows NT 10.0; Win64; x64) AppleWebKit/537.36 (KHTML, like Gecko) Chrome/132.0.0.0 Safari/537.36 Edg/132.0.0.0","WebKit","Edge","132.0.0.0","Windows","10.0","https://app.prolific.com/","en-US,en;q=0.9","670db0b5fbb9e80cbee561cc","679edb085803f58d6bbd31ca","679eeaae8946d6e2b913e42e","","null","<img   src='G_1.jpg' height='90'> <img   src='G_2.jpg' height='90'> <img    src='G_4.jpg' height='90'> <img    src='G_8.jpg' height='90'> <img src='G_5.jpg' height='90'> <img src='G_7.jpg' height='90'> <img src='G_6.jpg' height='90'> <img src='G_3.jpg' height='90'>","null","Animation1","",""
"","","","","","html-keyboard-response","88","168307","0.0-67.0","28","1","2025-02-02 03:47:45","bc01a2b6f61d06f6604adb8657495020","12.74.236.119","Mozilla/5.0 (Windows NT 10.0; Win64; x64) AppleWebKit/537.36 (KHTML, like Gecko) Chrome/132.0.0.0 Safari/537.36 Edg/132.0.0.0","WebKit","Edge","132.0.0.0","Windows","10.0","https://app.prolific.com/","en-US,en;q=0.9","670db0b5fbb9e80cbee561cc","679edb085803f58d6bbd31ca","679eeaae8946d6e2b913e42e","","null","<img id='selected'   src='G_1.jpg' height='90'> <img   src='G_2.jpg' height='90'> <img    src='G_4.jpg' height='90'> <img    src='G_8.jpg' height='90'> <img src='G_5.jpg' height='90'> <img src='G_7.jpg' height='90'> <img src='G_6.jpg' height='90'> <img src='G_3.jpg' height='90'>","null","Animation1","",""
"","","","","","html-keyboard-response","89","168824","0.0-68.0","28","1","2025-02-02 03:47:45","bc01a2b6f61d06f6604adb8657495020","12.74.236.119","Mozilla/5.0 (Windows NT 10.0; Win64; x64) AppleWebKit/537.36 (KHTML, like Gecko) Chrome/132.0.0.0 Safari/537.36 Edg/132.0.0.0","WebKit","Edge","132.0.0.0","Windows","10.0","https://app.prolific.com/","en-US,en;q=0.9","670db0b5fbb9e80cbee561cc","679edb085803f58d6bbd31ca","679eeaae8946d6e2b913e42e","","null","<img id='selected'   src='G_1.jpg' height='90'> <img id='selected'   src='G_2.jpg' height='90'> <img    src='G_4.jpg' height='90'> <img    src='G_8.jpg' height='90'> <img src='G_5.jpg' height='90'> <img src='G_7.jpg' height='90'> <img src='G_6.jpg' height='90'> <img src='G_3.jpg' height='90'>","null","Animation1","",""
"","","","","","html-keyboard-response","90","169330","0.0-69.0","28","1","2025-02-02 03:47:45","bc01a2b6f61d06f6604adb8657495020","12.74.236.119","Mozilla/5.0 (Windows NT 10.0; Win64; x64) AppleWebKit/537.36 (KHTML, like Gecko) Chrome/132.0.0.0 Safari/537.36 Edg/132.0.0.0","WebKit","Edge","132.0.0.0","Windows","10.0","https://app.prolific.com/","en-US,en;q=0.9","670db0b5fbb9e80cbee561cc","679edb085803f58d6bbd31ca","679eeaae8946d6e2b913e42e","","null","<img id='swapped'   src='G_2.jpg' height='90'> <img id='swapped'   src='G_1.jpg' height='90'> <img    src='G_4.jpg' height='90'> <img    src='G_8.jpg' height='90'> <img src='G_5.jpg' height='90'> <img src='G_7.jpg' height='90'> <img src='G_6.jpg' height='90'> <img src='G_3.jpg' height='90'>","null","Animation1","",""
"","","","","","html-keyboard-response","91","169643","0.0-70.0","28","1","2025-02-02 03:47:45","bc01a2b6f61d06f6604adb8657495020","12.74.236.119","Mozilla/5.0 (Windows NT 10.0; Win64; x64) AppleWebKit/537.36 (KHTML, like Gecko) Chrome/132.0.0.0 Safari/537.36 Edg/132.0.0.0","WebKit","Edge","132.0.0.0","Windows","10.0","https://app.prolific.com/","en-US,en;q=0.9","670db0b5fbb9e80cbee561cc","679edb085803f58d6bbd31ca","679eeaae8946d6e2b913e42e","","null","<img    src='G_2.jpg' height='90'> <img    src='G_1.jpg' height='90'> <img    src='G_4.jpg' height='90'> <img    src='G_8.jpg' height='90'> <img src='G_5.jpg' height='90'> <img src='G_7.jpg' height='90'> <img src='G_6.jpg' height='90'> <img src='G_3.jpg' height='90'>","null","Animation1","",""
"","","","","","html-keyboard-response","92","170152","0.0-71.0","28","1","2025-02-02 03:47:45","bc01a2b6f61d06f6604adb8657495020","12.74.236.119","Mozilla/5.0 (Windows NT 10.0; Win64; x64) AppleWebKit/537.36 (KHTML, like Gecko) Chrome/132.0.0.0 Safari/537.36 Edg/132.0.0.0","WebKit","Edge","132.0.0.0","Windows","10.0","https://app.prolific.com/","en-US,en;q=0.9","670db0b5fbb9e80cbee561cc","679edb085803f58d6bbd31ca","679eeaae8946d6e2b913e42e","","null","<img    src='G_2.jpg' height='90'> <img    src='G_1.jpg' height='90'> <img    src='G_4.jpg' height='90'> <img id='selected'    src='G_8.jpg' height='90'> <img src='G_5.jpg' height='90'> <img src='G_7.jpg' height='90'> <img src='G_6.jpg' height='90'> <img src='G_3.jpg' height='90'>","null","Animation1","",""
"","","","","","html-keyboard-response","93","170660","0.0-72.0","28","1","2025-02-02 03:47:45","bc01a2b6f61d06f6604adb8657495020","12.74.236.119","Mozilla/5.0 (Windows NT 10.0; Win64; x64) AppleWebKit/537.36 (KHTML, like Gecko) Chrome/132.0.0.0 Safari/537.36 Edg/132.0.0.0","WebKit","Edge","132.0.0.0","Windows","10.0","https://app.prolific.com/","en-US,en;q=0.9","670db0b5fbb9e80cbee561cc","679edb085803f58d6bbd31ca","679eeaae8946d6e2b913e42e","","null","<img    src='G_2.jpg' height='90'> <img    src='G_1.jpg' height='90'> <img    src='G_4.jpg' height='90'> <img id='selected'    src='G_8.jpg' height='90'> <img id='selected' src='G_5.jpg' height='90'> <img src='G_7.jpg' height='90'> <img src='G_6.jpg' height='90'> <img src='G_3.jpg' height='90'>","null","Animation1","",""
"","","","","","html-keyboard-response","94","171172","0.0-73.0","28","1","2025-02-02 03:47:45","bc01a2b6f61d06f6604adb8657495020","12.74.236.119","Mozilla/5.0 (Windows NT 10.0; Win64; x64) AppleWebKit/537.36 (KHTML, like Gecko) Chrome/132.0.0.0 Safari/537.36 Edg/132.0.0.0","WebKit","Edge","132.0.0.0","Windows","10.0","https://app.prolific.com/","en-US,en;q=0.9","670db0b5fbb9e80cbee561cc","679edb085803f58d6bbd31ca","679eeaae8946d6e2b913e42e","","null","<img    src='G_2.jpg' height='90'> <img    src='G_1.jpg' height='90'> <img    src='G_4.jpg' height='90'> <img id='swapped' src='G_5.jpg' height='90'> <img id='swapped'    src='G_8.jpg' height='90'> <img src='G_7.jpg' height='90'> <img src='G_6.jpg' height='90'> <img src='G_3.jpg' height='90'>","null","Animation1","",""
"","","","","","html-keyboard-response","95","171489","0.0-74.0","28","1","2025-02-02 03:47:45","bc01a2b6f61d06f6604adb8657495020","12.74.236.119","Mozilla/5.0 (Windows NT 10.0; Win64; x64) AppleWebKit/537.36 (KHTML, like Gecko) Chrome/132.0.0.0 Safari/537.36 Edg/132.0.0.0","WebKit","Edge","132.0.0.0","Windows","10.0","https://app.prolific.com/","en-US,en;q=0.9","670db0b5fbb9e80cbee561cc","679edb085803f58d6bbd31ca","679eeaae8946d6e2b913e42e","","null","<img    src='G_2.jpg' height='90'> <img    src='G_1.jpg' height='90'> <img    src='G_4.jpg' height='90'> <img  src='G_5.jpg' height='90'> <img     src='G_8.jpg' height='90'> <img src='G_7.jpg' height='90'> <img src='G_6.jpg' height='90'> <img src='G_3.jpg' height='90'>","null","Animation1","",""
"","","","","","html-keyboard-response","96","172009","0.0-75.0","28","1","2025-02-02 03:47:45","bc01a2b6f61d06f6604adb8657495020","12.74.236.119","Mozilla/5.0 (Windows NT 10.0; Win64; x64) AppleWebKit/537.36 (KHTML, like Gecko) Chrome/132.0.0.0 Safari/537.36 Edg/132.0.0.0","WebKit","Edge","132.0.0.0","Windows","10.0","https://app.prolific.com/","en-US,en;q=0.9","670db0b5fbb9e80cbee561cc","679edb085803f58d6bbd31ca","679eeaae8946d6e2b913e42e","","null","<img    src='G_2.jpg' height='90'> <img    src='G_1.jpg' height='90'> <img id='selected'    src='G_4.jpg' height='90'> <img  src='G_5.jpg' height='90'> <img     src='G_8.jpg' height='90'> <img src='G_7.jpg' height='90'> <img src='G_6.jpg' height='90'> <img src='G_3.jpg' height='90'>","null","Animation1","",""
"","","","","","html-keyboard-response","97","172520","0.0-76.0","28","1","2025-02-02 03:47:45","bc01a2b6f61d06f6604adb8657495020","12.74.236.119","Mozilla/5.0 (Windows NT 10.0; Win64; x64) AppleWebKit/537.36 (KHTML, like Gecko) Chrome/132.0.0.0 Safari/537.36 Edg/132.0.0.0","WebKit","Edge","132.0.0.0","Windows","10.0","https://app.prolific.com/","en-US,en;q=0.9","670db0b5fbb9e80cbee561cc","679edb085803f58d6bbd31ca","679eeaae8946d6e2b913e42e","","null","<img    src='G_2.jpg' height='90'> <img    src='G_1.jpg' height='90'> <img id='selected'    src='G_4.jpg' height='90'> <img id='selected'  src='G_5.jpg' height='90'> <img     src='G_8.jpg' height='90'> <img src='G_7.jpg' height='90'> <img src='G_6.jpg' height='90'> <img src='G_3.jpg' height='90'>","null","Animation1","",""
"","","","","","html-keyboard-response","98","173030","0.0-77.0","28","1","2025-02-02 03:47:45","bc01a2b6f61d06f6604adb8657495020","12.74.236.119","Mozilla/5.0 (Windows NT 10.0; Win64; x64) AppleWebKit/537.36 (KHTML, like Gecko) Chrome/132.0.0.0 Safari/537.36 Edg/132.0.0.0","WebKit","Edge","132.0.0.0","Windows","10.0","https://app.prolific.com/","en-US,en;q=0.9","670db0b5fbb9e80cbee561cc","679edb085803f58d6bbd31ca","679eeaae8946d6e2b913e42e","","null","<img    src='G_2.jpg' height='90'> <img    src='G_1.jpg' height='90'> <img id='swapped'  src='G_5.jpg' height='90'> <img id='swapped'    src='G_4.jpg' height='90'> <img     src='G_8.jpg' height='90'> <img src='G_7.jpg' height='90'> <img src='G_6.jpg' height='90'> <img src='G_3.jpg' height='90'>","null","Animation1","",""
"","","","","","html-keyboard-response","99","173344","0.0-78.0","28","1","2025-02-02 03:47:45","bc01a2b6f61d06f6604adb8657495020","12.74.236.119","Mozilla/5.0 (Windows NT 10.0; Win64; x64) AppleWebKit/537.36 (KHTML, like Gecko) Chrome/132.0.0.0 Safari/537.36 Edg/132.0.0.0","WebKit","Edge","132.0.0.0","Windows","10.0","https://app.prolific.com/","en-US,en;q=0.9","670db0b5fbb9e80cbee561cc","679edb085803f58d6bbd31ca","679eeaae8946d6e2b913e42e","","null","<img    src='G_2.jpg' height='90'> <img    src='G_1.jpg' height='90'> <img   src='G_5.jpg' height='90'> <img     src='G_4.jpg' height='90'> <img     src='G_8.jpg' height='90'> <img src='G_7.jpg' height='90'> <img src='G_6.jpg' height='90'> <img src='G_3.jpg' height='90'>","null","Animation1","",""
"","","","","","html-keyboard-response","100","173852","0.0-79.0","28","1","2025-02-02 03:47:45","bc01a2b6f61d06f6604adb8657495020","12.74.236.119","Mozilla/5.0 (Windows NT 10.0; Win64; x64) AppleWebKit/537.36 (KHTML, like Gecko) Chrome/132.0.0.0 Safari/537.36 Edg/132.0.0.0","WebKit","Edge","132.0.0.0","Windows","10.0","https://app.prolific.com/","en-US,en;q=0.9","670db0b5fbb9e80cbee561cc","679edb085803f58d6bbd31ca","679eeaae8946d6e2b913e42e","","null","<img    src='G_2.jpg' height='90'> <img id='selected'    src='G_1.jpg' height='90'> <img   src='G_5.jpg' height='90'> <img     src='G_4.jpg' height='90'> <img     src='G_8.jpg' height='90'> <img src='G_7.jpg' height='90'> <img src='G_6.jpg' height='90'> <img src='G_3.jpg' height='90'>","null","Animation1","",""
"","","","","","html-keyboard-response","101","174372","0.0-80.0","28","1","2025-02-02 03:47:45","bc01a2b6f61d06f6604adb8657495020","12.74.236.119","Mozilla/5.0 (Windows NT 10.0; Win64; x64) AppleWebKit/537.36 (KHTML, like Gecko) Chrome/132.0.0.0 Safari/537.36 Edg/132.0.0.0","WebKit","Edge","132.0.0.0","Windows","10.0","https://app.prolific.com/","en-US,en;q=0.9","670db0b5fbb9e80cbee561cc","679edb085803f58d6bbd31ca","679eeaae8946d6e2b913e42e","","null","<img    src='G_2.jpg' height='90'> <img id='selected'    src='G_1.jpg' height='90'> <img id='selected'   src='G_5.jpg' height='90'> <img     src='G_4.jpg' height='90'> <img     src='G_8.jpg' height='90'> <img src='G_7.jpg' height='90'> <img src='G_6.jpg' height='90'> <img src='G_3.jpg' height='90'>","null","Animation1","",""
"","","","","","html-keyboard-response","102","174884","0.0-81.0","28","1","2025-02-02 03:47:45","bc01a2b6f61d06f6604adb8657495020","12.74.236.119","Mozilla/5.0 (Windows NT 10.0; Win64; x64) AppleWebKit/537.36 (KHTML, like Gecko) Chrome/132.0.0.0 Safari/537.36 Edg/132.0.0.0","WebKit","Edge","132.0.0.0","Windows","10.0","https://app.prolific.com/","en-US,en;q=0.9","670db0b5fbb9e80cbee561cc","679edb085803f58d6bbd31ca","679eeaae8946d6e2b913e42e","","null","<img    src='G_2.jpg' height='90'> <img id='swapped'   src='G_5.jpg' height='90'> <img id='swapped'    src='G_1.jpg' height='90'> <img     src='G_4.jpg' height='90'> <img     src='G_8.jpg' height='90'> <img src='G_7.jpg' height='90'> <img src='G_6.jpg' height='90'> <img src='G_3.jpg' height='90'>","null","Animation1","",""
"","","","","","html-keyboard-response","103","175203","0.0-82.0","28","1","2025-02-02 03:47:45","bc01a2b6f61d06f6604adb8657495020","12.74.236.119","Mozilla/5.0 (Windows NT 10.0; Win64; x64) AppleWebKit/537.36 (KHTML, like Gecko) Chrome/132.0.0.0 Safari/537.36 Edg/132.0.0.0","WebKit","Edge","132.0.0.0","Windows","10.0","https://app.prolific.com/","en-US,en;q=0.9","670db0b5fbb9e80cbee561cc","679edb085803f58d6bbd31ca","679eeaae8946d6e2b913e42e","","null","<img    src='G_2.jpg' height='90'> <img    src='G_5.jpg' height='90'> <img     src='G_1.jpg' height='90'> <img     src='G_4.jpg' height='90'> <img     src='G_8.jpg' height='90'> <img src='G_7.jpg' height='90'> <img src='G_6.jpg' height='90'> <img src='G_3.jpg' height='90'>","null","Animation1","",""
"","","","","","html-keyboard-response","104","175712","0.0-83.0","28","1","2025-02-02 03:47:45","bc01a2b6f61d06f6604adb8657495020","12.74.236.119","Mozilla/5.0 (Windows NT 10.0; Win64; x64) AppleWebKit/537.36 (KHTML, like Gecko) Chrome/132.0.0.0 Safari/537.36 Edg/132.0.0.0","WebKit","Edge","132.0.0.0","Windows","10.0","https://app.prolific.com/","en-US,en;q=0.9","670db0b5fbb9e80cbee561cc","679edb085803f58d6bbd31ca","679eeaae8946d6e2b913e42e","","null","<img id='selected'    src='G_2.jpg' height='90'> <img    src='G_5.jpg' height='90'> <img     src='G_1.jpg' height='90'> <img     src='G_4.jpg' height='90'> <img     src='G_8.jpg' height='90'> <img src='G_7.jpg' height='90'> <img src='G_6.jpg' height='90'> <img src='G_3.jpg' height='90'>","null","Animation1","",""
"","","","","","html-keyboard-response","105","176224","0.0-84.0","28","1","2025-02-02 03:47:45","bc01a2b6f61d06f6604adb8657495020","12.74.236.119","Mozilla/5.0 (Windows NT 10.0; Win64; x64) AppleWebKit/537.36 (KHTML, like Gecko) Chrome/132.0.0.0 Safari/537.36 Edg/132.0.0.0","WebKit","Edge","132.0.0.0","Windows","10.0","https://app.prolific.com/","en-US,en;q=0.9","670db0b5fbb9e80cbee561cc","679edb085803f58d6bbd31ca","679eeaae8946d6e2b913e42e","","null","<img id='selected'    src='G_2.jpg' height='90'> <img id='selected'    src='G_5.jpg' height='90'> <img     src='G_1.jpg' height='90'> <img     src='G_4.jpg' height='90'> <img     src='G_8.jpg' height='90'> <img src='G_7.jpg' height='90'> <img src='G_6.jpg' height='90'> <img src='G_3.jpg' height='90'>","null","Animation1","",""
"","","","","","html-keyboard-response","106","176741","0.0-85.0","28","1","2025-02-02 03:47:45","bc01a2b6f61d06f6604adb8657495020","12.74.236.119","Mozilla/5.0 (Windows NT 10.0; Win64; x64) AppleWebKit/537.36 (KHTML, like Gecko) Chrome/132.0.0.0 Safari/537.36 Edg/132.0.0.0","WebKit","Edge","132.0.0.0","Windows","10.0","https://app.prolific.com/","en-US,en;q=0.9","670db0b5fbb9e80cbee561cc","679edb085803f58d6bbd31ca","679eeaae8946d6e2b913e42e","","null","<img id='selected'    src='G_2.jpg' height='90'> <img id='selected'    src='G_5.jpg' height='90'> <img     src='G_1.jpg' height='90'> <img     src='G_4.jpg' height='90'> <img     src='G_8.jpg' height='90'> <img src='G_7.jpg' height='90'> <img src='G_6.jpg' height='90'> <img src='G_3.jpg' height='90'>","null","Animation1","",""
"","","","","","html-keyboard-response","107","177057","0.0-86.0","28","1","2025-02-02 03:47:45","bc01a2b6f61d06f6604adb8657495020","12.74.236.119","Mozilla/5.0 (Windows NT 10.0; Win64; x64) AppleWebKit/537.36 (KHTML, like Gecko) Chrome/132.0.0.0 Safari/537.36 Edg/132.0.0.0","WebKit","Edge","132.0.0.0","Windows","10.0","https://app.prolific.com/","en-US,en;q=0.9","670db0b5fbb9e80cbee561cc","679edb085803f58d6bbd31ca","679eeaae8946d6e2b913e42e","","null","<img     src='G_2.jpg' height='90'> <img     src='G_5.jpg' height='90'> <img     src='G_1.jpg' height='90'> <img     src='G_4.jpg' height='90'> <img     src='G_8.jpg' height='90'> <img src='G_7.jpg' height='90'> <img src='G_6.jpg' height='90'> <img src='G_3.jpg' height='90'>","null","Animation1","",""
"","","","","","html-keyboard-response","108","177577","0.0-87.0","28","1","2025-02-02 03:47:45","bc01a2b6f61d06f6604adb8657495020","12.74.236.119","Mozilla/5.0 (Windows NT 10.0; Win64; x64) AppleWebKit/537.36 (KHTML, like Gecko) Chrome/132.0.0.0 Safari/537.36 Edg/132.0.0.0","WebKit","Edge","132.0.0.0","Windows","10.0","https://app.prolific.com/","en-US,en;q=0.9","670db0b5fbb9e80cbee561cc","679edb085803f58d6bbd31ca","679eeaae8946d6e2b913e42e","","null","<img     src='G_2.jpg' height='90'> <img     src='G_5.jpg' height='90'> <img     src='G_1.jpg' height='90'> <img     src='G_4.jpg' height='90'> <img id='selected'     src='G_8.jpg' height='90'> <img src='G_7.jpg' height='90'> <img src='G_6.jpg' height='90'> <img src='G_3.jpg' height='90'>","null","Animation1","",""
"","","","","","html-keyboard-response","109","178089","0.0-88.0","28","1","2025-02-02 03:47:45","bc01a2b6f61d06f6604adb8657495020","12.74.236.119","Mozilla/5.0 (Windows NT 10.0; Win64; x64) AppleWebKit/537.36 (KHTML, like Gecko) Chrome/132.0.0.0 Safari/537.36 Edg/132.0.0.0","WebKit","Edge","132.0.0.0","Windows","10.0","https://app.prolific.com/","en-US,en;q=0.9","670db0b5fbb9e80cbee561cc","679edb085803f58d6bbd31ca","679eeaae8946d6e2b913e42e","","null","<img     src='G_2.jpg' height='90'> <img     src='G_5.jpg' height='90'> <img     src='G_1.jpg' height='90'> <img     src='G_4.jpg' height='90'> <img id='selected'     src='G_8.jpg' height='90'> <img id='selected' src='G_7.jpg' height='90'> <img src='G_6.jpg' height='90'> <img src='G_3.jpg' height='90'>","null","Animation1","",""
"","","","","","html-keyboard-response","110","178609","0.0-89.0","28","1","2025-02-02 03:47:45","bc01a2b6f61d06f6604adb8657495020","12.74.236.119","Mozilla/5.0 (Windows NT 10.0; Win64; x64) AppleWebKit/537.36 (KHTML, like Gecko) Chrome/132.0.0.0 Safari/537.36 Edg/132.0.0.0","WebKit","Edge","132.0.0.0","Windows","10.0","https://app.prolific.com/","en-US,en;q=0.9","670db0b5fbb9e80cbee561cc","679edb085803f58d6bbd31ca","679eeaae8946d6e2b913e42e","","null","<img     src='G_2.jpg' height='90'> <img     src='G_5.jpg' height='90'> <img     src='G_1.jpg' height='90'> <img     src='G_4.jpg' height='90'> <img id='swapped' src='G_7.jpg' height='90'> <img id='swapped'     src='G_8.jpg' height='90'> <img src='G_6.jpg' height='90'> <img src='G_3.jpg' height='90'>","null","Animation1","",""
"","","","","","html-keyboard-response","111","178922","0.0-90.0","28","1","2025-02-02 03:47:45","bc01a2b6f61d06f6604adb8657495020","12.74.236.119","Mozilla/5.0 (Windows NT 10.0; Win64; x64) AppleWebKit/537.36 (KHTML, like Gecko) Chrome/132.0.0.0 Safari/537.36 Edg/132.0.0.0","WebKit","Edge","132.0.0.0","Windows","10.0","https://app.prolific.com/","en-US,en;q=0.9","670db0b5fbb9e80cbee561cc","679edb085803f58d6bbd31ca","679eeaae8946d6e2b913e42e","","null","<img     src='G_2.jpg' height='90'> <img     src='G_5.jpg' height='90'> <img     src='G_1.jpg' height='90'> <img     src='G_4.jpg' height='90'> <img  src='G_7.jpg' height='90'> <img      src='G_8.jpg' height='90'> <img src='G_6.jpg' height='90'> <img src='G_3.jpg' height='90'>","null","Animation1","",""
"","","","","","html-keyboard-response","112","179440","0.0-91.0","28","1","2025-02-02 03:47:45","bc01a2b6f61d06f6604adb8657495020","12.74.236.119","Mozilla/5.0 (Windows NT 10.0; Win64; x64) AppleWebKit/537.36 (KHTML, like Gecko) Chrome/132.0.0.0 Safari/537.36 Edg/132.0.0.0","WebKit","Edge","132.0.0.0","Windows","10.0","https://app.prolific.com/","en-US,en;q=0.9","670db0b5fbb9e80cbee561cc","679edb085803f58d6bbd31ca","679eeaae8946d6e2b913e42e","","null","<img     src='G_2.jpg' height='90'> <img     src='G_5.jpg' height='90'> <img     src='G_1.jpg' height='90'> <img id='selected'     src='G_4.jpg' height='90'> <img  src='G_7.jpg' height='90'> <img      src='G_8.jpg' height='90'> <img src='G_6.jpg' height='90'> <img src='G_3.jpg' height='90'>","null","Animation1","",""
"","","","","","html-keyboard-response","113","179952","0.0-92.0","28","1","2025-02-02 03:47:45","bc01a2b6f61d06f6604adb8657495020","12.74.236.119","Mozilla/5.0 (Windows NT 10.0; Win64; x64) AppleWebKit/537.36 (KHTML, like Gecko) Chrome/132.0.0.0 Safari/537.36 Edg/132.0.0.0","WebKit","Edge","132.0.0.0","Windows","10.0","https://app.prolific.com/","en-US,en;q=0.9","670db0b5fbb9e80cbee561cc","679edb085803f58d6bbd31ca","679eeaae8946d6e2b913e42e","","null","<img     src='G_2.jpg' height='90'> <img     src='G_5.jpg' height='90'> <img     src='G_1.jpg' height='90'> <img id='selected'     src='G_4.jpg' height='90'> <img id='selected'  src='G_7.jpg' height='90'> <img      src='G_8.jpg' height='90'> <img src='G_6.jpg' height='90'> <img src='G_3.jpg' height='90'>","null","Animation1","",""
"","","","","","html-keyboard-response","114","180472","0.0-93.0","28","1","2025-02-02 03:47:45","bc01a2b6f61d06f6604adb8657495020","12.74.236.119","Mozilla/5.0 (Windows NT 10.0; Win64; x64) AppleWebKit/537.36 (KHTML, like Gecko) Chrome/132.0.0.0 Safari/537.36 Edg/132.0.0.0","WebKit","Edge","132.0.0.0","Windows","10.0","https://app.prolific.com/","en-US,en;q=0.9","670db0b5fbb9e80cbee561cc","679edb085803f58d6bbd31ca","679eeaae8946d6e2b913e42e","","null","<img     src='G_2.jpg' height='90'> <img     src='G_5.jpg' height='90'> <img     src='G_1.jpg' height='90'> <img id='selected'     src='G_4.jpg' height='90'> <img id='selected'  src='G_7.jpg' height='90'> <img      src='G_8.jpg' height='90'> <img src='G_6.jpg' height='90'> <img src='G_3.jpg' height='90'>","null","Animation1","",""
"","","","","","html-keyboard-response","115","180790","0.0-94.0","28","1","2025-02-02 03:47:45","bc01a2b6f61d06f6604adb8657495020","12.74.236.119","Mozilla/5.0 (Windows NT 10.0; Win64; x64) AppleWebKit/537.36 (KHTML, like Gecko) Chrome/132.0.0.0 Safari/537.36 Edg/132.0.0.0","WebKit","Edge","132.0.0.0","Windows","10.0","https://app.prolific.com/","en-US,en;q=0.9","670db0b5fbb9e80cbee561cc","679edb085803f58d6bbd31ca","679eeaae8946d6e2b913e42e","","null","<img     src='G_2.jpg' height='90'> <img     src='G_5.jpg' height='90'> <img     src='G_1.jpg' height='90'> <img      src='G_4.jpg' height='90'> <img   src='G_7.jpg' height='90'> <img      src='G_8.jpg' height='90'> <img src='G_6.jpg' height='90'> <img src='G_3.jpg' height='90'>","null","Animation1","",""
"","","","","","html-keyboard-response","116","181298","0.0-95.0","28","1","2025-02-02 03:47:45","bc01a2b6f61d06f6604adb8657495020","12.74.236.119","Mozilla/5.0 (Windows NT 10.0; Win64; x64) AppleWebKit/537.36 (KHTML, like Gecko) Chrome/132.0.0.0 Safari/537.36 Edg/132.0.0.0","WebKit","Edge","132.0.0.0","Windows","10.0","https://app.prolific.com/","en-US,en;q=0.9","670db0b5fbb9e80cbee561cc","679edb085803f58d6bbd31ca","679eeaae8946d6e2b913e42e","","null","<img     src='G_2.jpg' height='90'> <img     src='G_5.jpg' height='90'> <img     src='G_1.jpg' height='90'> <img      src='G_4.jpg' height='90'> <img   src='G_7.jpg' height='90'> <img id='selected'      src='G_8.jpg' height='90'> <img src='G_6.jpg' height='90'> <img src='G_3.jpg' height='90'>","null","Animation1","",""
"","","","","","html-keyboard-response","117","181807","0.0-96.0","28","1","2025-02-02 03:47:45","bc01a2b6f61d06f6604adb8657495020","12.74.236.119","Mozilla/5.0 (Windows NT 10.0; Win64; x64) AppleWebKit/537.36 (KHTML, like Gecko) Chrome/132.0.0.0 Safari/537.36 Edg/132.0.0.0","WebKit","Edge","132.0.0.0","Windows","10.0","https://app.prolific.com/","en-US,en;q=0.9","670db0b5fbb9e80cbee561cc","679edb085803f58d6bbd31ca","679eeaae8946d6e2b913e42e","","null","<img     src='G_2.jpg' height='90'> <img     src='G_5.jpg' height='90'> <img     src='G_1.jpg' height='90'> <img      src='G_4.jpg' height='90'> <img   src='G_7.jpg' height='90'> <img id='selected'      src='G_8.jpg' height='90'> <img id='selected' src='G_6.jpg' height='90'> <img src='G_3.jpg' height='90'>","null","Animation1","",""
"","","","","","html-keyboard-response","118","182326","0.0-97.0","28","1","2025-02-02 03:47:45","bc01a2b6f61d06f6604adb8657495020","12.74.236.119","Mozilla/5.0 (Windows NT 10.0; Win64; x64) AppleWebKit/537.36 (KHTML, like Gecko) Chrome/132.0.0.0 Safari/537.36 Edg/132.0.0.0","WebKit","Edge","132.0.0.0","Windows","10.0","https://app.prolific.com/","en-US,en;q=0.9","670db0b5fbb9e80cbee561cc","679edb085803f58d6bbd31ca","679eeaae8946d6e2b913e42e","","null","<img     src='G_2.jpg' height='90'> <img     src='G_5.jpg' height='90'> <img     src='G_1.jpg' height='90'> <img      src='G_4.jpg' height='90'> <img   src='G_7.jpg' height='90'> <img id='selected'      src='G_8.jpg' height='90'> <img id='selected' src='G_6.jpg' height='90'> <img src='G_3.jpg' height='90'>","null","Animation1","",""
"","","","","","html-keyboard-response","119","182645","0.0-98.0","28","1","2025-02-02 03:47:45","bc01a2b6f61d06f6604adb8657495020","12.74.236.119","Mozilla/5.0 (Windows NT 10.0; Win64; x64) AppleWebKit/537.36 (KHTML, like Gecko) Chrome/132.0.0.0 Safari/537.36 Edg/132.0.0.0","WebKit","Edge","132.0.0.0","Windows","10.0","https://app.prolific.com/","en-US,en;q=0.9","670db0b5fbb9e80cbee561cc","679edb085803f58d6bbd31ca","679eeaae8946d6e2b913e42e","","null","<img     src='G_2.jpg' height='90'> <img     src='G_5.jpg' height='90'> <img     src='G_1.jpg' height='90'> <img      src='G_4.jpg' height='90'> <img   src='G_7.jpg' height='90'> <img       src='G_8.jpg' height='90'> <img  src='G_6.jpg' height='90'> <img src='G_3.jpg' height='90'>","null","Animation1","",""
"","","","","","html-keyboard-response","120","183162","0.0-99.0","28","1","2025-02-02 03:47:45","bc01a2b6f61d06f6604adb8657495020","12.74.236.119","Mozilla/5.0 (Windows NT 10.0; Win64; x64) AppleWebKit/537.36 (KHTML, like Gecko) Chrome/132.0.0.0 Safari/537.36 Edg/132.0.0.0","WebKit","Edge","132.0.0.0","Windows","10.0","https://app.prolific.com/","en-US,en;q=0.9","670db0b5fbb9e80cbee561cc","679edb085803f58d6bbd31ca","679eeaae8946d6e2b913e42e","","null","<img     src='G_2.jpg' height='90'> <img     src='G_5.jpg' height='90'> <img     src='G_1.jpg' height='90'> <img      src='G_4.jpg' height='90'> <img   src='G_7.jpg' height='90'> <img       src='G_8.jpg' height='90'> <img id='selected'  src='G_6.jpg' height='90'> <img src='G_3.jpg' height='90'>","null","Animation1","",""
"","","","","","html-keyboard-response","121","183676","0.0-100.0","28","1","2025-02-02 03:47:45","bc01a2b6f61d06f6604adb8657495020","12.74.236.119","Mozilla/5.0 (Windows NT 10.0; Win64; x64) AppleWebKit/537.36 (KHTML, like Gecko) Chrome/132.0.0.0 Safari/537.36 Edg/132.0.0.0","WebKit","Edge","132.0.0.0","Windows","10.0","https://app.prolific.com/","en-US,en;q=0.9","670db0b5fbb9e80cbee561cc","679edb085803f58d6bbd31ca","679eeaae8946d6e2b913e42e","","null","<img     src='G_2.jpg' height='90'> <img     src='G_5.jpg' height='90'> <img     src='G_1.jpg' height='90'> <img      src='G_4.jpg' height='90'> <img   src='G_7.jpg' height='90'> <img       src='G_8.jpg' height='90'> <img id='selected'  src='G_6.jpg' height='90'> <img id='selected' src='G_3.jpg' height='90'>","null","Animation1","",""
"","","","","","html-keyboard-response","122","184199","0.0-101.0","28","1","2025-02-02 03:47:45","bc01a2b6f61d06f6604adb8657495020","12.74.236.119","Mozilla/5.0 (Windows NT 10.0; Win64; x64) AppleWebKit/537.36 (KHTML, like Gecko) Chrome/132.0.0.0 Safari/537.36 Edg/132.0.0.0","WebKit","Edge","132.0.0.0","Windows","10.0","https://app.prolific.com/","en-US,en;q=0.9","670db0b5fbb9e80cbee561cc","679edb085803f58d6bbd31ca","679eeaae8946d6e2b913e42e","","null","<img     src='G_2.jpg' height='90'> <img     src='G_5.jpg' height='90'> <img     src='G_1.jpg' height='90'> <img      src='G_4.jpg' height='90'> <img   src='G_7.jpg' height='90'> <img       src='G_8.jpg' height='90'> <img id='swapped' src='G_3.jpg' height='90'> <img id='swapped'  src='G_6.jpg' height='90'>","null","Animation1","",""
"","","","","","html-keyboard-response","123","184517","0.0-102.0","28","1","2025-02-02 03:47:45","bc01a2b6f61d06f6604adb8657495020","12.74.236.119","Mozilla/5.0 (Windows NT 10.0; Win64; x64) AppleWebKit/537.36 (KHTML, like Gecko) Chrome/132.0.0.0 Safari/537.36 Edg/132.0.0.0","WebKit","Edge","132.0.0.0","Windows","10.0","https://app.prolific.com/","en-US,en;q=0.9","670db0b5fbb9e80cbee561cc","679edb085803f58d6bbd31ca","679eeaae8946d6e2b913e42e","","null","<img     src='G_2.jpg' height='90'> <img     src='G_5.jpg' height='90'> <img     src='G_1.jpg' height='90'> <img      src='G_4.jpg' height='90'> <img   src='G_7.jpg' height='90'> <img       src='G_8.jpg' height='90'> <img  src='G_3.jpg' height='90'> <img   src='G_6.jpg' height='90'>","null","Animation1","",""
"","","","","","html-keyboard-response","124","185029","0.0-103.0","28","1","2025-02-02 03:47:45","bc01a2b6f61d06f6604adb8657495020","12.74.236.119","Mozilla/5.0 (Windows NT 10.0; Win64; x64) AppleWebKit/537.36 (KHTML, like Gecko) Chrome/132.0.0.0 Safari/537.36 Edg/132.0.0.0","WebKit","Edge","132.0.0.0","Windows","10.0","https://app.prolific.com/","en-US,en;q=0.9","670db0b5fbb9e80cbee561cc","679edb085803f58d6bbd31ca","679eeaae8946d6e2b913e42e","","null","<img     src='G_2.jpg' height='90'> <img     src='G_5.jpg' height='90'> <img     src='G_1.jpg' height='90'> <img      src='G_4.jpg' height='90'> <img   src='G_7.jpg' height='90'> <img id='selected'       src='G_8.jpg' height='90'> <img  src='G_3.jpg' height='90'> <img   src='G_6.jpg' height='90'>","null","Animation1","",""
"","","","","","html-keyboard-response","125","185546","0.0-104.0","28","1","2025-02-02 03:47:45","bc01a2b6f61d06f6604adb8657495020","12.74.236.119","Mozilla/5.0 (Windows NT 10.0; Win64; x64) AppleWebKit/537.36 (KHTML, like Gecko) Chrome/132.0.0.0 Safari/537.36 Edg/132.0.0.0","WebKit","Edge","132.0.0.0","Windows","10.0","https://app.prolific.com/","en-US,en;q=0.9","670db0b5fbb9e80cbee561cc","679edb085803f58d6bbd31ca","679eeaae8946d6e2b913e42e","","null","<img     src='G_2.jpg' height='90'> <img     src='G_5.jpg' height='90'> <img     src='G_1.jpg' height='90'> <img      src='G_4.jpg' height='90'> <img   src='G_7.jpg' height='90'> <img id='selected'       src='G_8.jpg' height='90'> <img id='selected'  src='G_3.jpg' height='90'> <img   src='G_6.jpg' height='90'>","null","Animation1","",""
"","","","","","html-keyboard-response","126","186065","0.0-105.0","28","1","2025-02-02 03:47:45","bc01a2b6f61d06f6604adb8657495020","12.74.236.119","Mozilla/5.0 (Windows NT 10.0; Win64; x64) AppleWebKit/537.36 (KHTML, like Gecko) Chrome/132.0.0.0 Safari/537.36 Edg/132.0.0.0","WebKit","Edge","132.0.0.0","Windows","10.0","https://app.prolific.com/","en-US,en;q=0.9","670db0b5fbb9e80cbee561cc","679edb085803f58d6bbd31ca","679eeaae8946d6e2b913e42e","","null","<img     src='G_2.jpg' height='90'> <img     src='G_5.jpg' height='90'> <img     src='G_1.jpg' height='90'> <img      src='G_4.jpg' height='90'> <img   src='G_7.jpg' height='90'> <img id='selected'       src='G_8.jpg' height='90'> <img id='selected'  src='G_3.jpg' height='90'> <img   src='G_6.jpg' height='90'>","null","Animation1","",""
"","","","","","html-keyboard-response","127","186379","0.0-106.0","28","1","2025-02-02 03:47:45","bc01a2b6f61d06f6604adb8657495020","12.74.236.119","Mozilla/5.0 (Windows NT 10.0; Win64; x64) AppleWebKit/537.36 (KHTML, like Gecko) Chrome/132.0.0.0 Safari/537.36 Edg/132.0.0.0","WebKit","Edge","132.0.0.0","Windows","10.0","https://app.prolific.com/","en-US,en;q=0.9","670db0b5fbb9e80cbee561cc","679edb085803f58d6bbd31ca","679eeaae8946d6e2b913e42e","","null","<img     src='G_2.jpg' height='90'> <img     src='G_5.jpg' height='90'> <img     src='G_1.jpg' height='90'> <img      src='G_4.jpg' height='90'> <img   src='G_7.jpg' height='90'> <img        src='G_8.jpg' height='90'> <img   src='G_3.jpg' height='90'> <img   src='G_6.jpg' height='90'>","null","Animation1","",""
"","","","","","html-keyboard-response","128","189424","0.0-107.0","28","1","2025-02-02 03:47:45","bc01a2b6f61d06f6604adb8657495020","12.74.236.119","Mozilla/5.0 (Windows NT 10.0; Win64; x64) AppleWebKit/537.36 (KHTML, like Gecko) Chrome/132.0.0.0 Safari/537.36 Edg/132.0.0.0","WebKit","Edge","132.0.0.0","Windows","10.0","https://app.prolific.com/","en-US,en;q=0.9","670db0b5fbb9e80cbee561cc","679edb085803f58d6bbd31ca","679eeaae8946d6e2b913e42e","","3038","[""Did you notice any patterns? <br><br>Press Enter to watch that example again and follow the steps of Omgne Sort.""]","enter","","",""
"","","","","","html-button-response","129","189840","0.0-108.0","28","1","2025-02-02 03:47:45","bc01a2b6f61d06f6604adb8657495020","12.74.236.119","Mozilla/5.0 (Windows NT 10.0; Win64; x64) AppleWebKit/537.36 (KHTML, like Gecko) Chrome/132.0.0.0 Safari/537.36 Edg/132.0.0.0","WebKit","Edge","132.0.0.0","Windows","10.0","https://app.prolific.com/","en-US,en;q=0.9","670db0b5fbb9e80cbee561cc","679edb085803f58d6bbd31ca","679eeaae8946d6e2b913e42e","","null","<img id='selected' src='G_4.jpg' height='90'> <img src='G_8.jpg' height='90'> <img src='G_1.jpg' height='90'> <img src='G_2.jpg' height='90'> <img src='G_5.jpg' height='90'> <img src='G_7.jpg' height='90'> <img src='G_6.jpg' height='90'> <img src='G_3.jpg' height='90'>","null","Learning example 1","",""
"","","","","","html-button-response","130","190160","0.0-109.0","28","1","2025-02-02 03:47:45","bc01a2b6f61d06f6604adb8657495020","12.74.236.119","Mozilla/5.0 (Windows NT 10.0; Win64; x64) AppleWebKit/537.36 (KHTML, like Gecko) Chrome/132.0.0.0 Safari/537.36 Edg/132.0.0.0","WebKit","Edge","132.0.0.0","Windows","10.0","https://app.prolific.com/","en-US,en;q=0.9","670db0b5fbb9e80cbee561cc","679edb085803f58d6bbd31ca","679eeaae8946d6e2b913e42e","","null","<img id='selected' src='G_4.jpg' height='90'> <img id='selected' src='G_8.jpg' height='90'> <img src='G_1.jpg' height='90'> <img src='G_2.jpg' height='90'> <img src='G_5.jpg' height='90'> <img src='G_7.jpg' height='90'> <img src='G_6.jpg' height='90'> <img src='G_3.jpg' height='90'>","null","Learning example 1","",""
"","","","","","html-button-response","131","190471","0.0-110.0","28","1","2025-02-02 03:47:45","bc01a2b6f61d06f6604adb8657495020","12.74.236.119","Mozilla/5.0 (Windows NT 10.0; Win64; x64) AppleWebKit/537.36 (KHTML, like Gecko) Chrome/132.0.0.0 Safari/537.36 Edg/132.0.0.0","WebKit","Edge","132.0.0.0","Windows","10.0","https://app.prolific.com/","en-US,en;q=0.9","670db0b5fbb9e80cbee561cc","679edb085803f58d6bbd31ca","679eeaae8946d6e2b913e42e","","null","<img id='selected' src='G_4.jpg' height='90'> <img id='selected' src='G_8.jpg' height='90'> <img src='G_1.jpg' height='90'> <img src='G_2.jpg' height='90'> <img src='G_5.jpg' height='90'> <img src='G_7.jpg' height='90'> <img src='G_6.jpg' height='90'> <img src='G_3.jpg' height='90'>","null","Learning example 1","",""
"","","","","","html-button-response","132","191533","0.0-111.0-0.0-0.0","28","1","2025-02-02 03:47:45","bc01a2b6f61d06f6604adb8657495020","12.74.236.119","Mozilla/5.0 (Windows NT 10.0; Win64; x64) AppleWebKit/537.36 (KHTML, like Gecko) Chrome/132.0.0.0 Safari/537.36 Edg/132.0.0.0","WebKit","Edge","132.0.0.0","Windows","10.0","https://app.prolific.com/","en-US,en;q=0.9","670db0b5fbb9e80cbee561cc","679edb085803f58d6bbd31ca","679eeaae8946d6e2b913e42e","","1050","<img id='selected' src='G_4.jpg' height='90'> <img id='selected' src='G_8.jpg' height='90'> <img src='G_1.jpg' height='90'> <img src='G_2.jpg' height='90'> <img src='G_5.jpg' height='90'> <img src='G_7.jpg' height='90'> <img src='G_6.jpg' height='90'> <img src='G_3.jpg' height='90'>","0","Learning example 1","",""
"","","","","","html-button-response","133","192108","0.0-111.1-0.1-0.1","28","1","2025-02-02 03:47:45","bc01a2b6f61d06f6604adb8657495020","12.74.236.119","Mozilla/5.0 (Windows NT 10.0; Win64; x64) AppleWebKit/537.36 (KHTML, like Gecko) Chrome/132.0.0.0 Safari/537.36 Edg/132.0.0.0","WebKit","Edge","132.0.0.0","Windows","10.0","https://app.prolific.com/","en-US,en;q=0.9","670db0b5fbb9e80cbee561cc","679edb085803f58d6bbd31ca","679eeaae8946d6e2b913e42e","","562","<img id='selected' src='G_4.jpg' height='90'> <img id='selected' src='G_8.jpg' height='90'> <img src='G_1.jpg' height='90'> <img src='G_2.jpg' height='90'> <img src='G_5.jpg' height='90'> <img src='G_7.jpg' height='90'> <img src='G_6.jpg' height='90'> <img src='G_3.jpg' height='90'>","1","Learning example 1","",""
"","","","","","html-button-response","134","192331","0.0-112.0","28","1","2025-02-02 03:47:45","bc01a2b6f61d06f6604adb8657495020","12.74.236.119","Mozilla/5.0 (Windows NT 10.0; Win64; x64) AppleWebKit/537.36 (KHTML, like Gecko) Chrome/132.0.0.0 Safari/537.36 Edg/132.0.0.0","WebKit","Edge","132.0.0.0","Windows","10.0","https://app.prolific.com/","en-US,en;q=0.9","670db0b5fbb9e80cbee561cc","679edb085803f58d6bbd31ca","679eeaae8946d6e2b913e42e","","null","<img  src='G_4.jpg' height='90'> <img  src='G_8.jpg' height='90'> <img src='G_1.jpg' height='90'> <img src='G_2.jpg' height='90'> <img src='G_5.jpg' height='90'> <img src='G_7.jpg' height='90'> <img src='G_6.jpg' height='90'> <img src='G_3.jpg' height='90'>","null","Learning example 1","",""
"","","","","","html-button-response","135","192753","0.0-113.0","28","1","2025-02-02 03:47:45","bc01a2b6f61d06f6604adb8657495020","12.74.236.119","Mozilla/5.0 (Windows NT 10.0; Win64; x64) AppleWebKit/537.36 (KHTML, like Gecko) Chrome/132.0.0.0 Safari/537.36 Edg/132.0.0.0","WebKit","Edge","132.0.0.0","Windows","10.0","https://app.prolific.com/","en-US,en;q=0.9","670db0b5fbb9e80cbee561cc","679edb085803f58d6bbd31ca","679eeaae8946d6e2b913e42e","","null","<img  src='G_4.jpg' height='90'> <img id='selected'  src='G_8.jpg' height='90'> <img src='G_1.jpg' height='90'> <img src='G_2.jpg' height='90'> <img src='G_5.jpg' height='90'> <img src='G_7.jpg' height='90'> <img src='G_6.jpg' height='90'> <img src='G_3.jpg' height='90'>","null","Learning example 1","",""
"","","","","","html-button-response","136","193065","0.0-114.0","28","1","2025-02-02 03:47:45","bc01a2b6f61d06f6604adb8657495020","12.74.236.119","Mozilla/5.0 (Windows NT 10.0; Win64; x64) AppleWebKit/537.36 (KHTML, like Gecko) Chrome/132.0.0.0 Safari/537.36 Edg/132.0.0.0","WebKit","Edge","132.0.0.0","Windows","10.0","https://app.prolific.com/","en-US,en;q=0.9","670db0b5fbb9e80cbee561cc","679edb085803f58d6bbd31ca","679eeaae8946d6e2b913e42e","","null","<img  src='G_4.jpg' height='90'> <img id='selected'  src='G_8.jpg' height='90'> <img id='selected' src='G_1.jpg' height='90'> <img src='G_2.jpg' height='90'> <img src='G_5.jpg' height='90'> <img src='G_7.jpg' height='90'> <img src='G_6.jpg' height='90'> <img src='G_3.jpg' height='90'>","null","Learning example 1","",""
"","","","","","html-button-response","137","193378","0.0-115.0","28","1","2025-02-02 03:47:45","bc01a2b6f61d06f6604adb8657495020","12.74.236.119","Mozilla/5.0 (Windows NT 10.0; Win64; x64) AppleWebKit/537.36 (KHTML, like Gecko) Chrome/132.0.0.0 Safari/537.36 Edg/132.0.0.0","WebKit","Edge","132.0.0.0","Windows","10.0","https://app.prolific.com/","en-US,en;q=0.9","670db0b5fbb9e80cbee561cc","679edb085803f58d6bbd31ca","679eeaae8946d6e2b913e42e","","null","<img  src='G_4.jpg' height='90'> <img id='swapped' src='G_1.jpg' height='90'> <img id='swapped'  src='G_8.jpg' height='90'> <img src='G_2.jpg' height='90'> <img src='G_5.jpg' height='90'> <img src='G_7.jpg' height='90'> <img src='G_6.jpg' height='90'> <img src='G_3.jpg' height='90'>","null","Learning example 1","",""
"","","","","","html-button-response","138","194297","0.0-116.0-0.0-0.0","28","1","2025-02-02 03:47:45","bc01a2b6f61d06f6604adb8657495020","12.74.236.119","Mozilla/5.0 (Windows NT 10.0; Win64; x64) AppleWebKit/537.36 (KHTML, like Gecko) Chrome/132.0.0.0 Safari/537.36 Edg/132.0.0.0","WebKit","Edge","132.0.0.0","Windows","10.0","https://app.prolific.com/","en-US,en;q=0.9","670db0b5fbb9e80cbee561cc","679edb085803f58d6bbd31ca","679eeaae8946d6e2b913e42e","","908","<img  src='G_4.jpg' height='90'> <img id='swapped' src='G_1.jpg' height='90'> <img id='swapped'  src='G_8.jpg' height='90'> <img src='G_2.jpg' height='90'> <img src='G_5.jpg' height='90'> <img src='G_7.jpg' height='90'> <img src='G_6.jpg' height='90'> <img src='G_3.jpg' height='90'>","1","Learning example 1","",""
"","","","","","html-button-response","139","195136","0.0-116.1-0.1-0.1","28","1","2025-02-02 03:47:45","bc01a2b6f61d06f6604adb8657495020","12.74.236.119","Mozilla/5.0 (Windows NT 10.0; Win64; x64) AppleWebKit/537.36 (KHTML, like Gecko) Chrome/132.0.0.0 Safari/537.36 Edg/132.0.0.0","WebKit","Edge","132.0.0.0","Windows","10.0","https://app.prolific.com/","en-US,en;q=0.9","670db0b5fbb9e80cbee561cc","679edb085803f58d6bbd31ca","679eeaae8946d6e2b913e42e","","831","<img  src='G_4.jpg' height='90'> <img id='swapped' src='G_1.jpg' height='90'> <img id='swapped'  src='G_8.jpg' height='90'> <img src='G_2.jpg' height='90'> <img src='G_5.jpg' height='90'> <img src='G_7.jpg' height='90'> <img src='G_6.jpg' height='90'> <img src='G_3.jpg' height='90'>","2","Learning example 1","",""
"","","","","","html-button-response","140","195356","0.0-117.0","28","1","2025-02-02 03:47:45","bc01a2b6f61d06f6604adb8657495020","12.74.236.119","Mozilla/5.0 (Windows NT 10.0; Win64; x64) AppleWebKit/537.36 (KHTML, like Gecko) Chrome/132.0.0.0 Safari/537.36 Edg/132.0.0.0","WebKit","Edge","132.0.0.0","Windows","10.0","https://app.prolific.com/","en-US,en;q=0.9","670db0b5fbb9e80cbee561cc","679edb085803f58d6bbd31ca","679eeaae8946d6e2b913e42e","","null","<img  src='G_4.jpg' height='90'> <img  src='G_1.jpg' height='90'> <img   src='G_8.jpg' height='90'> <img src='G_2.jpg' height='90'> <img src='G_5.jpg' height='90'> <img src='G_7.jpg' height='90'> <img src='G_6.jpg' height='90'> <img src='G_3.jpg' height='90'>","null","Learning example 1","",""
"","","","","","html-button-response","141","195769","0.0-118.0","28","1","2025-02-02 03:47:45","bc01a2b6f61d06f6604adb8657495020","12.74.236.119","Mozilla/5.0 (Windows NT 10.0; Win64; x64) AppleWebKit/537.36 (KHTML, like Gecko) Chrome/132.0.0.0 Safari/537.36 Edg/132.0.0.0","WebKit","Edge","132.0.0.0","Windows","10.0","https://app.prolific.com/","en-US,en;q=0.9","670db0b5fbb9e80cbee561cc","679edb085803f58d6bbd31ca","679eeaae8946d6e2b913e42e","","null","<img id='selected'  src='G_4.jpg' height='90'> <img  src='G_1.jpg' height='90'> <img   src='G_8.jpg' height='90'> <img src='G_2.jpg' height='90'> <img src='G_5.jpg' height='90'> <img src='G_7.jpg' height='90'> <img src='G_6.jpg' height='90'> <img src='G_3.jpg' height='90'>","null","Learning example 1","",""
