"success","timeout","failed_images","failed_audio","failed_video","trial_type","trial_index","time_elapsed","internal_node_id","run_id","condition","recorded_at","source_code_version","ip","user_agent","device","browser","browser_version","platform","platform_version","referer","accept_language","PROLIFIC_PID","STUDY_ID","SESSION_ID","view_history","rt","stimulus","response","phase","question_order","presented_choices"
"true","false","[]","[]","[]","preload","0","139","0.0-0.0","29","1","2025-02-02 03:49:34","bc01a2b6f61d06f6604adb8657495020","108.12.255.112","Mozilla/5.0 (Windows NT 10.0; Win64; x64) AppleWebKit/537.36 (KHTML, like Gecko) Chrome/132.0.0.0 Safari/537.36 Edg/132.0.0.0","WebKit","Edge","132.0.0.0","Windows","10.0","https://app.prolific.com/","en-US,en;q=0.9","627f448165ed9095fd43cfd1","679edb085803f58d6bbd31ca","679ee916f92f86eaf5e1c274","","","","","","",""
"","","","","","instructions","1","23963","0.0-1.0","29","1","2025-02-02 03:49:34","bc01a2b6f61d06f6604adb8657495020","108.12.255.112","Mozilla/5.0 (Windows NT 10.0; Win64; x64) AppleWebKit/537.36 (KHTML, like Gecko) Chrome/132.0.0.0 Safari/537.36 Edg/132.0.0.0","WebKit","Edge","132.0.0.0","Windows","10.0","https://app.prolific.com/","en-US,en;q=0.9","627f448165ed9095fd43cfd1","679edb085803f58d6bbd31ca","679ee916f92f86eaf5e1c274","[{""page_index"":0,""viewing_time"":23821}]","23822","","","","",""
"","","","","","html-keyboard-response","2","24478","0.0-2.0","29","1","2025-02-02 03:49:34","bc01a2b6f61d06f6604adb8657495020","108.12.255.112","Mozilla/5.0 (Windows NT 10.0; Win64; x64) AppleWebKit/537.36 (KHTML, like Gecko) Chrome/132.0.0.0 Safari/537.36 Edg/132.0.0.0","WebKit","Edge","132.0.0.0","Windows","10.0","https://app.prolific.com/","en-US,en;q=0.9","627f448165ed9095fd43cfd1","679edb085803f58d6bbd31ca","679ee916f92f86eaf5e1c274","","null","<p> + <p/>","null","","",""
"","","","","","instructions","3","54165","0.0-3.0","29","1","2025-02-02 03:49:34","bc01a2b6f61d06f6604adb8657495020","108.12.255.112","Mozilla/5.0 (Windows NT 10.0; Win64; x64) AppleWebKit/537.36 (KHTML, like Gecko) Chrome/132.0.0.0 Safari/537.36 Edg/132.0.0.0","WebKit","Edge","132.0.0.0","Windows","10.0","https://app.prolific.com/","en-US,en;q=0.9","627f448165ed9095fd43cfd1","679edb085803f58d6bbd31ca","679ee916f92f86eaf5e1c274","[{""page_index"":0,""viewing_time"":2055},{""page_index"":1,""viewing_time"":11389},{""page_index"":2,""viewing_time"":7148},{""page_index"":3,""viewing_time"":3301},{""page_index"":4,""viewing_time"":5793}]","29686","","","","",""
"","","","","","html-button-response","4","61917","0.0-4.0-0.0-0.0","29","1","2025-02-02 03:49:34","bc01a2b6f61d06f6604adb8657495020","108.12.255.112","Mozilla/5.0 (Windows NT 10.0; Win64; x64) AppleWebKit/537.36 (KHTML, like Gecko) Chrome/132.0.0.0 Safari/537.36 Edg/132.0.0.0","WebKit","Edge","132.0.0.0","Windows","10.0","https://app.prolific.com/","en-US,en;q=0.9","627f448165ed9095fd43cfd1","679edb085803f58d6bbd31ca","679ee916f92f86eaf5e1c274","","7747","","0","Intro Trial","",""
"","","","","","html-button-response","5","63217","0.0-4.1-0.1-0.1","29","1","2025-02-02 03:49:34","bc01a2b6f61d06f6604adb8657495020","108.12.255.112","Mozilla/5.0 (Windows NT 10.0; Win64; x64) AppleWebKit/537.36 (KHTML, like Gecko) Chrome/132.0.0.0 Safari/537.36 Edg/132.0.0.0","WebKit","Edge","132.0.0.0","Windows","10.0","https://app.prolific.com/","en-US,en;q=0.9","627f448165ed9095fd43cfd1","679edb085803f58d6bbd31ca","679ee916f92f86eaf5e1c274","","1297","","1","Intro Trial","",""
"","","","","","html-button-response","6","75884","0.0-4.2-0.2-0.2","29","1","2025-02-02 03:49:34","bc01a2b6f61d06f6604adb8657495020","108.12.255.112","Mozilla/5.0 (Windows NT 10.0; Win64; x64) AppleWebKit/537.36 (KHTML, like Gecko) Chrome/132.0.0.0 Safari/537.36 Edg/132.0.0.0","WebKit","Edge","132.0.0.0","Windows","10.0","https://app.prolific.com/","en-US,en;q=0.9","627f448165ed9095fd43cfd1","679edb085803f58d6bbd31ca","679ee916f92f86eaf5e1c274","","12663","","1","Intro Trial","",""
"","","","","","html-button-response","7","76685","0.0-4.3-0.3-0.3","29","1","2025-02-02 03:49:34","bc01a2b6f61d06f6604adb8657495020","108.12.255.112","Mozilla/5.0 (Windows NT 10.0; Win64; x64) AppleWebKit/537.36 (KHTML, like Gecko) Chrome/132.0.0.0 Safari/537.36 Edg/132.0.0.0","WebKit","Edge","132.0.0.0","Windows","10.0","https://app.prolific.com/","en-US,en;q=0.9","627f448165ed9095fd43cfd1","679edb085803f58d6bbd31ca","679ee916f92f86eaf5e1c274","","798","","2","Intro Trial","",""
"","","","","","html-button-response","8","79057","0.0-4.4-0.4-0.4","29","1","2025-02-02 03:49:34","bc01a2b6f61d06f6604adb8657495020","108.12.255.112","Mozilla/5.0 (Windows NT 10.0; Win64; x64) AppleWebKit/537.36 (KHTML, like Gecko) Chrome/132.0.0.0 Safari/537.36 Edg/132.0.0.0","WebKit","Edge","132.0.0.0","Windows","10.0","https://app.prolific.com/","en-US,en;q=0.9","627f448165ed9095fd43cfd1","679edb085803f58d6bbd31ca","679ee916f92f86eaf5e1c274","","2368","","0","Intro Trial","",""
"","","","","","html-button-response","9","79702","0.0-4.5-0.5-0.5","29","1","2025-02-02 03:49:34","bc01a2b6f61d06f6604adb8657495020","108.12.255.112","Mozilla/5.0 (Windows NT 10.0; Win64; x64) AppleWebKit/537.36 (KHTML, like Gecko) Chrome/132.0.0.0 Safari/537.36 Edg/132.0.0.0","WebKit","Edge","132.0.0.0","Windows","10.0","https://app.prolific.com/","en-US,en;q=0.9","627f448165ed9095fd43cfd1","679edb085803f58d6bbd31ca","679ee916f92f86eaf5e1c274","","641","","1","Intro Trial","",""
"","","","","","html-button-response","10","81173","0.0-4.6-0.6-0.6","29","1","2025-02-02 03:49:34","bc01a2b6f61d06f6604adb8657495020","108.12.255.112","Mozilla/5.0 (Windows NT 10.0; Win64; x64) AppleWebKit/537.36 (KHTML, like Gecko) Chrome/132.0.0.0 Safari/537.36 Edg/132.0.0.0","WebKit","Edge","132.0.0.0","Windows","10.0","https://app.prolific.com/","en-US,en;q=0.9","627f448165ed9095fd43cfd1","679edb085803f58d6bbd31ca","679ee916f92f86eaf5e1c274","","1467","","2","Intro Trial","",""
"","","","","","html-button-response","11","82007","0.0-4.7-0.7-0.7","29","1","2025-02-02 03:49:34","bc01a2b6f61d06f6604adb8657495020","108.12.255.112","Mozilla/5.0 (Windows NT 10.0; Win64; x64) AppleWebKit/537.36 (KHTML, like Gecko) Chrome/132.0.0.0 Safari/537.36 Edg/132.0.0.0","WebKit","Edge","132.0.0.0","Windows","10.0","https://app.prolific.com/","en-US,en;q=0.9","627f448165ed9095fd43cfd1","679edb085803f58d6bbd31ca","679ee916f92f86eaf5e1c274","","829","","3","Intro Trial","",""
"","","","","","html-button-response","12","83865","0.0-4.8-0.8-0.8","29","1","2025-02-02 03:49:34","bc01a2b6f61d06f6604adb8657495020","108.12.255.112","Mozilla/5.0 (Windows NT 10.0; Win64; x64) AppleWebKit/537.36 (KHTML, like Gecko) Chrome/132.0.0.0 Safari/537.36 Edg/132.0.0.0","WebKit","Edge","132.0.0.0","Windows","10.0","https://app.prolific.com/","en-US,en;q=0.9","627f448165ed9095fd43cfd1","679edb085803f58d6bbd31ca","679ee916f92f86eaf5e1c274","","1854","","3","Intro Trial","",""
"","","","","","html-button-response","13","84293","0.0-4.9-0.9-0.9","29","1","2025-02-02 03:49:34","bc01a2b6f61d06f6604adb8657495020","108.12.255.112","Mozilla/5.0 (Windows NT 10.0; Win64; x64) AppleWebKit/537.36 (KHTML, like Gecko) Chrome/132.0.0.0 Safari/537.36 Edg/132.0.0.0","WebKit","Edge","132.0.0.0","Windows","10.0","https://app.prolific.com/","en-US,en;q=0.9","627f448165ed9095fd43cfd1","679edb085803f58d6bbd31ca","679ee916f92f86eaf5e1c274","","425","","4","Intro Trial","",""
"","","","","","html-button-response","14","86367","0.0-4.10-0.10-0.10","29","1","2025-02-02 03:49:34","bc01a2b6f61d06f6604adb8657495020","108.12.255.112","Mozilla/5.0 (Windows NT 10.0; Win64; x64) AppleWebKit/537.36 (KHTML, like Gecko) Chrome/132.0.0.0 Safari/537.36 Edg/132.0.0.0","WebKit","Edge","132.0.0.0","Windows","10.0","https://app.prolific.com/","en-US,en;q=0.9","627f448165ed9095fd43cfd1","679edb085803f58d6bbd31ca","679ee916f92f86eaf5e1c274","","2070","","2","Intro Trial","",""
"","","","","","html-button-response","15","86867","0.0-4.11-0.11-0.11","29","1","2025-02-02 03:49:34","bc01a2b6f61d06f6604adb8657495020","108.12.255.112","Mozilla/5.0 (Windows NT 10.0; Win64; x64) AppleWebKit/537.36 (KHTML, like Gecko) Chrome/132.0.0.0 Safari/537.36 Edg/132.0.0.0","WebKit","Edge","132.0.0.0","Windows","10.0","https://app.prolific.com/","en-US,en;q=0.9","627f448165ed9095fd43cfd1","679edb085803f58d6bbd31ca","679ee916f92f86eaf5e1c274","","496","","3","Intro Trial","",""
"","","","","","html-button-response","16","87915","0.0-4.12-0.12-0.12","29","1","2025-02-02 03:49:34","bc01a2b6f61d06f6604adb8657495020","108.12.255.112","Mozilla/5.0 (Windows NT 10.0; Win64; x64) AppleWebKit/537.36 (KHTML, like Gecko) Chrome/132.0.0.0 Safari/537.36 Edg/132.0.0.0","WebKit","Edge","132.0.0.0","Windows","10.0","https://app.prolific.com/","en-US,en;q=0.9","627f448165ed9095fd43cfd1","679edb085803f58d6bbd31ca","679ee916f92f86eaf5e1c274","","1044","","1","Intro Trial","",""
"","","","","","html-button-response","17","88489","0.0-4.13-0.13-0.13","29","1","2025-02-02 03:49:34","bc01a2b6f61d06f6604adb8657495020","108.12.255.112","Mozilla/5.0 (Windows NT 10.0; Win64; x64) AppleWebKit/537.36 (KHTML, like Gecko) Chrome/132.0.0.0 Safari/537.36 Edg/132.0.0.0","WebKit","Edge","132.0.0.0","Windows","10.0","https://app.prolific.com/","en-US,en;q=0.9","627f448165ed9095fd43cfd1","679edb085803f58d6bbd31ca","679ee916f92f86eaf5e1c274","","571","","2","Intro Trial","",""
"","","","","","html-button-response","18","89365","0.0-4.14-0.14-0.14","29","1","2025-02-02 03:49:34","bc01a2b6f61d06f6604adb8657495020","108.12.255.112","Mozilla/5.0 (Windows NT 10.0; Win64; x64) AppleWebKit/537.36 (KHTML, like Gecko) Chrome/132.0.0.0 Safari/537.36 Edg/132.0.0.0","WebKit","Edge","132.0.0.0","Windows","10.0","https://app.prolific.com/","en-US,en;q=0.9","627f448165ed9095fd43cfd1","679edb085803f58d6bbd31ca","679ee916f92f86eaf5e1c274","","872","","0","Intro Trial","",""
"","","","","","html-button-response","19","89821","0.0-4.15-0.15-0.15","29","1","2025-02-02 03:49:34","bc01a2b6f61d06f6604adb8657495020","108.12.255.112","Mozilla/5.0 (Windows NT 10.0; Win64; x64) AppleWebKit/537.36 (KHTML, like Gecko) Chrome/132.0.0.0 Safari/537.36 Edg/132.0.0.0","WebKit","Edge","132.0.0.0","Windows","10.0","https://app.prolific.com/","en-US,en;q=0.9","627f448165ed9095fd43cfd1","679edb085803f58d6bbd31ca","679ee916f92f86eaf5e1c274","","452","","1","Intro Trial","",""
"","","","","","html-button-response","20","93613","0.0-4.16-0.16-0.16","29","1","2025-02-02 03:49:34","bc01a2b6f61d06f6604adb8657495020","108.12.255.112","Mozilla/5.0 (Windows NT 10.0; Win64; x64) AppleWebKit/537.36 (KHTML, like Gecko) Chrome/132.0.0.0 Safari/537.36 Edg/132.0.0.0","WebKit","Edge","132.0.0.0","Windows","10.0","https://app.prolific.com/","en-US,en;q=0.9","627f448165ed9095fd43cfd1","679edb085803f58d6bbd31ca","679ee916f92f86eaf5e1c274","","3788","","0","Intro Trial","",""
"","","","","","html-button-response","21","94053","0.0-4.17-0.17-0.17","29","1","2025-02-02 03:49:34","bc01a2b6f61d06f6604adb8657495020","108.12.255.112","Mozilla/5.0 (Windows NT 10.0; Win64; x64) AppleWebKit/537.36 (KHTML, like Gecko) Chrome/132.0.0.0 Safari/537.36 Edg/132.0.0.0","WebKit","Edge","132.0.0.0","Windows","10.0","https://app.prolific.com/","en-US,en;q=0.9","627f448165ed9095fd43cfd1","679edb085803f58d6bbd31ca","679ee916f92f86eaf5e1c274","","436","","1","Intro Trial","",""
"","","","","","html-button-response","22","94637","0.0-4.18-0.18-0.18","29","1","2025-02-02 03:49:34","bc01a2b6f61d06f6604adb8657495020","108.12.255.112","Mozilla/5.0 (Windows NT 10.0; Win64; x64) AppleWebKit/537.36 (KHTML, like Gecko) Chrome/132.0.0.0 Safari/537.36 Edg/132.0.0.0","WebKit","Edge","132.0.0.0","Windows","10.0","https://app.prolific.com/","en-US,en;q=0.9","627f448165ed9095fd43cfd1","679edb085803f58d6bbd31ca","679ee916f92f86eaf5e1c274","","581","","1","Intro Trial","",""
"","","","","","html-button-response","23","95091","0.0-4.19-0.19-0.19","29","1","2025-02-02 03:49:34","bc01a2b6f61d06f6604adb8657495020","108.12.255.112","Mozilla/5.0 (Windows NT 10.0; Win64; x64) AppleWebKit/537.36 (KHTML, like Gecko) Chrome/132.0.0.0 Safari/537.36 Edg/132.0.0.0","WebKit","Edge","132.0.0.0","Windows","10.0","https://app.prolific.com/","en-US,en;q=0.9","627f448165ed9095fd43cfd1","679edb085803f58d6bbd31ca","679ee916f92f86eaf5e1c274","","450","","2","Intro Trial","",""
"","","","","","html-button-response","24","95662","0.0-4.20-0.20-0.20","29","1","2025-02-02 03:49:34","bc01a2b6f61d06f6604adb8657495020","108.12.255.112","Mozilla/5.0 (Windows NT 10.0; Win64; x64) AppleWebKit/537.36 (KHTML, like Gecko) Chrome/132.0.0.0 Safari/537.36 Edg/132.0.0.0","WebKit","Edge","132.0.0.0","Windows","10.0","https://app.prolific.com/","en-US,en;q=0.9","627f448165ed9095fd43cfd1","679edb085803f58d6bbd31ca","679ee916f92f86eaf5e1c274","","568","","2","Intro Trial","",""
"","","","","","html-button-response","25","96119","0.0-4.21-0.21-0.21","29","1","2025-02-02 03:49:34","bc01a2b6f61d06f6604adb8657495020","108.12.255.112","Mozilla/5.0 (Windows NT 10.0; Win64; x64) AppleWebKit/537.36 (KHTML, like Gecko) Chrome/132.0.0.0 Safari/537.36 Edg/132.0.0.0","WebKit","Edge","132.0.0.0","Windows","10.0","https://app.prolific.com/","en-US,en;q=0.9","627f448165ed9095fd43cfd1","679edb085803f58d6bbd31ca","679ee916f92f86eaf5e1c274","","454","","3","Intro Trial","",""
"","","","","","html-button-response","26","96527","0.0-4.22-0.22-0.22","29","1","2025-02-02 03:49:34","bc01a2b6f61d06f6604adb8657495020","108.12.255.112","Mozilla/5.0 (Windows NT 10.0; Win64; x64) AppleWebKit/537.36 (KHTML, like Gecko) Chrome/132.0.0.0 Safari/537.36 Edg/132.0.0.0","WebKit","Edge","132.0.0.0","Windows","10.0","https://app.prolific.com/","en-US,en;q=0.9","627f448165ed9095fd43cfd1","679edb085803f58d6bbd31ca","679ee916f92f86eaf5e1c274","","404","","3","Intro Trial","",""
"","","","","","html-button-response","27","96941","0.0-4.23-0.23-0.23","29","1","2025-02-02 03:49:34","bc01a2b6f61d06f6604adb8657495020","108.12.255.112","Mozilla/5.0 (Windows NT 10.0; Win64; x64) AppleWebKit/537.36 (KHTML, like Gecko) Chrome/132.0.0.0 Safari/537.36 Edg/132.0.0.0","WebKit","Edge","132.0.0.0","Windows","10.0","https://app.prolific.com/","en-US,en;q=0.9","627f448165ed9095fd43cfd1","679edb085803f58d6bbd31ca","679ee916f92f86eaf5e1c274","","410","","4","Intro Trial","",""
"","","","","","html-button-response","28","97707","0.0-4.24-0.24-0.24","29","1","2025-02-02 03:49:34","bc01a2b6f61d06f6604adb8657495020","108.12.255.112","Mozilla/5.0 (Windows NT 10.0; Win64; x64) AppleWebKit/537.36 (KHTML, like Gecko) Chrome/132.0.0.0 Safari/537.36 Edg/132.0.0.0","WebKit","Edge","132.0.0.0","Windows","10.0","https://app.prolific.com/","en-US,en;q=0.9","627f448165ed9095fd43cfd1","679edb085803f58d6bbd31ca","679ee916f92f86eaf5e1c274","","762","","5","Intro Trial","",""
"","","","","","html-keyboard-response","29","105841","0.0-5.0","29","1","2025-02-02 03:49:34","bc01a2b6f61d06f6604adb8657495020","108.12.255.112","Mozilla/5.0 (Windows NT 10.0; Win64; x64) AppleWebKit/537.36 (KHTML, like Gecko) Chrome/132.0.0.0 Safari/537.36 Edg/132.0.0.0","WebKit","Edge","132.0.0.0","Windows","10.0","https://app.prolific.com/","en-US,en;q=0.9","627f448165ed9095fd43cfd1","679edb085803f58d6bbd31ca","679ee916f92f86eaf5e1c274","","8129","[""You sorted correctly by using the balance 12 times. <br><br> <img src='G_5.jpg' height='90'><img src='G_2.jpg' height='90'><img src='G_3.jpg' height='90'><img src='G_1.jpg' height='90'><img src='G_4.jpg' height='90'><br><br> Your final order is 1,2,3,4,5<br><br><br>Omgne Sort in this game will allow you to sort correctly by using the balance 8 times. Press Enter to learn it!""]","enter","","",""
"","","","","","html-keyboard-response","30","109320","0.0-6.0","29","1","2025-02-02 03:49:34","bc01a2b6f61d06f6604adb8657495020","108.12.255.112","Mozilla/5.0 (Windows NT 10.0; Win64; x64) AppleWebKit/537.36 (KHTML, like Gecko) Chrome/132.0.0.0 Safari/537.36 Edg/132.0.0.0","WebKit","Edge","132.0.0.0","Windows","10.0","https://app.prolific.com/","en-US,en;q=0.9","627f448165ed9095fd43cfd1","679edb085803f58d6bbd31ca","679ee916f92f86eaf5e1c274","","3477","<p>Welcome to the learning phase! <br><br> You will learn by six examples. The following learning trials will not be used to calculate your performance. <br><br> Press Enter to continue.<p/>","enter","","",""
"","","","","","html-keyboard-response","31","114833","0.0-7.0","29","1","2025-02-02 03:49:34","bc01a2b6f61d06f6604adb8657495020","108.12.255.112","Mozilla/5.0 (Windows NT 10.0; Win64; x64) AppleWebKit/537.36 (KHTML, like Gecko) Chrome/132.0.0.0 Safari/537.36 Edg/132.0.0.0","WebKit","Edge","132.0.0.0","Windows","10.0","https://app.prolific.com/","en-US,en;q=0.9","627f448165ed9095fd43cfd1","679edb085803f58d6bbd31ca","679ee916f92f86eaf5e1c274","","5510","[""Example 1<br><br>You will watch Omnge Sort in action. Try to identify any patterns in the comparisons made by this method. <br><br>Press Enter to continue.""]","enter","","",""
"","","","","","html-keyboard-response","32","115348","0.0-8.0","29","1","2025-02-02 03:49:34","bc01a2b6f61d06f6604adb8657495020","108.12.255.112","Mozilla/5.0 (Windows NT 10.0; Win64; x64) AppleWebKit/537.36 (KHTML, like Gecko) Chrome/132.0.0.0 Safari/537.36 Edg/132.0.0.0","WebKit","Edge","132.0.0.0","Windows","10.0","https://app.prolific.com/","en-US,en;q=0.9","627f448165ed9095fd43cfd1","679edb085803f58d6bbd31ca","679ee916f92f86eaf5e1c274","","null","<img id='selected' src='G_5.jpg' height='90'> <img src='G_3.jpg' height='90'> <img src='G_7.jpg' height='90'> <img src='G_9.jpg' height='90'> <img src='G_1.jpg' height='90'>","null","Animation0","",""
"","","","","","html-keyboard-response","33","115863","0.0-9.0","29","1","2025-02-02 03:49:34","bc01a2b6f61d06f6604adb8657495020","108.12.255.112","Mozilla/5.0 (Windows NT 10.0; Win64; x64) AppleWebKit/537.36 (KHTML, like Gecko) Chrome/132.0.0.0 Safari/537.36 Edg/132.0.0.0","WebKit","Edge","132.0.0.0","Windows","10.0","https://app.prolific.com/","en-US,en;q=0.9","627f448165ed9095fd43cfd1","679edb085803f58d6bbd31ca","679ee916f92f86eaf5e1c274","","null","<img id='selected' src='G_5.jpg' height='90'> <img id='selected' src='G_3.jpg' height='90'> <img src='G_7.jpg' height='90'> <img src='G_9.jpg' height='90'> <img src='G_1.jpg' height='90'>","null","Animation0","",""
"","","","","","html-keyboard-response","34","116370","0.0-10.0","29","1","2025-02-02 03:49:34","bc01a2b6f61d06f6604adb8657495020","108.12.255.112","Mozilla/5.0 (Windows NT 10.0; Win64; x64) AppleWebKit/537.36 (KHTML, like Gecko) Chrome/132.0.0.0 Safari/537.36 Edg/132.0.0.0","WebKit","Edge","132.0.0.0","Windows","10.0","https://app.prolific.com/","en-US,en;q=0.9","627f448165ed9095fd43cfd1","679edb085803f58d6bbd31ca","679ee916f92f86eaf5e1c274","","null","<img id='swapped' src='G_3.jpg' height='90'> <img id='swapped' src='G_5.jpg' height='90'> <img src='G_7.jpg' height='90'> <img src='G_9.jpg' height='90'> <img src='G_1.jpg' height='90'>","null","Animation0","",""
"","","","","","html-keyboard-response","35","116688","0.0-11.0","29","1","2025-02-02 03:49:34","bc01a2b6f61d06f6604adb8657495020","108.12.255.112","Mozilla/5.0 (Windows NT 10.0; Win64; x64) AppleWebKit/537.36 (KHTML, like Gecko) Chrome/132.0.0.0 Safari/537.36 Edg/132.0.0.0","WebKit","Edge","132.0.0.0","Windows","10.0","https://app.prolific.com/","en-US,en;q=0.9","627f448165ed9095fd43cfd1","679edb085803f58d6bbd31ca","679ee916f92f86eaf5e1c274","","null","<img  src='G_3.jpg' height='90'> <img  src='G_5.jpg' height='90'> <img src='G_7.jpg' height='90'> <img src='G_9.jpg' height='90'> <img src='G_1.jpg' height='90'>","null","Animation0","",""
"","","","","","html-keyboard-response","36","117207","0.0-12.0","29","1","2025-02-02 03:49:34","bc01a2b6f61d06f6604adb8657495020","108.12.255.112","Mozilla/5.0 (Windows NT 10.0; Win64; x64) AppleWebKit/537.36 (KHTML, like Gecko) Chrome/132.0.0.0 Safari/537.36 Edg/132.0.0.0","WebKit","Edge","132.0.0.0","Windows","10.0","https://app.prolific.com/","en-US,en;q=0.9","627f448165ed9095fd43cfd1","679edb085803f58d6bbd31ca","679ee916f92f86eaf5e1c274","","null","<img  src='G_3.jpg' height='90'> <img id='selected'  src='G_5.jpg' height='90'> <img src='G_7.jpg' height='90'> <img src='G_9.jpg' height='90'> <img src='G_1.jpg' height='90'>","null","Animation0","",""
"","","","","","html-keyboard-response","37","117724","0.0-13.0","29","1","2025-02-02 03:49:34","bc01a2b6f61d06f6604adb8657495020","108.12.255.112","Mozilla/5.0 (Windows NT 10.0; Win64; x64) AppleWebKit/537.36 (KHTML, like Gecko) Chrome/132.0.0.0 Safari/537.36 Edg/132.0.0.0","WebKit","Edge","132.0.0.0","Windows","10.0","https://app.prolific.com/","en-US,en;q=0.9","627f448165ed9095fd43cfd1","679edb085803f58d6bbd31ca","679ee916f92f86eaf5e1c274","","null","<img  src='G_3.jpg' height='90'> <img id='selected'  src='G_5.jpg' height='90'> <img id='selected' src='G_7.jpg' height='90'> <img src='G_9.jpg' height='90'> <img src='G_1.jpg' height='90'>","null","Animation0","",""
"","","","","","html-keyboard-response","38","118229","0.0-14.0","29","1","2025-02-02 03:49:34","bc01a2b6f61d06f6604adb8657495020","108.12.255.112","Mozilla/5.0 (Windows NT 10.0; Win64; x64) AppleWebKit/537.36 (KHTML, like Gecko) Chrome/132.0.0.0 Safari/537.36 Edg/132.0.0.0","WebKit","Edge","132.0.0.0","Windows","10.0","https://app.prolific.com/","en-US,en;q=0.9","627f448165ed9095fd43cfd1","679edb085803f58d6bbd31ca","679ee916f92f86eaf5e1c274","","null","<img  src='G_3.jpg' height='90'> <img id='selected'  src='G_5.jpg' height='90'> <img id='selected' src='G_7.jpg' height='90'> <img src='G_9.jpg' height='90'> <img src='G_1.jpg' height='90'>","null","Animation0","",""
"","","","","","html-keyboard-response","39","118535","0.0-15.0","29","1","2025-02-02 03:49:34","bc01a2b6f61d06f6604adb8657495020","108.12.255.112","Mozilla/5.0 (Windows NT 10.0; Win64; x64) AppleWebKit/537.36 (KHTML, like Gecko) Chrome/132.0.0.0 Safari/537.36 Edg/132.0.0.0","WebKit","Edge","132.0.0.0","Windows","10.0","https://app.prolific.com/","en-US,en;q=0.9","627f448165ed9095fd43cfd1","679edb085803f58d6bbd31ca","679ee916f92f86eaf5e1c274","","null","<img  src='G_3.jpg' height='90'> <img   src='G_5.jpg' height='90'> <img  src='G_7.jpg' height='90'> <img src='G_9.jpg' height='90'> <img src='G_1.jpg' height='90'>","null","Animation0","",""
"","","","","","html-keyboard-response","40","119042","0.0-16.0","29","1","2025-02-02 03:49:34","bc01a2b6f61d06f6604adb8657495020","108.12.255.112","Mozilla/5.0 (Windows NT 10.0; Win64; x64) AppleWebKit/537.36 (KHTML, like Gecko) Chrome/132.0.0.0 Safari/537.36 Edg/132.0.0.0","WebKit","Edge","132.0.0.0","Windows","10.0","https://app.prolific.com/","en-US,en;q=0.9","627f448165ed9095fd43cfd1","679edb085803f58d6bbd31ca","679ee916f92f86eaf5e1c274","","null","<img  src='G_3.jpg' height='90'> <img   src='G_5.jpg' height='90'> <img id='selected'  src='G_7.jpg' height='90'> <img src='G_9.jpg' height='90'> <img src='G_1.jpg' height='90'>","null","Animation0","",""
"","","","","","html-keyboard-response","41","119557","0.0-17.0","29","1","2025-02-02 03:49:34","bc01a2b6f61d06f6604adb8657495020","108.12.255.112","Mozilla/5.0 (Windows NT 10.0; Win64; x64) AppleWebKit/537.36 (KHTML, like Gecko) Chrome/132.0.0.0 Safari/537.36 Edg/132.0.0.0","WebKit","Edge","132.0.0.0","Windows","10.0","https://app.prolific.com/","en-US,en;q=0.9","627f448165ed9095fd43cfd1","679edb085803f58d6bbd31ca","679ee916f92f86eaf5e1c274","","null","<img  src='G_3.jpg' height='90'> <img   src='G_5.jpg' height='90'> <img id='selected'  src='G_7.jpg' height='90'> <img id='selected' src='G_9.jpg' height='90'> <img src='G_1.jpg' height='90'>","null","Animation0","",""
"","","","","","html-keyboard-response","42","120063","0.0-18.0","29","1","2025-02-02 03:49:34","bc01a2b6f61d06f6604adb8657495020","108.12.255.112","Mozilla/5.0 (Windows NT 10.0; Win64; x64) AppleWebKit/537.36 (KHTML, like Gecko) Chrome/132.0.0.0 Safari/537.36 Edg/132.0.0.0","WebKit","Edge","132.0.0.0","Windows","10.0","https://app.prolific.com/","en-US,en;q=0.9","627f448165ed9095fd43cfd1","679edb085803f58d6bbd31ca","679ee916f92f86eaf5e1c274","","null","<img  src='G_3.jpg' height='90'> <img   src='G_5.jpg' height='90'> <img id='selected'  src='G_7.jpg' height='90'> <img id='selected' src='G_9.jpg' height='90'> <img src='G_1.jpg' height='90'>","null","Animation0","",""
"","","","","","html-keyboard-response","43","120375","0.0-19.0","29","1","2025-02-02 03:49:34","bc01a2b6f61d06f6604adb8657495020","108.12.255.112","Mozilla/5.0 (Windows NT 10.0; Win64; x64) AppleWebKit/537.36 (KHTML, like Gecko) Chrome/132.0.0.0 Safari/537.36 Edg/132.0.0.0","WebKit","Edge","132.0.0.0","Windows","10.0","https://app.prolific.com/","en-US,en;q=0.9","627f448165ed9095fd43cfd1","679edb085803f58d6bbd31ca","679ee916f92f86eaf5e1c274","","null","<img  src='G_3.jpg' height='90'> <img   src='G_5.jpg' height='90'> <img   src='G_7.jpg' height='90'> <img  src='G_9.jpg' height='90'> <img src='G_1.jpg' height='90'>","null","Animation0","",""
"","","","","","html-keyboard-response","44","120889","0.0-20.0","29","1","2025-02-02 03:49:34","bc01a2b6f61d06f6604adb8657495020","108.12.255.112","Mozilla/5.0 (Windows NT 10.0; Win64; x64) AppleWebKit/537.36 (KHTML, like Gecko) Chrome/132.0.0.0 Safari/537.36 Edg/132.0.0.0","WebKit","Edge","132.0.0.0","Windows","10.0","https://app.prolific.com/","en-US,en;q=0.9","627f448165ed9095fd43cfd1","679edb085803f58d6bbd31ca","679ee916f92f86eaf5e1c274","","null","<img  src='G_3.jpg' height='90'> <img   src='G_5.jpg' height='90'> <img   src='G_7.jpg' height='90'> <img id='selected'  src='G_9.jpg' height='90'> <img src='G_1.jpg' height='90'>","null","Animation0","",""
"","","","","","html-keyboard-response","45","121396","0.0-21.0","29","1","2025-02-02 03:49:34","bc01a2b6f61d06f6604adb8657495020","108.12.255.112","Mozilla/5.0 (Windows NT 10.0; Win64; x64) AppleWebKit/537.36 (KHTML, like Gecko) Chrome/132.0.0.0 Safari/537.36 Edg/132.0.0.0","WebKit","Edge","132.0.0.0","Windows","10.0","https://app.prolific.com/","en-US,en;q=0.9","627f448165ed9095fd43cfd1","679edb085803f58d6bbd31ca","679ee916f92f86eaf5e1c274","","null","<img  src='G_3.jpg' height='90'> <img   src='G_5.jpg' height='90'> <img   src='G_7.jpg' height='90'> <img id='selected'  src='G_9.jpg' height='90'> <img id='selected' src='G_1.jpg' height='90'>","null","Animation0","",""
"","","","","","html-keyboard-response","46","121912","0.0-22.0","29","1","2025-02-02 03:49:34","bc01a2b6f61d06f6604adb8657495020","108.12.255.112","Mozilla/5.0 (Windows NT 10.0; Win64; x64) AppleWebKit/537.36 (KHTML, like Gecko) Chrome/132.0.0.0 Safari/537.36 Edg/132.0.0.0","WebKit","Edge","132.0.0.0","Windows","10.0","https://app.prolific.com/","en-US,en;q=0.9","627f448165ed9095fd43cfd1","679edb085803f58d6bbd31ca","679ee916f92f86eaf5e1c274","","null","<img  src='G_3.jpg' height='90'> <img   src='G_5.jpg' height='90'> <img   src='G_7.jpg' height='90'> <img id='selected'  src='G_9.jpg' height='90'> <img id='selected' src='G_1.jpg' height='90'>","null","Animation0","",""
"","","","","","html-keyboard-response","47","122229","0.0-23.0","29","1","2025-02-02 03:49:34","bc01a2b6f61d06f6604adb8657495020","108.12.255.112","Mozilla/5.0 (Windows NT 10.0; Win64; x64) AppleWebKit/537.36 (KHTML, like Gecko) Chrome/132.0.0.0 Safari/537.36 Edg/132.0.0.0","WebKit","Edge","132.0.0.0","Windows","10.0","https://app.prolific.com/","en-US,en;q=0.9","627f448165ed9095fd43cfd1","679edb085803f58d6bbd31ca","679ee916f92f86eaf5e1c274","","null","<img  src='G_3.jpg' height='90'> <img   src='G_5.jpg' height='90'> <img   src='G_7.jpg' height='90'> <img   src='G_9.jpg' height='90'> <img  src='G_1.jpg' height='90'>","null","Animation0","",""
"","","","","","html-keyboard-response","48","125338","0.0-24.0","29","1","2025-02-02 03:49:34","bc01a2b6f61d06f6604adb8657495020","108.12.255.112","Mozilla/5.0 (Windows NT 10.0; Win64; x64) AppleWebKit/537.36 (KHTML, like Gecko) Chrome/132.0.0.0 Safari/537.36 Edg/132.0.0.0","WebKit","Edge","132.0.0.0","Windows","10.0","https://app.prolific.com/","en-US,en;q=0.9","627f448165ed9095fd43cfd1","679edb085803f58d6bbd31ca","679ee916f92f86eaf5e1c274","","3106","[""Did you notice any patterns? <br><br>Press Enter to watch that example again and follow the steps of Omgne Sort.""]","enter","","",""
"","","","","","html-button-response","49","125754","0.0-25.0","29","1","2025-02-02 03:49:34","bc01a2b6f61d06f6604adb8657495020","108.12.255.112","Mozilla/5.0 (Windows NT 10.0; Win64; x64) AppleWebKit/537.36 (KHTML, like Gecko) Chrome/132.0.0.0 Safari/537.36 Edg/132.0.0.0","WebKit","Edge","132.0.0.0","Windows","10.0","https://app.prolific.com/","en-US,en;q=0.9","627f448165ed9095fd43cfd1","679edb085803f58d6bbd31ca","679ee916f92f86eaf5e1c274","","null","<img id='selected' src='G_5.jpg' height='90'> <img src='G_3.jpg' height='90'> <img src='G_7.jpg' height='90'> <img src='G_9.jpg' height='90'> <img src='G_1.jpg' height='90'>","null","Learning example 0","",""
"","","","","","html-button-response","50","126063","0.0-26.0","29","1","2025-02-02 03:49:34","bc01a2b6f61d06f6604adb8657495020","108.12.255.112","Mozilla/5.0 (Windows NT 10.0; Win64; x64) AppleWebKit/537.36 (KHTML, like Gecko) Chrome/132.0.0.0 Safari/537.36 Edg/132.0.0.0","WebKit","Edge","132.0.0.0","Windows","10.0","https://app.prolific.com/","en-US,en;q=0.9","627f448165ed9095fd43cfd1","679edb085803f58d6bbd31ca","679ee916f92f86eaf5e1c274","","null","<img id='selected' src='G_5.jpg' height='90'> <img id='selected' src='G_3.jpg' height='90'> <img src='G_7.jpg' height='90'> <img src='G_9.jpg' height='90'> <img src='G_1.jpg' height='90'>","null","Learning example 0","",""
"","","","","","html-button-response","51","126375","0.0-27.0","29","1","2025-02-02 03:49:34","bc01a2b6f61d06f6604adb8657495020","108.12.255.112","Mozilla/5.0 (Windows NT 10.0; Win64; x64) AppleWebKit/537.36 (KHTML, like Gecko) Chrome/132.0.0.0 Safari/537.36 Edg/132.0.0.0","WebKit","Edge","132.0.0.0","Windows","10.0","https://app.prolific.com/","en-US,en;q=0.9","627f448165ed9095fd43cfd1","679edb085803f58d6bbd31ca","679ee916f92f86eaf5e1c274","","null","<img id='swapped' src='G_3.jpg' height='90'> <img id='swapped' src='G_5.jpg' height='90'> <img src='G_7.jpg' height='90'> <img src='G_9.jpg' height='90'> <img src='G_1.jpg' height='90'>","null","Learning example 0","",""
"","","","","","html-button-response","52","153632","0.0-28.0-0.0-0.0","29","1","2025-02-02 03:49:34","bc01a2b6f61d06f6604adb8657495020","108.12.255.112","Mozilla/5.0 (Windows NT 10.0; Win64; x64) AppleWebKit/537.36 (KHTML, like Gecko) Chrome/132.0.0.0 Safari/537.36 Edg/132.0.0.0","WebKit","Edge","132.0.0.0","Windows","10.0","https://app.prolific.com/","en-US,en;q=0.9","627f448165ed9095fd43cfd1","679edb085803f58d6bbd31ca","679ee916f92f86eaf5e1c274","","27252","<img id='swapped' src='G_3.jpg' height='90'> <img id='swapped' src='G_5.jpg' height='90'> <img src='G_7.jpg' height='90'> <img src='G_9.jpg' height='90'> <img src='G_1.jpg' height='90'>","0","Learning example 0","",""
"","","","","","html-button-response","53","154220","0.0-28.1-0.1-0.1","29","1","2025-02-02 03:49:34","bc01a2b6f61d06f6604adb8657495020","108.12.255.112","Mozilla/5.0 (Windows NT 10.0; Win64; x64) AppleWebKit/537.36 (KHTML, like Gecko) Chrome/132.0.0.0 Safari/537.36 Edg/132.0.0.0","WebKit","Edge","132.0.0.0","Windows","10.0","https://app.prolific.com/","en-US,en;q=0.9","627f448165ed9095fd43cfd1","679edb085803f58d6bbd31ca","679ee916f92f86eaf5e1c274","","583","<img id='swapped' src='G_3.jpg' height='90'> <img id='swapped' src='G_5.jpg' height='90'> <img src='G_7.jpg' height='90'> <img src='G_9.jpg' height='90'> <img src='G_1.jpg' height='90'>","1","Learning example 0","",""
"","","","","","html-button-response","54","154431","0.0-29.0","29","1","2025-02-02 03:49:34","bc01a2b6f61d06f6604adb8657495020","108.12.255.112","Mozilla/5.0 (Windows NT 10.0; Win64; x64) AppleWebKit/537.36 (KHTML, like Gecko) Chrome/132.0.0.0 Safari/537.36 Edg/132.0.0.0","WebKit","Edge","132.0.0.0","Windows","10.0","https://app.prolific.com/","en-US,en;q=0.9","627f448165ed9095fd43cfd1","679edb085803f58d6bbd31ca","679ee916f92f86eaf5e1c274","","null","<img  src='G_3.jpg' height='90'> <img  src='G_5.jpg' height='90'> <img src='G_7.jpg' height='90'> <img src='G_9.jpg' height='90'> <img src='G_1.jpg' height='90'>","null","Learning example 0","",""
"","","","","","html-button-response","55","154837","0.0-30.0","29","1","2025-02-02 03:49:34","bc01a2b6f61d06f6604adb8657495020","108.12.255.112","Mozilla/5.0 (Windows NT 10.0; Win64; x64) AppleWebKit/537.36 (KHTML, like Gecko) Chrome/132.0.0.0 Safari/537.36 Edg/132.0.0.0","WebKit","Edge","132.0.0.0","Windows","10.0","https://app.prolific.com/","en-US,en;q=0.9","627f448165ed9095fd43cfd1","679edb085803f58d6bbd31ca","679ee916f92f86eaf5e1c274","","null","<img  src='G_3.jpg' height='90'> <img id='selected'  src='G_5.jpg' height='90'> <img src='G_7.jpg' height='90'> <img src='G_9.jpg' height='90'> <img src='G_1.jpg' height='90'>","null","Learning example 0","",""
"","","","","","html-button-response","56","155155","0.0-31.0","29","1","2025-02-02 03:49:34","bc01a2b6f61d06f6604adb8657495020","108.12.255.112","Mozilla/5.0 (Windows NT 10.0; Win64; x64) AppleWebKit/537.36 (KHTML, like Gecko) Chrome/132.0.0.0 Safari/537.36 Edg/132.0.0.0","WebKit","Edge","132.0.0.0","Windows","10.0","https://app.prolific.com/","en-US,en;q=0.9","627f448165ed9095fd43cfd1","679edb085803f58d6bbd31ca","679ee916f92f86eaf5e1c274","","null","<img  src='G_3.jpg' height='90'> <img id='selected'  src='G_5.jpg' height='90'> <img id='selected' src='G_7.jpg' height='90'> <img src='G_9.jpg' height='90'> <img src='G_1.jpg' height='90'>","null","Learning example 0","",""
"","","","","","html-button-response","57","155464","0.0-32.0","29","1","2025-02-02 03:49:34","bc01a2b6f61d06f6604adb8657495020","108.12.255.112","Mozilla/5.0 (Windows NT 10.0; Win64; x64) AppleWebKit/537.36 (KHTML, like Gecko) Chrome/132.0.0.0 Safari/537.36 Edg/132.0.0.0","WebKit","Edge","132.0.0.0","Windows","10.0","https://app.prolific.com/","en-US,en;q=0.9","627f448165ed9095fd43cfd1","679edb085803f58d6bbd31ca","679ee916f92f86eaf5e1c274","","null","<img  src='G_3.jpg' height='90'> <img id='selected'  src='G_5.jpg' height='90'> <img id='selected' src='G_7.jpg' height='90'> <img src='G_9.jpg' height='90'> <img src='G_1.jpg' height='90'>","null","Learning example 0","",""
"","","","","","html-button-response","58","156611","0.0-33.0-0.0-0.0","29","1","2025-02-02 03:49:34","bc01a2b6f61d06f6604adb8657495020","108.12.255.112","Mozilla/5.0 (Windows NT 10.0; Win64; x64) AppleWebKit/537.36 (KHTML, like Gecko) Chrome/132.0.0.0 Safari/537.36 Edg/132.0.0.0","WebKit","Edge","132.0.0.0","Windows","10.0","https://app.prolific.com/","en-US,en;q=0.9","627f448165ed9095fd43cfd1","679edb085803f58d6bbd31ca","679ee916f92f86eaf5e1c274","","1141","<img  src='G_3.jpg' height='90'> <img id='selected'  src='G_5.jpg' height='90'> <img id='selected' src='G_7.jpg' height='90'> <img src='G_9.jpg' height='90'> <img src='G_1.jpg' height='90'>","1","Learning example 0","",""
"","","","","","html-button-response","59","157911","0.0-33.1-0.1-0.1","29","1","2025-02-02 03:49:34","bc01a2b6f61d06f6604adb8657495020","108.12.255.112","Mozilla/5.0 (Windows NT 10.0; Win64; x64) AppleWebKit/537.36 (KHTML, like Gecko) Chrome/132.0.0.0 Safari/537.36 Edg/132.0.0.0","WebKit","Edge","132.0.0.0","Windows","10.0","https://app.prolific.com/","en-US,en;q=0.9","627f448165ed9095fd43cfd1","679edb085803f58d6bbd31ca","679ee916f92f86eaf5e1c274","","1295","<img  src='G_3.jpg' height='90'> <img id='selected'  src='G_5.jpg' height='90'> <img id='selected' src='G_7.jpg' height='90'> <img src='G_9.jpg' height='90'> <img src='G_1.jpg' height='90'>","2","Learning example 0","",""
"","","","","","html-button-response","60","158129","0.0-34.0","29","1","2025-02-02 03:49:34","bc01a2b6f61d06f6604adb8657495020","108.12.255.112","Mozilla/5.0 (Windows NT 10.0; Win64; x64) AppleWebKit/537.36 (KHTML, like Gecko) Chrome/132.0.0.0 Safari/537.36 Edg/132.0.0.0","WebKit","Edge","132.0.0.0","Windows","10.0","https://app.prolific.com/","en-US,en;q=0.9","627f448165ed9095fd43cfd1","679edb085803f58d6bbd31ca","679ee916f92f86eaf5e1c274","","null","<img  src='G_3.jpg' height='90'> <img   src='G_5.jpg' height='90'> <img  src='G_7.jpg' height='90'> <img src='G_9.jpg' height='90'> <img src='G_1.jpg' height='90'>","null","Learning example 0","",""
"","","","","","html-button-response","61","158546","0.0-35.0","29","1","2025-02-02 03:49:34","bc01a2b6f61d06f6604adb8657495020","108.12.255.112","Mozilla/5.0 (Windows NT 10.0; Win64; x64) AppleWebKit/537.36 (KHTML, like Gecko) Chrome/132.0.0.0 Safari/537.36 Edg/132.0.0.0","WebKit","Edge","132.0.0.0","Windows","10.0","https://app.prolific.com/","en-US,en;q=0.9","627f448165ed9095fd43cfd1","679edb085803f58d6bbd31ca","679ee916f92f86eaf5e1c274","","null","<img  src='G_3.jpg' height='90'> <img   src='G_5.jpg' height='90'> <img id='selected'  src='G_7.jpg' height='90'> <img src='G_9.jpg' height='90'> <img src='G_1.jpg' height='90'>","null","Learning example 0","",""
"","","","","","html-button-response","62","158863","0.0-36.0","29","1","2025-02-02 03:49:34","bc01a2b6f61d06f6604adb8657495020","108.12.255.112","Mozilla/5.0 (Windows NT 10.0; Win64; x64) AppleWebKit/537.36 (KHTML, like Gecko) Chrome/132.0.0.0 Safari/537.36 Edg/132.0.0.0","WebKit","Edge","132.0.0.0","Windows","10.0","https://app.prolific.com/","en-US,en;q=0.9","627f448165ed9095fd43cfd1","679edb085803f58d6bbd31ca","679ee916f92f86eaf5e1c274","","null","<img  src='G_3.jpg' height='90'> <img   src='G_5.jpg' height='90'> <img id='selected'  src='G_7.jpg' height='90'> <img id='selected' src='G_9.jpg' height='90'> <img src='G_1.jpg' height='90'>","null","Learning example 0","",""
"","","","","","html-button-response","63","159183","0.0-37.0","29","1","2025-02-02 03:49:34","bc01a2b6f61d06f6604adb8657495020","108.12.255.112","Mozilla/5.0 (Windows NT 10.0; Win64; x64) AppleWebKit/537.36 (KHTML, like Gecko) Chrome/132.0.0.0 Safari/537.36 Edg/132.0.0.0","WebKit","Edge","132.0.0.0","Windows","10.0","https://app.prolific.com/","en-US,en;q=0.9","627f448165ed9095fd43cfd1","679edb085803f58d6bbd31ca","679ee916f92f86eaf5e1c274","","null","<img  src='G_3.jpg' height='90'> <img   src='G_5.jpg' height='90'> <img id='selected'  src='G_7.jpg' height='90'> <img id='selected' src='G_9.jpg' height='90'> <img src='G_1.jpg' height='90'>","null","Learning example 0","",""
"","","","","","html-button-response","64","159453","0.0-38.0-0.0-0.0","29","1","2025-02-02 03:49:34","bc01a2b6f61d06f6604adb8657495020","108.12.255.112","Mozilla/5.0 (Windows NT 10.0; Win64; x64) AppleWebKit/537.36 (KHTML, like Gecko) Chrome/132.0.0.0 Safari/537.36 Edg/132.0.0.0","WebKit","Edge","132.0.0.0","Windows","10.0","https://app.prolific.com/","en-US,en;q=0.9","627f448165ed9095fd43cfd1","679edb085803f58d6bbd31ca","679ee916f92f86eaf5e1c274","","265","<img  src='G_3.jpg' height='90'> <img   src='G_5.jpg' height='90'> <img id='selected'  src='G_7.jpg' height='90'> <img id='selected' src='G_9.jpg' height='90'> <img src='G_1.jpg' height='90'>","2","Learning example 0","",""
"","","","","","html-button-response","65","159955","0.0-38.1-0.1-0.1","29","1","2025-02-02 03:49:34","bc01a2b6f61d06f6604adb8657495020","108.12.255.112","Mozilla/5.0 (Windows NT 10.0; Win64; x64) AppleWebKit/537.36 (KHTML, like Gecko) Chrome/132.0.0.0 Safari/537.36 Edg/132.0.0.0","WebKit","Edge","132.0.0.0","Windows","10.0","https://app.prolific.com/","en-US,en;q=0.9","627f448165ed9095fd43cfd1","679edb085803f58d6bbd31ca","679ee916f92f86eaf5e1c274","","494","<img  src='G_3.jpg' height='90'> <img   src='G_5.jpg' height='90'> <img id='selected'  src='G_7.jpg' height='90'> <img id='selected' src='G_9.jpg' height='90'> <img src='G_1.jpg' height='90'>","3","Learning example 0","",""
"","","","","","html-button-response","66","160163","0.0-39.0","29","1","2025-02-02 03:49:34","bc01a2b6f61d06f6604adb8657495020","108.12.255.112","Mozilla/5.0 (Windows NT 10.0; Win64; x64) AppleWebKit/537.36 (KHTML, like Gecko) Chrome/132.0.0.0 Safari/537.36 Edg/132.0.0.0","WebKit","Edge","132.0.0.0","Windows","10.0","https://app.prolific.com/","en-US,en;q=0.9","627f448165ed9095fd43cfd1","679edb085803f58d6bbd31ca","679ee916f92f86eaf5e1c274","","null","<img  src='G_3.jpg' height='90'> <img   src='G_5.jpg' height='90'> <img   src='G_7.jpg' height='90'> <img  src='G_9.jpg' height='90'> <img src='G_1.jpg' height='90'>","null","Learning example 0","",""
"","","","","","html-button-response","67","160582","0.0-40.0","29","1","2025-02-02 03:49:34","bc01a2b6f61d06f6604adb8657495020","108.12.255.112","Mozilla/5.0 (Windows NT 10.0; Win64; x64) AppleWebKit/537.36 (KHTML, like Gecko) Chrome/132.0.0.0 Safari/537.36 Edg/132.0.0.0","WebKit","Edge","132.0.0.0","Windows","10.0","https://app.prolific.com/","en-US,en;q=0.9","627f448165ed9095fd43cfd1","679edb085803f58d6bbd31ca","679ee916f92f86eaf5e1c274","","null","<img  src='G_3.jpg' height='90'> <img   src='G_5.jpg' height='90'> <img   src='G_7.jpg' height='90'> <img id='selected'  src='G_9.jpg' height='90'> <img src='G_1.jpg' height='90'>","null","Learning example 0","",""
"","","","","","html-button-response","68","160889","0.0-41.0","29","1","2025-02-02 03:49:34","bc01a2b6f61d06f6604adb8657495020","108.12.255.112","Mozilla/5.0 (Windows NT 10.0; Win64; x64) AppleWebKit/537.36 (KHTML, like Gecko) Chrome/132.0.0.0 Safari/537.36 Edg/132.0.0.0","WebKit","Edge","132.0.0.0","Windows","10.0","https://app.prolific.com/","en-US,en;q=0.9","627f448165ed9095fd43cfd1","679edb085803f58d6bbd31ca","679ee916f92f86eaf5e1c274","","null","<img  src='G_3.jpg' height='90'> <img   src='G_5.jpg' height='90'> <img   src='G_7.jpg' height='90'> <img id='selected'  src='G_9.jpg' height='90'> <img id='selected' src='G_1.jpg' height='90'>","null","Learning example 0","",""
"","","","","","html-button-response","69","161202","0.0-42.0","29","1","2025-02-02 03:49:34","bc01a2b6f61d06f6604adb8657495020","108.12.255.112","Mozilla/5.0 (Windows NT 10.0; Win64; x64) AppleWebKit/537.36 (KHTML, like Gecko) Chrome/132.0.0.0 Safari/537.36 Edg/132.0.0.0","WebKit","Edge","132.0.0.0","Windows","10.0","https://app.prolific.com/","en-US,en;q=0.9","627f448165ed9095fd43cfd1","679edb085803f58d6bbd31ca","679ee916f92f86eaf5e1c274","","null","<img  src='G_3.jpg' height='90'> <img   src='G_5.jpg' height='90'> <img   src='G_7.jpg' height='90'> <img id='selected'  src='G_9.jpg' height='90'> <img id='selected' src='G_1.jpg' height='90'>","null","Learning example 0","",""
"","","","","","html-button-response","70","161777","0.0-43.0-0.0-0.0","29","1","2025-02-02 03:49:34","bc01a2b6f61d06f6604adb8657495020","108.12.255.112","Mozilla/5.0 (Windows NT 10.0; Win64; x64) AppleWebKit/537.36 (KHTML, like Gecko) Chrome/132.0.0.0 Safari/537.36 Edg/132.0.0.0","WebKit","Edge","132.0.0.0","Windows","10.0","https://app.prolific.com/","en-US,en;q=0.9","627f448165ed9095fd43cfd1","679edb085803f58d6bbd31ca","679ee916f92f86eaf5e1c274","","570","<img  src='G_3.jpg' height='90'> <img   src='G_5.jpg' height='90'> <img   src='G_7.jpg' height='90'> <img id='selected'  src='G_9.jpg' height='90'> <img id='selected' src='G_1.jpg' height='90'>","4","Learning example 0","",""
"","","","","","html-button-response","71","166653","0.0-43.1-0.1-0.1","29","1","2025-02-02 03:49:34","bc01a2b6f61d06f6604adb8657495020","108.12.255.112","Mozilla/5.0 (Windows NT 10.0; Win64; x64) AppleWebKit/537.36 (KHTML, like Gecko) Chrome/132.0.0.0 Safari/537.36 Edg/132.0.0.0","WebKit","Edge","132.0.0.0","Windows","10.0","https://app.prolific.com/","en-US,en;q=0.9","627f448165ed9095fd43cfd1","679edb085803f58d6bbd31ca","679ee916f92f86eaf5e1c274","","4867","<img  src='G_3.jpg' height='90'> <img   src='G_5.jpg' height='90'> <img   src='G_7.jpg' height='90'> <img id='selected'  src='G_9.jpg' height='90'> <img id='selected' src='G_1.jpg' height='90'>","3","Learning example 0","",""
"","","","","","html-button-response","72","166862","0.0-44.0","29","1","2025-02-02 03:49:34","bc01a2b6f61d06f6604adb8657495020","108.12.255.112","Mozilla/5.0 (Windows NT 10.0; Win64; x64) AppleWebKit/537.36 (KHTML, like Gecko) Chrome/132.0.0.0 Safari/537.36 Edg/132.0.0.0","WebKit","Edge","132.0.0.0","Windows","10.0","https://app.prolific.com/","en-US,en;q=0.9","627f448165ed9095fd43cfd1","679edb085803f58d6bbd31ca","679ee916f92f86eaf5e1c274","","null","<img  src='G_3.jpg' height='90'> <img   src='G_5.jpg' height='90'> <img   src='G_7.jpg' height='90'> <img   src='G_9.jpg' height='90'> <img  src='G_1.jpg' height='90'>","null","Learning example 0","",""
"","","","","","html-keyboard-response","73","172862","0.0-45.0","29","1","2025-02-02 03:49:34","bc01a2b6f61d06f6604adb8657495020","108.12.255.112","Mozilla/5.0 (Windows NT 10.0; Win64; x64) AppleWebKit/537.36 (KHTML, like Gecko) Chrome/132.0.0.0 Safari/537.36 Edg/132.0.0.0","WebKit","Edge","132.0.0.0","Windows","10.0","https://app.prolific.com/","en-US,en;q=0.9","627f448165ed9095fd43cfd1","679edb085803f58d6bbd31ca","679ee916f92f86eaf5e1c274","","5989","[""Final order was 1,2,3,4,5. The initial order was 2,1,3,4,5.<br>It took 1 swaps to sort it correctly with Omgne Sort. <br><br>Press Enter to continue.""]","enter","","",""
"","","","","","html-keyboard-response","74","174921","0.0-46.0","29","1","2025-02-02 03:49:34","bc01a2b6f61d06f6604adb8657495020","108.12.255.112","Mozilla/5.0 (Windows NT 10.0; Win64; x64) AppleWebKit/537.36 (KHTML, like Gecko) Chrome/132.0.0.0 Safari/537.36 Edg/132.0.0.0","WebKit","Edge","132.0.0.0","Windows","10.0","https://app.prolific.com/","en-US,en;q=0.9","627f448165ed9095fd43cfd1","679edb085803f58d6bbd31ca","679ee916f92f86eaf5e1c274","","2055","[""Example 2<br><br>You will watch Omnge Sort in action. Try to identify any patterns in the comparisons made by this method. <br><br>Press Enter to continue.""]","enter","","",""
"","","","","","html-keyboard-response","75","175439","0.0-47.0","29","1","2025-02-02 03:49:34","bc01a2b6f61d06f6604adb8657495020","108.12.255.112","Mozilla/5.0 (Windows NT 10.0; Win64; x64) AppleWebKit/537.36 (KHTML, like Gecko) Chrome/132.0.0.0 Safari/537.36 Edg/132.0.0.0","WebKit","Edge","132.0.0.0","Windows","10.0","https://app.prolific.com/","en-US,en;q=0.9","627f448165ed9095fd43cfd1","679edb085803f58d6bbd31ca","679ee916f92f86eaf5e1c274","","null","<img id='selected' src='G_1.jpg' height='90'> <img src='G_2.jpg' height='90'> <img src='G_4.jpg' height='90'> <img src='G_7.jpg' height='90'> <img src='G_6.jpg' height='90'> <img src='G_3.jpg' height='90'> <img src='G_5.jpg' height='90'> <img src='G_8.jpg' height='90'>","null","Animation1","",""
"","","","","","html-keyboard-response","76","175944","0.0-48.0","29","1","2025-02-02 03:49:34","bc01a2b6f61d06f6604adb8657495020","108.12.255.112","Mozilla/5.0 (Windows NT 10.0; Win64; x64) AppleWebKit/537.36 (KHTML, like Gecko) Chrome/132.0.0.0 Safari/537.36 Edg/132.0.0.0","WebKit","Edge","132.0.0.0","Windows","10.0","https://app.prolific.com/","en-US,en;q=0.9","627f448165ed9095fd43cfd1","679edb085803f58d6bbd31ca","679ee916f92f86eaf5e1c274","","null","<img id='selected' src='G_1.jpg' height='90'> <img id='selected' src='G_2.jpg' height='90'> <img src='G_4.jpg' height='90'> <img src='G_7.jpg' height='90'> <img src='G_6.jpg' height='90'> <img src='G_3.jpg' height='90'> <img src='G_5.jpg' height='90'> <img src='G_8.jpg' height='90'>","null","Animation1","",""
"","","","","","html-keyboard-response","77","176452","0.0-49.0","29","1","2025-02-02 03:49:34","bc01a2b6f61d06f6604adb8657495020","108.12.255.112","Mozilla/5.0 (Windows NT 10.0; Win64; x64) AppleWebKit/537.36 (KHTML, like Gecko) Chrome/132.0.0.0 Safari/537.36 Edg/132.0.0.0","WebKit","Edge","132.0.0.0","Windows","10.0","https://app.prolific.com/","en-US,en;q=0.9","627f448165ed9095fd43cfd1","679edb085803f58d6bbd31ca","679ee916f92f86eaf5e1c274","","null","<img id='selected' src='G_1.jpg' height='90'> <img id='selected' src='G_2.jpg' height='90'> <img src='G_4.jpg' height='90'> <img src='G_7.jpg' height='90'> <img src='G_6.jpg' height='90'> <img src='G_3.jpg' height='90'> <img src='G_5.jpg' height='90'> <img src='G_8.jpg' height='90'>","null","Animation1","",""
"","","","","","html-keyboard-response","78","176771","0.0-50.0","29","1","2025-02-02 03:49:34","bc01a2b6f61d06f6604adb8657495020","108.12.255.112","Mozilla/5.0 (Windows NT 10.0; Win64; x64) AppleWebKit/537.36 (KHTML, like Gecko) Chrome/132.0.0.0 Safari/537.36 Edg/132.0.0.0","WebKit","Edge","132.0.0.0","Windows","10.0","https://app.prolific.com/","en-US,en;q=0.9","627f448165ed9095fd43cfd1","679edb085803f58d6bbd31ca","679ee916f92f86eaf5e1c274","","null","<img  src='G_1.jpg' height='90'> <img  src='G_2.jpg' height='90'> <img src='G_4.jpg' height='90'> <img src='G_7.jpg' height='90'> <img src='G_6.jpg' height='90'> <img src='G_3.jpg' height='90'> <img src='G_5.jpg' height='90'> <img src='G_8.jpg' height='90'>","null","Animation1","",""
"","","","","","html-keyboard-response","79","177286","0.0-51.0","29","1","2025-02-02 03:49:34","bc01a2b6f61d06f6604adb8657495020","108.12.255.112","Mozilla/5.0 (Windows NT 10.0; Win64; x64) AppleWebKit/537.36 (KHTML, like Gecko) Chrome/132.0.0.0 Safari/537.36 Edg/132.0.0.0","WebKit","Edge","132.0.0.0","Windows","10.0","https://app.prolific.com/","en-US,en;q=0.9","627f448165ed9095fd43cfd1","679edb085803f58d6bbd31ca","679ee916f92f86eaf5e1c274","","null","<img  src='G_1.jpg' height='90'> <img id='selected'  src='G_2.jpg' height='90'> <img src='G_4.jpg' height='90'> <img src='G_7.jpg' height='90'> <img src='G_6.jpg' height='90'> <img src='G_3.jpg' height='90'> <img src='G_5.jpg' height='90'> <img src='G_8.jpg' height='90'>","null","Animation1","",""
"","","","","","html-keyboard-response","80","177801","0.0-52.0","29","1","2025-02-02 03:49:34","bc01a2b6f61d06f6604adb8657495020","108.12.255.112","Mozilla/5.0 (Windows NT 10.0; Win64; x64) AppleWebKit/537.36 (KHTML, like Gecko) Chrome/132.0.0.0 Safari/537.36 Edg/132.0.0.0","WebKit","Edge","132.0.0.0","Windows","10.0","https://app.prolific.com/","en-US,en;q=0.9","627f448165ed9095fd43cfd1","679edb085803f58d6bbd31ca","679ee916f92f86eaf5e1c274","","null","<img  src='G_1.jpg' height='90'> <img id='selected'  src='G_2.jpg' height='90'> <img id='selected' src='G_4.jpg' height='90'> <img src='G_7.jpg' height='90'> <img src='G_6.jpg' height='90'> <img src='G_3.jpg' height='90'> <img src='G_5.jpg' height='90'> <img src='G_8.jpg' height='90'>","null","Animation1","",""
"","","","","","html-keyboard-response","81","178313","0.0-53.0","29","1","2025-02-02 03:49:34","bc01a2b6f61d06f6604adb8657495020","108.12.255.112","Mozilla/5.0 (Windows NT 10.0; Win64; x64) AppleWebKit/537.36 (KHTML, like Gecko) Chrome/132.0.0.0 Safari/537.36 Edg/132.0.0.0","WebKit","Edge","132.0.0.0","Windows","10.0","https://app.prolific.com/","en-US,en;q=0.9","627f448165ed9095fd43cfd1","679edb085803f58d6bbd31ca","679ee916f92f86eaf5e1c274","","null","<img  src='G_1.jpg' height='90'> <img id='swapped' src='G_4.jpg' height='90'> <img id='swapped'  src='G_2.jpg' height='90'> <img src='G_7.jpg' height='90'> <img src='G_6.jpg' height='90'> <img src='G_3.jpg' height='90'> <img src='G_5.jpg' height='90'> <img src='G_8.jpg' height='90'>","null","Animation1","",""
"","","","","","html-keyboard-response","82","178626","0.0-54.0","29","1","2025-02-02 03:49:34","bc01a2b6f61d06f6604adb8657495020","108.12.255.112","Mozilla/5.0 (Windows NT 10.0; Win64; x64) AppleWebKit/537.36 (KHTML, like Gecko) Chrome/132.0.0.0 Safari/537.36 Edg/132.0.0.0","WebKit","Edge","132.0.0.0","Windows","10.0","https://app.prolific.com/","en-US,en;q=0.9","627f448165ed9095fd43cfd1","679edb085803f58d6bbd31ca","679ee916f92f86eaf5e1c274","","null","<img  src='G_1.jpg' height='90'> <img  src='G_4.jpg' height='90'> <img   src='G_2.jpg' height='90'> <img src='G_7.jpg' height='90'> <img src='G_6.jpg' height='90'> <img src='G_3.jpg' height='90'> <img src='G_5.jpg' height='90'> <img src='G_8.jpg' height='90'>","null","Animation1","",""
"","","","","","html-keyboard-response","83","179141","0.0-55.0","29","1","2025-02-02 03:49:34","bc01a2b6f61d06f6604adb8657495020","108.12.255.112","Mozilla/5.0 (Windows NT 10.0; Win64; x64) AppleWebKit/537.36 (KHTML, like Gecko) Chrome/132.0.0.0 Safari/537.36 Edg/132.0.0.0","WebKit","Edge","132.0.0.0","Windows","10.0","https://app.prolific.com/","en-US,en;q=0.9","627f448165ed9095fd43cfd1","679edb085803f58d6bbd31ca","679ee916f92f86eaf5e1c274","","null","<img id='selected'  src='G_1.jpg' height='90'> <img  src='G_4.jpg' height='90'> <img   src='G_2.jpg' height='90'> <img src='G_7.jpg' height='90'> <img src='G_6.jpg' height='90'> <img src='G_3.jpg' height='90'> <img src='G_5.jpg' height='90'> <img src='G_8.jpg' height='90'>","null","Animation1","",""
"","","","","","html-keyboard-response","84","179660","0.0-56.0","29","1","2025-02-02 03:49:34","bc01a2b6f61d06f6604adb8657495020","108.12.255.112","Mozilla/5.0 (Windows NT 10.0; Win64; x64) AppleWebKit/537.36 (KHTML, like Gecko) Chrome/132.0.0.0 Safari/537.36 Edg/132.0.0.0","WebKit","Edge","132.0.0.0","Windows","10.0","https://app.prolific.com/","en-US,en;q=0.9","627f448165ed9095fd43cfd1","679edb085803f58d6bbd31ca","679ee916f92f86eaf5e1c274","","null","<img id='selected'  src='G_1.jpg' height='90'> <img id='selected'  src='G_4.jpg' height='90'> <img   src='G_2.jpg' height='90'> <img src='G_7.jpg' height='90'> <img src='G_6.jpg' height='90'> <img src='G_3.jpg' height='90'> <img src='G_5.jpg' height='90'> <img src='G_8.jpg' height='90'>","null","Animation1","",""
"","","","","","html-keyboard-response","85","180167","0.0-57.0","29","1","2025-02-02 03:49:34","bc01a2b6f61d06f6604adb8657495020","108.12.255.112","Mozilla/5.0 (Windows NT 10.0; Win64; x64) AppleWebKit/537.36 (KHTML, like Gecko) Chrome/132.0.0.0 Safari/537.36 Edg/132.0.0.0","WebKit","Edge","132.0.0.0","Windows","10.0","https://app.prolific.com/","en-US,en;q=0.9","627f448165ed9095fd43cfd1","679edb085803f58d6bbd31ca","679ee916f92f86eaf5e1c274","","null","<img id='swapped'  src='G_4.jpg' height='90'> <img id='swapped'  src='G_1.jpg' height='90'> <img   src='G_2.jpg' height='90'> <img src='G_7.jpg' height='90'> <img src='G_6.jpg' height='90'> <img src='G_3.jpg' height='90'> <img src='G_5.jpg' height='90'> <img src='G_8.jpg' height='90'>","null","Animation1","",""
"","","","","","html-keyboard-response","86","180485","0.0-58.0","29","1","2025-02-02 03:49:34","bc01a2b6f61d06f6604adb8657495020","108.12.255.112","Mozilla/5.0 (Windows NT 10.0; Win64; x64) AppleWebKit/537.36 (KHTML, like Gecko) Chrome/132.0.0.0 Safari/537.36 Edg/132.0.0.0","WebKit","Edge","132.0.0.0","Windows","10.0","https://app.prolific.com/","en-US,en;q=0.9","627f448165ed9095fd43cfd1","679edb085803f58d6bbd31ca","679ee916f92f86eaf5e1c274","","null","<img   src='G_4.jpg' height='90'> <img   src='G_1.jpg' height='90'> <img   src='G_2.jpg' height='90'> <img src='G_7.jpg' height='90'> <img src='G_6.jpg' height='90'> <img src='G_3.jpg' height='90'> <img src='G_5.jpg' height='90'> <img src='G_8.jpg' height='90'>","null","Animation1","",""
"","","","","","html-keyboard-response","87","180996","0.0-59.0","29","1","2025-02-02 03:49:34","bc01a2b6f61d06f6604adb8657495020","108.12.255.112","Mozilla/5.0 (Windows NT 10.0; Win64; x64) AppleWebKit/537.36 (KHTML, like Gecko) Chrome/132.0.0.0 Safari/537.36 Edg/132.0.0.0","WebKit","Edge","132.0.0.0","Windows","10.0","https://app.prolific.com/","en-US,en;q=0.9","627f448165ed9095fd43cfd1","679edb085803f58d6bbd31ca","679ee916f92f86eaf5e1c274","","null","<img   src='G_4.jpg' height='90'> <img   src='G_1.jpg' height='90'> <img id='selected'   src='G_2.jpg' height='90'> <img src='G_7.jpg' height='90'> <img src='G_6.jpg' height='90'> <img src='G_3.jpg' height='90'> <img src='G_5.jpg' height='90'> <img src='G_8.jpg' height='90'>","null","Animation1","",""
"","","","","","html-keyboard-response","88","181516","0.0-60.0","29","1","2025-02-02 03:49:34","bc01a2b6f61d06f6604adb8657495020","108.12.255.112","Mozilla/5.0 (Windows NT 10.0; Win64; x64) AppleWebKit/537.36 (KHTML, like Gecko) Chrome/132.0.0.0 Safari/537.36 Edg/132.0.0.0","WebKit","Edge","132.0.0.0","Windows","10.0","https://app.prolific.com/","en-US,en;q=0.9","627f448165ed9095fd43cfd1","679edb085803f58d6bbd31ca","679ee916f92f86eaf5e1c274","","null","<img   src='G_4.jpg' height='90'> <img   src='G_1.jpg' height='90'> <img id='selected'   src='G_2.jpg' height='90'> <img id='selected' src='G_7.jpg' height='90'> <img src='G_6.jpg' height='90'> <img src='G_3.jpg' height='90'> <img src='G_5.jpg' height='90'> <img src='G_8.jpg' height='90'>","null","Animation1","",""
"","","","","","html-keyboard-response","89","182037","0.0-61.0","29","1","2025-02-02 03:49:34","bc01a2b6f61d06f6604adb8657495020","108.12.255.112","Mozilla/5.0 (Windows NT 10.0; Win64; x64) AppleWebKit/537.36 (KHTML, like Gecko) Chrome/132.0.0.0 Safari/537.36 Edg/132.0.0.0","WebKit","Edge","132.0.0.0","Windows","10.0","https://app.prolific.com/","en-US,en;q=0.9","627f448165ed9095fd43cfd1","679edb085803f58d6bbd31ca","679ee916f92f86eaf5e1c274","","null","<img   src='G_4.jpg' height='90'> <img   src='G_1.jpg' height='90'> <img id='swapped' src='G_7.jpg' height='90'> <img id='swapped'   src='G_2.jpg' height='90'> <img src='G_6.jpg' height='90'> <img src='G_3.jpg' height='90'> <img src='G_5.jpg' height='90'> <img src='G_8.jpg' height='90'>","null","Animation1","",""
"","","","","","html-keyboard-response","90","182365","0.0-62.0","29","1","2025-02-02 03:49:34","bc01a2b6f61d06f6604adb8657495020","108.12.255.112","Mozilla/5.0 (Windows NT 10.0; Win64; x64) AppleWebKit/537.36 (KHTML, like Gecko) Chrome/132.0.0.0 Safari/537.36 Edg/132.0.0.0","WebKit","Edge","132.0.0.0","Windows","10.0","https://app.prolific.com/","en-US,en;q=0.9","627f448165ed9095fd43cfd1","679edb085803f58d6bbd31ca","679ee916f92f86eaf5e1c274","","null","<img   src='G_4.jpg' height='90'> <img   src='G_1.jpg' height='90'> <img  src='G_7.jpg' height='90'> <img    src='G_2.jpg' height='90'> <img src='G_6.jpg' height='90'> <img src='G_3.jpg' height='90'> <img src='G_5.jpg' height='90'> <img src='G_8.jpg' height='90'>","null","Animation1","",""
"","","","","","html-keyboard-response","91","182879","0.0-63.0","29","1","2025-02-02 03:49:34","bc01a2b6f61d06f6604adb8657495020","108.12.255.112","Mozilla/5.0 (Windows NT 10.0; Win64; x64) AppleWebKit/537.36 (KHTML, like Gecko) Chrome/132.0.0.0 Safari/537.36 Edg/132.0.0.0","WebKit","Edge","132.0.0.0","Windows","10.0","https://app.prolific.com/","en-US,en;q=0.9","627f448165ed9095fd43cfd1","679edb085803f58d6bbd31ca","679ee916f92f86eaf5e1c274","","null","<img   src='G_4.jpg' height='90'> <img id='selected'   src='G_1.jpg' height='90'> <img  src='G_7.jpg' height='90'> <img    src='G_2.jpg' height='90'> <img src='G_6.jpg' height='90'> <img src='G_3.jpg' height='90'> <img src='G_5.jpg' height='90'> <img src='G_8.jpg' height='90'>","null","Animation1","",""
"","","","","","html-keyboard-response","92","183391","0.0-64.0","29","1","2025-02-02 03:49:34","bc01a2b6f61d06f6604adb8657495020","108.12.255.112","Mozilla/5.0 (Windows NT 10.0; Win64; x64) AppleWebKit/537.36 (KHTML, like Gecko) Chrome/132.0.0.0 Safari/537.36 Edg/132.0.0.0","WebKit","Edge","132.0.0.0","Windows","10.0","https://app.prolific.com/","en-US,en;q=0.9","627f448165ed9095fd43cfd1","679edb085803f58d6bbd31ca","679ee916f92f86eaf5e1c274","","null","<img   src='G_4.jpg' height='90'> <img id='selected'   src='G_1.jpg' height='90'> <img id='selected'  src='G_7.jpg' height='90'> <img    src='G_2.jpg' height='90'> <img src='G_6.jpg' height='90'> <img src='G_3.jpg' height='90'> <img src='G_5.jpg' height='90'> <img src='G_8.jpg' height='90'>","null","Animation1","",""
"","","","","","html-keyboard-response","93","183912","0.0-65.0","29","1","2025-02-02 03:49:34","bc01a2b6f61d06f6604adb8657495020","108.12.255.112","Mozilla/5.0 (Windows NT 10.0; Win64; x64) AppleWebKit/537.36 (KHTML, like Gecko) Chrome/132.0.0.0 Safari/537.36 Edg/132.0.0.0","WebKit","Edge","132.0.0.0","Windows","10.0","https://app.prolific.com/","en-US,en;q=0.9","627f448165ed9095fd43cfd1","679edb085803f58d6bbd31ca","679ee916f92f86eaf5e1c274","","null","<img   src='G_4.jpg' height='90'> <img id='swapped'  src='G_7.jpg' height='90'> <img id='swapped'   src='G_1.jpg' height='90'> <img    src='G_2.jpg' height='90'> <img src='G_6.jpg' height='90'> <img src='G_3.jpg' height='90'> <img src='G_5.jpg' height='90'> <img src='G_8.jpg' height='90'>","null","Animation1","",""
"","","","","","html-keyboard-response","94","184229","0.0-66.0","29","1","2025-02-02 03:49:34","bc01a2b6f61d06f6604adb8657495020","108.12.255.112","Mozilla/5.0 (Windows NT 10.0; Win64; x64) AppleWebKit/537.36 (KHTML, like Gecko) Chrome/132.0.0.0 Safari/537.36 Edg/132.0.0.0","WebKit","Edge","132.0.0.0","Windows","10.0","https://app.prolific.com/","en-US,en;q=0.9","627f448165ed9095fd43cfd1","679edb085803f58d6bbd31ca","679ee916f92f86eaf5e1c274","","null","<img   src='G_4.jpg' height='90'> <img   src='G_7.jpg' height='90'> <img    src='G_1.jpg' height='90'> <img    src='G_2.jpg' height='90'> <img src='G_6.jpg' height='90'> <img src='G_3.jpg' height='90'> <img src='G_5.jpg' height='90'> <img src='G_8.jpg' height='90'>","null","Animation1","",""
"","","","","","html-keyboard-response","95","184745","0.0-67.0","29","1","2025-02-02 03:49:34","bc01a2b6f61d06f6604adb8657495020","108.12.255.112","Mozilla/5.0 (Windows NT 10.0; Win64; x64) AppleWebKit/537.36 (KHTML, like Gecko) Chrome/132.0.0.0 Safari/537.36 Edg/132.0.0.0","WebKit","Edge","132.0.0.0","Windows","10.0","https://app.prolific.com/","en-US,en;q=0.9","627f448165ed9095fd43cfd1","679edb085803f58d6bbd31ca","679ee916f92f86eaf5e1c274","","null","<img id='selected'   src='G_4.jpg' height='90'> <img   src='G_7.jpg' height='90'> <img    src='G_1.jpg' height='90'> <img    src='G_2.jpg' height='90'> <img src='G_6.jpg' height='90'> <img src='G_3.jpg' height='90'> <img src='G_5.jpg' height='90'> <img src='G_8.jpg' height='90'>","null","Animation1","",""
"","","","","","html-keyboard-response","96","185266","0.0-68.0","29","1","2025-02-02 03:49:34","bc01a2b6f61d06f6604adb8657495020","108.12.255.112","Mozilla/5.0 (Windows NT 10.0; Win64; x64) AppleWebKit/537.36 (KHTML, like Gecko) Chrome/132.0.0.0 Safari/537.36 Edg/132.0.0.0","WebKit","Edge","132.0.0.0","Windows","10.0","https://app.prolific.com/","en-US,en;q=0.9","627f448165ed9095fd43cfd1","679edb085803f58d6bbd31ca","679ee916f92f86eaf5e1c274","","null","<img id='selected'   src='G_4.jpg' height='90'> <img id='selected'   src='G_7.jpg' height='90'> <img    src='G_1.jpg' height='90'> <img    src='G_2.jpg' height='90'> <img src='G_6.jpg' height='90'> <img src='G_3.jpg' height='90'> <img src='G_5.jpg' height='90'> <img src='G_8.jpg' height='90'>","null","Animation1","",""
"","","","","","html-keyboard-response","97","185780","0.0-69.0","29","1","2025-02-02 03:49:34","bc01a2b6f61d06f6604adb8657495020","108.12.255.112","Mozilla/5.0 (Windows NT 10.0; Win64; x64) AppleWebKit/537.36 (KHTML, like Gecko) Chrome/132.0.0.0 Safari/537.36 Edg/132.0.0.0","WebKit","Edge","132.0.0.0","Windows","10.0","https://app.prolific.com/","en-US,en;q=0.9","627f448165ed9095fd43cfd1","679edb085803f58d6bbd31ca","679ee916f92f86eaf5e1c274","","null","<img id='swapped'   src='G_7.jpg' height='90'> <img id='swapped'   src='G_4.jpg' height='90'> <img    src='G_1.jpg' height='90'> <img    src='G_2.jpg' height='90'> <img src='G_6.jpg' height='90'> <img src='G_3.jpg' height='90'> <img src='G_5.jpg' height='90'> <img src='G_8.jpg' height='90'>","null","Animation1","",""
"","","","","","html-keyboard-response","98","186098","0.0-70.0","29","1","2025-02-02 03:49:34","bc01a2b6f61d06f6604adb8657495020","108.12.255.112","Mozilla/5.0 (Windows NT 10.0; Win64; x64) AppleWebKit/537.36 (KHTML, like Gecko) Chrome/132.0.0.0 Safari/537.36 Edg/132.0.0.0","WebKit","Edge","132.0.0.0","Windows","10.0","https://app.prolific.com/","en-US,en;q=0.9","627f448165ed9095fd43cfd1","679edb085803f58d6bbd31ca","679ee916f92f86eaf5e1c274","","null","<img    src='G_7.jpg' height='90'> <img    src='G_4.jpg' height='90'> <img    src='G_1.jpg' height='90'> <img    src='G_2.jpg' height='90'> <img src='G_6.jpg' height='90'> <img src='G_3.jpg' height='90'> <img src='G_5.jpg' height='90'> <img src='G_8.jpg' height='90'>","null","Animation1","",""
"","","","","","html-keyboard-response","99","186604","0.0-71.0","29","1","2025-02-02 03:49:34","bc01a2b6f61d06f6604adb8657495020","108.12.255.112","Mozilla/5.0 (Windows NT 10.0; Win64; x64) AppleWebKit/537.36 (KHTML, like Gecko) Chrome/132.0.0.0 Safari/537.36 Edg/132.0.0.0","WebKit","Edge","132.0.0.0","Windows","10.0","https://app.prolific.com/","en-US,en;q=0.9","627f448165ed9095fd43cfd1","679edb085803f58d6bbd31ca","679ee916f92f86eaf5e1c274","","null","<img    src='G_7.jpg' height='90'> <img    src='G_4.jpg' height='90'> <img    src='G_1.jpg' height='90'> <img id='selected'    src='G_2.jpg' height='90'> <img src='G_6.jpg' height='90'> <img src='G_3.jpg' height='90'> <img src='G_5.jpg' height='90'> <img src='G_8.jpg' height='90'>","null","Animation1","",""
"","","","","","html-keyboard-response","100","187120","0.0-72.0","29","1","2025-02-02 03:49:34","bc01a2b6f61d06f6604adb8657495020","108.12.255.112","Mozilla/5.0 (Windows NT 10.0; Win64; x64) AppleWebKit/537.36 (KHTML, like Gecko) Chrome/132.0.0.0 Safari/537.36 Edg/132.0.0.0","WebKit","Edge","132.0.0.0","Windows","10.0","https://app.prolific.com/","en-US,en;q=0.9","627f448165ed9095fd43cfd1","679edb085803f58d6bbd31ca","679ee916f92f86eaf5e1c274","","null","<img    src='G_7.jpg' height='90'> <img    src='G_4.jpg' height='90'> <img    src='G_1.jpg' height='90'> <img id='selected'    src='G_2.jpg' height='90'> <img id='selected' src='G_6.jpg' height='90'> <img src='G_3.jpg' height='90'> <img src='G_5.jpg' height='90'> <img src='G_8.jpg' height='90'>","null","Animation1","",""
"","","","","","html-keyboard-response","101","187640","0.0-73.0","29","1","2025-02-02 03:49:34","bc01a2b6f61d06f6604adb8657495020","108.12.255.112","Mozilla/5.0 (Windows NT 10.0; Win64; x64) AppleWebKit/537.36 (KHTML, like Gecko) Chrome/132.0.0.0 Safari/537.36 Edg/132.0.0.0","WebKit","Edge","132.0.0.0","Windows","10.0","https://app.prolific.com/","en-US,en;q=0.9","627f448165ed9095fd43cfd1","679edb085803f58d6bbd31ca","679ee916f92f86eaf5e1c274","","null","<img    src='G_7.jpg' height='90'> <img    src='G_4.jpg' height='90'> <img    src='G_1.jpg' height='90'> <img id='swapped' src='G_6.jpg' height='90'> <img id='swapped'    src='G_2.jpg' height='90'> <img src='G_3.jpg' height='90'> <img src='G_5.jpg' height='90'> <img src='G_8.jpg' height='90'>","null","Animation1","",""
"","","","","","html-keyboard-response","102","187959","0.0-74.0","29","1","2025-02-02 03:49:34","bc01a2b6f61d06f6604adb8657495020","108.12.255.112","Mozilla/5.0 (Windows NT 10.0; Win64; x64) AppleWebKit/537.36 (KHTML, like Gecko) Chrome/132.0.0.0 Safari/537.36 Edg/132.0.0.0","WebKit","Edge","132.0.0.0","Windows","10.0","https://app.prolific.com/","en-US,en;q=0.9","627f448165ed9095fd43cfd1","679edb085803f58d6bbd31ca","679ee916f92f86eaf5e1c274","","null","<img    src='G_7.jpg' height='90'> <img    src='G_4.jpg' height='90'> <img    src='G_1.jpg' height='90'> <img  src='G_6.jpg' height='90'> <img     src='G_2.jpg' height='90'> <img src='G_3.jpg' height='90'> <img src='G_5.jpg' height='90'> <img src='G_8.jpg' height='90'>","null","Animation1","",""
"","","","","","html-keyboard-response","103","188474","0.0-75.0","29","1","2025-02-02 03:49:34","bc01a2b6f61d06f6604adb8657495020","108.12.255.112","Mozilla/5.0 (Windows NT 10.0; Win64; x64) AppleWebKit/537.36 (KHTML, like Gecko) Chrome/132.0.0.0 Safari/537.36 Edg/132.0.0.0","WebKit","Edge","132.0.0.0","Windows","10.0","https://app.prolific.com/","en-US,en;q=0.9","627f448165ed9095fd43cfd1","679edb085803f58d6bbd31ca","679ee916f92f86eaf5e1c274","","null","<img    src='G_7.jpg' height='90'> <img    src='G_4.jpg' height='90'> <img id='selected'    src='G_1.jpg' height='90'> <img  src='G_6.jpg' height='90'> <img     src='G_2.jpg' height='90'> <img src='G_3.jpg' height='90'> <img src='G_5.jpg' height='90'> <img src='G_8.jpg' height='90'>","null","Animation1","",""
"","","","","","html-keyboard-response","104","188994","0.0-76.0","29","1","2025-02-02 03:49:34","bc01a2b6f61d06f6604adb8657495020","108.12.255.112","Mozilla/5.0 (Windows NT 10.0; Win64; x64) AppleWebKit/537.36 (KHTML, like Gecko) Chrome/132.0.0.0 Safari/537.36 Edg/132.0.0.0","WebKit","Edge","132.0.0.0","Windows","10.0","https://app.prolific.com/","en-US,en;q=0.9","627f448165ed9095fd43cfd1","679edb085803f58d6bbd31ca","679ee916f92f86eaf5e1c274","","null","<img    src='G_7.jpg' height='90'> <img    src='G_4.jpg' height='90'> <img id='selected'    src='G_1.jpg' height='90'> <img id='selected'  src='G_6.jpg' height='90'> <img     src='G_2.jpg' height='90'> <img src='G_3.jpg' height='90'> <img src='G_5.jpg' height='90'> <img src='G_8.jpg' height='90'>","null","Animation1","",""
"","","","","","html-keyboard-response","105","189515","0.0-77.0","29","1","2025-02-02 03:49:34","bc01a2b6f61d06f6604adb8657495020","108.12.255.112","Mozilla/5.0 (Windows NT 10.0; Win64; x64) AppleWebKit/537.36 (KHTML, like Gecko) Chrome/132.0.0.0 Safari/537.36 Edg/132.0.0.0","WebKit","Edge","132.0.0.0","Windows","10.0","https://app.prolific.com/","en-US,en;q=0.9","627f448165ed9095fd43cfd1","679edb085803f58d6bbd31ca","679ee916f92f86eaf5e1c274","","null","<img    src='G_7.jpg' height='90'> <img    src='G_4.jpg' height='90'> <img id='swapped'  src='G_6.jpg' height='90'> <img id='swapped'    src='G_1.jpg' height='90'> <img     src='G_2.jpg' height='90'> <img src='G_3.jpg' height='90'> <img src='G_5.jpg' height='90'> <img src='G_8.jpg' height='90'>","null","Animation1","",""
"","","","","","html-keyboard-response","106","189833","0.0-78.0","29","1","2025-02-02 03:49:34","bc01a2b6f61d06f6604adb8657495020","108.12.255.112","Mozilla/5.0 (Windows NT 10.0; Win64; x64) AppleWebKit/537.36 (KHTML, like Gecko) Chrome/132.0.0.0 Safari/537.36 Edg/132.0.0.0","WebKit","Edge","132.0.0.0","Windows","10.0","https://app.prolific.com/","en-US,en;q=0.9","627f448165ed9095fd43cfd1","679edb085803f58d6bbd31ca","679ee916f92f86eaf5e1c274","","null","<img    src='G_7.jpg' height='90'> <img    src='G_4.jpg' height='90'> <img   src='G_6.jpg' height='90'> <img     src='G_1.jpg' height='90'> <img     src='G_2.jpg' height='90'> <img src='G_3.jpg' height='90'> <img src='G_5.jpg' height='90'> <img src='G_8.jpg' height='90'>","null","Animation1","",""
"","","","","","html-keyboard-response","107","190349","0.0-79.0","29","1","2025-02-02 03:49:34","bc01a2b6f61d06f6604adb8657495020","108.12.255.112","Mozilla/5.0 (Windows NT 10.0; Win64; x64) AppleWebKit/537.36 (KHTML, like Gecko) Chrome/132.0.0.0 Safari/537.36 Edg/132.0.0.0","WebKit","Edge","132.0.0.0","Windows","10.0","https://app.prolific.com/","en-US,en;q=0.9","627f448165ed9095fd43cfd1","679edb085803f58d6bbd31ca","679ee916f92f86eaf5e1c274","","null","<img    src='G_7.jpg' height='90'> <img id='selected'    src='G_4.jpg' height='90'> <img   src='G_6.jpg' height='90'> <img     src='G_1.jpg' height='90'> <img     src='G_2.jpg' height='90'> <img src='G_3.jpg' height='90'> <img src='G_5.jpg' height='90'> <img src='G_8.jpg' height='90'>","null","Animation1","",""
"","","","","","html-keyboard-response","108","190870","0.0-80.0","29","1","2025-02-02 03:49:34","bc01a2b6f61d06f6604adb8657495020","108.12.255.112","Mozilla/5.0 (Windows NT 10.0; Win64; x64) AppleWebKit/537.36 (KHTML, like Gecko) Chrome/132.0.0.0 Safari/537.36 Edg/132.0.0.0","WebKit","Edge","132.0.0.0","Windows","10.0","https://app.prolific.com/","en-US,en;q=0.9","627f448165ed9095fd43cfd1","679edb085803f58d6bbd31ca","679ee916f92f86eaf5e1c274","","null","<img    src='G_7.jpg' height='90'> <img id='selected'    src='G_4.jpg' height='90'> <img id='selected'   src='G_6.jpg' height='90'> <img     src='G_1.jpg' height='90'> <img     src='G_2.jpg' height='90'> <img src='G_3.jpg' height='90'> <img src='G_5.jpg' height='90'> <img src='G_8.jpg' height='90'>","null","Animation1","",""
"","","","","","html-keyboard-response","109","191390","0.0-81.0","29","1","2025-02-02 03:49:34","bc01a2b6f61d06f6604adb8657495020","108.12.255.112","Mozilla/5.0 (Windows NT 10.0; Win64; x64) AppleWebKit/537.36 (KHTML, like Gecko) Chrome/132.0.0.0 Safari/537.36 Edg/132.0.0.0","WebKit","Edge","132.0.0.0","Windows","10.0","https://app.prolific.com/","en-US,en;q=0.9","627f448165ed9095fd43cfd1","679edb085803f58d6bbd31ca","679ee916f92f86eaf5e1c274","","null","<img    src='G_7.jpg' height='90'> <img id='swapped'   src='G_6.jpg' height='90'> <img id='swapped'    src='G_4.jpg' height='90'> <img     src='G_1.jpg' height='90'> <img     src='G_2.jpg' height='90'> <img src='G_3.jpg' height='90'> <img src='G_5.jpg' height='90'> <img src='G_8.jpg' height='90'>","null","Animation1","",""
"","","","","","html-keyboard-response","110","191708","0.0-82.0","29","1","2025-02-02 03:49:34","bc01a2b6f61d06f6604adb8657495020","108.12.255.112","Mozilla/5.0 (Windows NT 10.0; Win64; x64) AppleWebKit/537.36 (KHTML, like Gecko) Chrome/132.0.0.0 Safari/537.36 Edg/132.0.0.0","WebKit","Edge","132.0.0.0","Windows","10.0","https://app.prolific.com/","en-US,en;q=0.9","627f448165ed9095fd43cfd1","679edb085803f58d6bbd31ca","679ee916f92f86eaf5e1c274","","null","<img    src='G_7.jpg' height='90'> <img    src='G_6.jpg' height='90'> <img     src='G_4.jpg' height='90'> <img     src='G_1.jpg' height='90'> <img     src='G_2.jpg' height='90'> <img src='G_3.jpg' height='90'> <img src='G_5.jpg' height='90'> <img src='G_8.jpg' height='90'>","null","Animation1","",""
"","","","","","html-keyboard-response","111","192224","0.0-83.0","29","1","2025-02-02 03:49:34","bc01a2b6f61d06f6604adb8657495020","108.12.255.112","Mozilla/5.0 (Windows NT 10.0; Win64; x64) AppleWebKit/537.36 (KHTML, like Gecko) Chrome/132.0.0.0 Safari/537.36 Edg/132.0.0.0","WebKit","Edge","132.0.0.0","Windows","10.0","https://app.prolific.com/","en-US,en;q=0.9","627f448165ed9095fd43cfd1","679edb085803f58d6bbd31ca","679ee916f92f86eaf5e1c274","","null","<img id='selected'    src='G_7.jpg' height='90'> <img    src='G_6.jpg' height='90'> <img     src='G_4.jpg' height='90'> <img     src='G_1.jpg' height='90'> <img     src='G_2.jpg' height='90'> <img src='G_3.jpg' height='90'> <img src='G_5.jpg' height='90'> <img src='G_8.jpg' height='90'>","null","Animation1","",""
"","","","","","html-keyboard-response","112","192738","0.0-84.0","29","1","2025-02-02 03:49:34","bc01a2b6f61d06f6604adb8657495020","108.12.255.112","Mozilla/5.0 (Windows NT 10.0; Win64; x64) AppleWebKit/537.36 (KHTML, like Gecko) Chrome/132.0.0.0 Safari/537.36 Edg/132.0.0.0","WebKit","Edge","132.0.0.0","Windows","10.0","https://app.prolific.com/","en-US,en;q=0.9","627f448165ed9095fd43cfd1","679edb085803f58d6bbd31ca","679ee916f92f86eaf5e1c274","","null","<img id='selected'    src='G_7.jpg' height='90'> <img id='selected'    src='G_6.jpg' height='90'> <img     src='G_4.jpg' height='90'> <img     src='G_1.jpg' height='90'> <img     src='G_2.jpg' height='90'> <img src='G_3.jpg' height='90'> <img src='G_5.jpg' height='90'> <img src='G_8.jpg' height='90'>","null","Animation1","",""
"","","","","","html-keyboard-response","113","193250","0.0-85.0","29","1","2025-02-02 03:49:34","bc01a2b6f61d06f6604adb8657495020","108.12.255.112","Mozilla/5.0 (Windows NT 10.0; Win64; x64) AppleWebKit/537.36 (KHTML, like Gecko) Chrome/132.0.0.0 Safari/537.36 Edg/132.0.0.0","WebKit","Edge","132.0.0.0","Windows","10.0","https://app.prolific.com/","en-US,en;q=0.9","627f448165ed9095fd43cfd1","679edb085803f58d6bbd31ca","679ee916f92f86eaf5e1c274","","null","<img id='selected'    src='G_7.jpg' height='90'> <img id='selected'    src='G_6.jpg' height='90'> <img     src='G_4.jpg' height='90'> <img     src='G_1.jpg' height='90'> <img     src='G_2.jpg' height='90'> <img src='G_3.jpg' height='90'> <img src='G_5.jpg' height='90'> <img src='G_8.jpg' height='90'>","null","Animation1","",""
"","","","","","html-keyboard-response","114","193563","0.0-86.0","29","1","2025-02-02 03:49:34","bc01a2b6f61d06f6604adb8657495020","108.12.255.112","Mozilla/5.0 (Windows NT 10.0; Win64; x64) AppleWebKit/537.36 (KHTML, like Gecko) Chrome/132.0.0.0 Safari/537.36 Edg/132.0.0.0","WebKit","Edge","132.0.0.0","Windows","10.0","https://app.prolific.com/","en-US,en;q=0.9","627f448165ed9095fd43cfd1","679edb085803f58d6bbd31ca","679ee916f92f86eaf5e1c274","","null","<img     src='G_7.jpg' height='90'> <img     src='G_6.jpg' height='90'> <img     src='G_4.jpg' height='90'> <img     src='G_1.jpg' height='90'> <img     src='G_2.jpg' height='90'> <img src='G_3.jpg' height='90'> <img src='G_5.jpg' height='90'> <img src='G_8.jpg' height='90'>","null","Animation1","",""
"","","","","","html-keyboard-response","115","194078","0.0-87.0","29","1","2025-02-02 03:49:34","bc01a2b6f61d06f6604adb8657495020","108.12.255.112","Mozilla/5.0 (Windows NT 10.0; Win64; x64) AppleWebKit/537.36 (KHTML, like Gecko) Chrome/132.0.0.0 Safari/537.36 Edg/132.0.0.0","WebKit","Edge","132.0.0.0","Windows","10.0","https://app.prolific.com/","en-US,en;q=0.9","627f448165ed9095fd43cfd1","679edb085803f58d6bbd31ca","679ee916f92f86eaf5e1c274","","null","<img     src='G_7.jpg' height='90'> <img     src='G_6.jpg' height='90'> <img     src='G_4.jpg' height='90'> <img     src='G_1.jpg' height='90'> <img id='selected'     src='G_2.jpg' height='90'> <img src='G_3.jpg' height='90'> <img src='G_5.jpg' height='90'> <img src='G_8.jpg' height='90'>","null","Animation1","",""
"","","","","","html-keyboard-response","116","194598","0.0-88.0","29","1","2025-02-02 03:49:34","bc01a2b6f61d06f6604adb8657495020","108.12.255.112","Mozilla/5.0 (Windows NT 10.0; Win64; x64) AppleWebKit/537.36 (KHTML, like Gecko) Chrome/132.0.0.0 Safari/537.36 Edg/132.0.0.0","WebKit","Edge","132.0.0.0","Windows","10.0","https://app.prolific.com/","en-US,en;q=0.9","627f448165ed9095fd43cfd1","679edb085803f58d6bbd31ca","679ee916f92f86eaf5e1c274","","null","<img     src='G_7.jpg' height='90'> <img     src='G_6.jpg' height='90'> <img     src='G_4.jpg' height='90'> <img     src='G_1.jpg' height='90'> <img id='selected'     src='G_2.jpg' height='90'> <img id='selected' src='G_3.jpg' height='90'> <img src='G_5.jpg' height='90'> <img src='G_8.jpg' height='90'>","null","Animation1","",""
"","","","","","html-keyboard-response","117","195120","0.0-89.0","29","1","2025-02-02 03:49:34","bc01a2b6f61d06f6604adb8657495020","108.12.255.112","Mozilla/5.0 (Windows NT 10.0; Win64; x64) AppleWebKit/537.36 (KHTML, like Gecko) Chrome/132.0.0.0 Safari/537.36 Edg/132.0.0.0","WebKit","Edge","132.0.0.0","Windows","10.0","https://app.prolific.com/","en-US,en;q=0.9","627f448165ed9095fd43cfd1","679edb085803f58d6bbd31ca","679ee916f92f86eaf5e1c274","","null","<img     src='G_7.jpg' height='90'> <img     src='G_6.jpg' height='90'> <img     src='G_4.jpg' height='90'> <img     src='G_1.jpg' height='90'> <img id='swapped' src='G_3.jpg' height='90'> <img id='swapped'     src='G_2.jpg' height='90'> <img src='G_5.jpg' height='90'> <img src='G_8.jpg' height='90'>","null","Animation1","",""
"","","","","","html-keyboard-response","118","195438","0.0-90.0","29","1","2025-02-02 03:49:34","bc01a2b6f61d06f6604adb8657495020","108.12.255.112","Mozilla/5.0 (Windows NT 10.0; Win64; x64) AppleWebKit/537.36 (KHTML, like Gecko) Chrome/132.0.0.0 Safari/537.36 Edg/132.0.0.0","WebKit","Edge","132.0.0.0","Windows","10.0","https://app.prolific.com/","en-US,en;q=0.9","627f448165ed9095fd43cfd1","679edb085803f58d6bbd31ca","679ee916f92f86eaf5e1c274","","null","<img     src='G_7.jpg' height='90'> <img     src='G_6.jpg' height='90'> <img     src='G_4.jpg' height='90'> <img     src='G_1.jpg' height='90'> <img  src='G_3.jpg' height='90'> <img      src='G_2.jpg' height='90'> <img src='G_5.jpg' height='90'> <img src='G_8.jpg' height='90'>","null","Animation1","",""
"","","","","","html-keyboard-response","119","195954","0.0-91.0","29","1","2025-02-02 03:49:34","bc01a2b6f61d06f6604adb8657495020","108.12.255.112","Mozilla/5.0 (Windows NT 10.0; Win64; x64) AppleWebKit/537.36 (KHTML, like Gecko) Chrome/132.0.0.0 Safari/537.36 Edg/132.0.0.0","WebKit","Edge","132.0.0.0","Windows","10.0","https://app.prolific.com/","en-US,en;q=0.9","627f448165ed9095fd43cfd1","679edb085803f58d6bbd31ca","679ee916f92f86eaf5e1c274","","null","<img     src='G_7.jpg' height='90'> <img     src='G_6.jpg' height='90'> <img     src='G_4.jpg' height='90'> <img id='selected'     src='G_1.jpg' height='90'> <img  src='G_3.jpg' height='90'> <img      src='G_2.jpg' height='90'> <img src='G_5.jpg' height='90'> <img src='G_8.jpg' height='90'>","null","Animation1","",""
"","","","","","html-keyboard-response","120","196474","0.0-92.0","29","1","2025-02-02 03:49:34","bc01a2b6f61d06f6604adb8657495020","108.12.255.112","Mozilla/5.0 (Windows NT 10.0; Win64; x64) AppleWebKit/537.36 (KHTML, like Gecko) Chrome/132.0.0.0 Safari/537.36 Edg/132.0.0.0","WebKit","Edge","132.0.0.0","Windows","10.0","https://app.prolific.com/","en-US,en;q=0.9","627f448165ed9095fd43cfd1","679edb085803f58d6bbd31ca","679ee916f92f86eaf5e1c274","","null","<img     src='G_7.jpg' height='90'> <img     src='G_6.jpg' height='90'> <img     src='G_4.jpg' height='90'> <img id='selected'     src='G_1.jpg' height='90'> <img id='selected'  src='G_3.jpg' height='90'> <img      src='G_2.jpg' height='90'> <img src='G_5.jpg' height='90'> <img src='G_8.jpg' height='90'>","null","Animation1","",""
"","","","","","html-keyboard-response","121","196979","0.0-93.0","29","1","2025-02-02 03:49:34","bc01a2b6f61d06f6604adb8657495020","108.12.255.112","Mozilla/5.0 (Windows NT 10.0; Win64; x64) AppleWebKit/537.36 (KHTML, like Gecko) Chrome/132.0.0.0 Safari/537.36 Edg/132.0.0.0","WebKit","Edge","132.0.0.0","Windows","10.0","https://app.prolific.com/","en-US,en;q=0.9","627f448165ed9095fd43cfd1","679edb085803f58d6bbd31ca","679ee916f92f86eaf5e1c274","","null","<img     src='G_7.jpg' height='90'> <img     src='G_6.jpg' height='90'> <img     src='G_4.jpg' height='90'> <img id='selected'     src='G_1.jpg' height='90'> <img id='selected'  src='G_3.jpg' height='90'> <img      src='G_2.jpg' height='90'> <img src='G_5.jpg' height='90'> <img src='G_8.jpg' height='90'>","null","Animation1","",""
"","","","","","html-keyboard-response","122","197292","0.0-94.0","29","1","2025-02-02 03:49:34","bc01a2b6f61d06f6604adb8657495020","108.12.255.112","Mozilla/5.0 (Windows NT 10.0; Win64; x64) AppleWebKit/537.36 (KHTML, like Gecko) Chrome/132.0.0.0 Safari/537.36 Edg/132.0.0.0","WebKit","Edge","132.0.0.0","Windows","10.0","https://app.prolific.com/","en-US,en;q=0.9","627f448165ed9095fd43cfd1","679edb085803f58d6bbd31ca","679ee916f92f86eaf5e1c274","","null","<img     src='G_7.jpg' height='90'> <img     src='G_6.jpg' height='90'> <img     src='G_4.jpg' height='90'> <img      src='G_1.jpg' height='90'> <img   src='G_3.jpg' height='90'> <img      src='G_2.jpg' height='90'> <img src='G_5.jpg' height='90'> <img src='G_8.jpg' height='90'>","null","Animation1","",""
"","","","","","html-keyboard-response","123","197817","0.0-95.0","29","1","2025-02-02 03:49:34","bc01a2b6f61d06f6604adb8657495020","108.12.255.112","Mozilla/5.0 (Windows NT 10.0; Win64; x64) AppleWebKit/537.36 (KHTML, like Gecko) Chrome/132.0.0.0 Safari/537.36 Edg/132.0.0.0","WebKit","Edge","132.0.0.0","Windows","10.0","https://app.prolific.com/","en-US,en;q=0.9","627f448165ed9095fd43cfd1","679edb085803f58d6bbd31ca","679ee916f92f86eaf5e1c274","","null","<img     src='G_7.jpg' height='90'> <img     src='G_6.jpg' height='90'> <img     src='G_4.jpg' height='90'> <img      src='G_1.jpg' height='90'> <img   src='G_3.jpg' height='90'> <img id='selected'      src='G_2.jpg' height='90'> <img src='G_5.jpg' height='90'> <img src='G_8.jpg' height='90'>","null","Animation1","",""
"","","","","","html-keyboard-response","124","198328","0.0-96.0","29","1","2025-02-02 03:49:34","bc01a2b6f61d06f6604adb8657495020","108.12.255.112","Mozilla/5.0 (Windows NT 10.0; Win64; x64) AppleWebKit/537.36 (KHTML, like Gecko) Chrome/132.0.0.0 Safari/537.36 Edg/132.0.0.0","WebKit","Edge","132.0.0.0","Windows","10.0","https://app.prolific.com/","en-US,en;q=0.9","627f448165ed9095fd43cfd1","679edb085803f58d6bbd31ca","679ee916f92f86eaf5e1c274","","null","<img     src='G_7.jpg' height='90'> <img     src='G_6.jpg' height='90'> <img     src='G_4.jpg' height='90'> <img      src='G_1.jpg' height='90'> <img   src='G_3.jpg' height='90'> <img id='selected'      src='G_2.jpg' height='90'> <img id='selected' src='G_5.jpg' height='90'> <img src='G_8.jpg' height='90'>","null","Animation1","",""
"","","","","","html-keyboard-response","125","198849","0.0-97.0","29","1","2025-02-02 03:49:34","bc01a2b6f61d06f6604adb8657495020","108.12.255.112","Mozilla/5.0 (Windows NT 10.0; Win64; x64) AppleWebKit/537.36 (KHTML, like Gecko) Chrome/132.0.0.0 Safari/537.36 Edg/132.0.0.0","WebKit","Edge","132.0.0.0","Windows","10.0","https://app.prolific.com/","en-US,en;q=0.9","627f448165ed9095fd43cfd1","679edb085803f58d6bbd31ca","679ee916f92f86eaf5e1c274","","null","<img     src='G_7.jpg' height='90'> <img     src='G_6.jpg' height='90'> <img     src='G_4.jpg' height='90'> <img      src='G_1.jpg' height='90'> <img   src='G_3.jpg' height='90'> <img id='selected'      src='G_2.jpg' height='90'> <img id='selected' src='G_5.jpg' height='90'> <img src='G_8.jpg' height='90'>","null","Animation1","",""
"","","","","","html-keyboard-response","126","199167","0.0-98.0","29","1","2025-02-02 03:49:34","bc01a2b6f61d06f6604adb8657495020","108.12.255.112","Mozilla/5.0 (Windows NT 10.0; Win64; x64) AppleWebKit/537.36 (KHTML, like Gecko) Chrome/132.0.0.0 Safari/537.36 Edg/132.0.0.0","WebKit","Edge","132.0.0.0","Windows","10.0","https://app.prolific.com/","en-US,en;q=0.9","627f448165ed9095fd43cfd1","679edb085803f58d6bbd31ca","679ee916f92f86eaf5e1c274","","null","<img     src='G_7.jpg' height='90'> <img     src='G_6.jpg' height='90'> <img     src='G_4.jpg' height='90'> <img      src='G_1.jpg' height='90'> <img   src='G_3.jpg' height='90'> <img       src='G_2.jpg' height='90'> <img  src='G_5.jpg' height='90'> <img src='G_8.jpg' height='90'>","null","Animation1","",""
"","","","","","html-keyboard-response","127","199676","0.0-99.0","29","1","2025-02-02 03:49:34","bc01a2b6f61d06f6604adb8657495020","108.12.255.112","Mozilla/5.0 (Windows NT 10.0; Win64; x64) AppleWebKit/537.36 (KHTML, like Gecko) Chrome/132.0.0.0 Safari/537.36 Edg/132.0.0.0","WebKit","Edge","132.0.0.0","Windows","10.0","https://app.prolific.com/","en-US,en;q=0.9","627f448165ed9095fd43cfd1","679edb085803f58d6bbd31ca","679ee916f92f86eaf5e1c274","","null","<img     src='G_7.jpg' height='90'> <img     src='G_6.jpg' height='90'> <img     src='G_4.jpg' height='90'> <img      src='G_1.jpg' height='90'> <img   src='G_3.jpg' height='90'> <img       src='G_2.jpg' height='90'> <img id='selected'  src='G_5.jpg' height='90'> <img src='G_8.jpg' height='90'>","null","Animation1","",""
"","","","","","html-keyboard-response","128","200197","0.0-100.0","29","1","2025-02-02 03:49:34","bc01a2b6f61d06f6604adb8657495020","108.12.255.112","Mozilla/5.0 (Windows NT 10.0; Win64; x64) AppleWebKit/537.36 (KHTML, like Gecko) Chrome/132.0.0.0 Safari/537.36 Edg/132.0.0.0","WebKit","Edge","132.0.0.0","Windows","10.0","https://app.prolific.com/","en-US,en;q=0.9","627f448165ed9095fd43cfd1","679edb085803f58d6bbd31ca","679ee916f92f86eaf5e1c274","","null","<img     src='G_7.jpg' height='90'> <img     src='G_6.jpg' height='90'> <img     src='G_4.jpg' height='90'> <img      src='G_1.jpg' height='90'> <img   src='G_3.jpg' height='90'> <img       src='G_2.jpg' height='90'> <img id='selected'  src='G_5.jpg' height='90'> <img id='selected' src='G_8.jpg' height='90'>","null","Animation1","",""
"","","","","","html-keyboard-response","129","200717","0.0-101.0","29","1","2025-02-02 03:49:34","bc01a2b6f61d06f6604adb8657495020","108.12.255.112","Mozilla/5.0 (Windows NT 10.0; Win64; x64) AppleWebKit/537.36 (KHTML, like Gecko) Chrome/132.0.0.0 Safari/537.36 Edg/132.0.0.0","WebKit","Edge","132.0.0.0","Windows","10.0","https://app.prolific.com/","en-US,en;q=0.9","627f448165ed9095fd43cfd1","679edb085803f58d6bbd31ca","679ee916f92f86eaf5e1c274","","null","<img     src='G_7.jpg' height='90'> <img     src='G_6.jpg' height='90'> <img     src='G_4.jpg' height='90'> <img      src='G_1.jpg' height='90'> <img   src='G_3.jpg' height='90'> <img       src='G_2.jpg' height='90'> <img id='swapped' src='G_8.jpg' height='90'> <img id='swapped'  src='G_5.jpg' height='90'>","null","Animation1","",""
"","","","","","html-keyboard-response","130","201037","0.0-102.0","29","1","2025-02-02 03:49:34","bc01a2b6f61d06f6604adb8657495020","108.12.255.112","Mozilla/5.0 (Windows NT 10.0; Win64; x64) AppleWebKit/537.36 (KHTML, like Gecko) Chrome/132.0.0.0 Safari/537.36 Edg/132.0.0.0","WebKit","Edge","132.0.0.0","Windows","10.0","https://app.prolific.com/","en-US,en;q=0.9","627f448165ed9095fd43cfd1","679edb085803f58d6bbd31ca","679ee916f92f86eaf5e1c274","","null","<img     src='G_7.jpg' height='90'> <img     src='G_6.jpg' height='90'> <img     src='G_4.jpg' height='90'> <img      src='G_1.jpg' height='90'> <img   src='G_3.jpg' height='90'> <img       src='G_2.jpg' height='90'> <img  src='G_8.jpg' height='90'> <img   src='G_5.jpg' height='90'>","null","Animation1","",""
"","","","","","html-keyboard-response","131","201551","0.0-103.0","29","1","2025-02-02 03:49:34","bc01a2b6f61d06f6604adb8657495020","108.12.255.112","Mozilla/5.0 (Windows NT 10.0; Win64; x64) AppleWebKit/537.36 (KHTML, like Gecko) Chrome/132.0.0.0 Safari/537.36 Edg/132.0.0.0","WebKit","Edge","132.0.0.0","Windows","10.0","https://app.prolific.com/","en-US,en;q=0.9","627f448165ed9095fd43cfd1","679edb085803f58d6bbd31ca","679ee916f92f86eaf5e1c274","","null","<img     src='G_7.jpg' height='90'> <img     src='G_6.jpg' height='90'> <img     src='G_4.jpg' height='90'> <img      src='G_1.jpg' height='90'> <img   src='G_3.jpg' height='90'> <img id='selected'       src='G_2.jpg' height='90'> <img  src='G_8.jpg' height='90'> <img   src='G_5.jpg' height='90'>","null","Animation1","",""
"","","","","","html-keyboard-response","132","202058","0.0-104.0","29","1","2025-02-02 03:49:34","bc01a2b6f61d06f6604adb8657495020","108.12.255.112","Mozilla/5.0 (Windows NT 10.0; Win64; x64) AppleWebKit/537.36 (KHTML, like Gecko) Chrome/132.0.0.0 Safari/537.36 Edg/132.0.0.0","WebKit","Edge","132.0.0.0","Windows","10.0","https://app.prolific.com/","en-US,en;q=0.9","627f448165ed9095fd43cfd1","679edb085803f58d6bbd31ca","679ee916f92f86eaf5e1c274","","null","<img     src='G_7.jpg' height='90'> <img     src='G_6.jpg' height='90'> <img     src='G_4.jpg' height='90'> <img      src='G_1.jpg' height='90'> <img   src='G_3.jpg' height='90'> <img id='selected'       src='G_2.jpg' height='90'> <img id='selected'  src='G_8.jpg' height='90'> <img   src='G_5.jpg' height='90'>","null","Animation1","",""
"","","","","","html-keyboard-response","133","202578","0.0-105.0","29","1","2025-02-02 03:49:34","bc01a2b6f61d06f6604adb8657495020","108.12.255.112","Mozilla/5.0 (Windows NT 10.0; Win64; x64) AppleWebKit/537.36 (KHTML, like Gecko) Chrome/132.0.0.0 Safari/537.36 Edg/132.0.0.0","WebKit","Edge","132.0.0.0","Windows","10.0","https://app.prolific.com/","en-US,en;q=0.9","627f448165ed9095fd43cfd1","679edb085803f58d6bbd31ca","679ee916f92f86eaf5e1c274","","null","<img     src='G_7.jpg' height='90'> <img     src='G_6.jpg' height='90'> <img     src='G_4.jpg' height='90'> <img      src='G_1.jpg' height='90'> <img   src='G_3.jpg' height='90'> <img id='selected'       src='G_2.jpg' height='90'> <img id='selected'  src='G_8.jpg' height='90'> <img   src='G_5.jpg' height='90'>","null","Animation1","",""
"","","","","","html-keyboard-response","134","202896","0.0-106.0","29","1","2025-02-02 03:49:34","bc01a2b6f61d06f6604adb8657495020","108.12.255.112","Mozilla/5.0 (Windows NT 10.0; Win64; x64) AppleWebKit/537.36 (KHTML, like Gecko) Chrome/132.0.0.0 Safari/537.36 Edg/132.0.0.0","WebKit","Edge","132.0.0.0","Windows","10.0","https://app.prolific.com/","en-US,en;q=0.9","627f448165ed9095fd43cfd1","679edb085803f58d6bbd31ca","679ee916f92f86eaf5e1c274","","null","<img     src='G_7.jpg' height='90'> <img     src='G_6.jpg' height='90'> <img     src='G_4.jpg' height='90'> <img      src='G_1.jpg' height='90'> <img   src='G_3.jpg' height='90'> <img        src='G_2.jpg' height='90'> <img   src='G_8.jpg' height='90'> <img   src='G_5.jpg' height='90'>","null","Animation1","",""
"","","","","","html-keyboard-response","135","205488","0.0-107.0","29","1","2025-02-02 03:49:34","bc01a2b6f61d06f6604adb8657495020","108.12.255.112","Mozilla/5.0 (Windows NT 10.0; Win64; x64) AppleWebKit/537.36 (KHTML, like Gecko) Chrome/132.0.0.0 Safari/537.36 Edg/132.0.0.0","WebKit","Edge","132.0.0.0","Windows","10.0","https://app.prolific.com/","en-US,en;q=0.9","627f448165ed9095fd43cfd1","679edb085803f58d6bbd31ca","679ee916f92f86eaf5e1c274","","2587","[""Did you notice any patterns? <br><br>Press Enter to watch that example again and follow the steps of Omgne Sort.""]","enter","","",""
"","","","","","html-button-response","136","205907","0.0-108.0","29","1","2025-02-02 03:49:34","bc01a2b6f61d06f6604adb8657495020","108.12.255.112","Mozilla/5.0 (Windows NT 10.0; Win64; x64) AppleWebKit/537.36 (KHTML, like Gecko) Chrome/132.0.0.0 Safari/537.36 Edg/132.0.0.0","WebKit","Edge","132.0.0.0","Windows","10.0","https://app.prolific.com/","en-US,en;q=0.9","627f448165ed9095fd43cfd1","679edb085803f58d6bbd31ca","679ee916f92f86eaf5e1c274","","null","<img id='selected' src='G_1.jpg' height='90'> <img src='G_2.jpg' height='90'> <img src='G_4.jpg' height='90'> <img src='G_7.jpg' height='90'> <img src='G_6.jpg' height='90'> <img src='G_3.jpg' height='90'> <img src='G_5.jpg' height='90'> <img src='G_8.jpg' height='90'>","null","Learning example 1","",""
"","","","","","html-button-response","137","206221","0.0-109.0","29","1","2025-02-02 03:49:34","bc01a2b6f61d06f6604adb8657495020","108.12.255.112","Mozilla/5.0 (Windows NT 10.0; Win64; x64) AppleWebKit/537.36 (KHTML, like Gecko) Chrome/132.0.0.0 Safari/537.36 Edg/132.0.0.0","WebKit","Edge","132.0.0.0","Windows","10.0","https://app.prolific.com/","en-US,en;q=0.9","627f448165ed9095fd43cfd1","679edb085803f58d6bbd31ca","679ee916f92f86eaf5e1c274","","null","<img id='selected' src='G_1.jpg' height='90'> <img id='selected' src='G_2.jpg' height='90'> <img src='G_4.jpg' height='90'> <img src='G_7.jpg' height='90'> <img src='G_6.jpg' height='90'> <img src='G_3.jpg' height='90'> <img src='G_5.jpg' height='90'> <img src='G_8.jpg' height='90'>","null","Learning example 1","",""
"","","","","","html-button-response","138","206541","0.0-110.0","29","1","2025-02-02 03:49:34","bc01a2b6f61d06f6604adb8657495020","108.12.255.112","Mozilla/5.0 (Windows NT 10.0; Win64; x64) AppleWebKit/537.36 (KHTML, like Gecko) Chrome/132.0.0.0 Safari/537.36 Edg/132.0.0.0","WebKit","Edge","132.0.0.0","Windows","10.0","https://app.prolific.com/","en-US,en;q=0.9","627f448165ed9095fd43cfd1","679edb085803f58d6bbd31ca","679ee916f92f86eaf5e1c274","","null","<img id='selected' src='G_1.jpg' height='90'> <img id='selected' src='G_2.jpg' height='90'> <img src='G_4.jpg' height='90'> <img src='G_7.jpg' height='90'> <img src='G_6.jpg' height='90'> <img src='G_3.jpg' height='90'> <img src='G_5.jpg' height='90'> <img src='G_8.jpg' height='90'>","null","Learning example 1","",""
"","","","","","html-button-response","139","207472","0.0-111.0-0.0-0.0","29","1","2025-02-02 03:49:34","bc01a2b6f61d06f6604adb8657495020","108.12.255.112","Mozilla/5.0 (Windows NT 10.0; Win64; x64) AppleWebKit/537.36 (KHTML, like Gecko) Chrome/132.0.0.0 Safari/537.36 Edg/132.0.0.0","WebKit","Edge","132.0.0.0","Windows","10.0","https://app.prolific.com/","en-US,en;q=0.9","627f448165ed9095fd43cfd1","679edb085803f58d6bbd31ca","679ee916f92f86eaf5e1c274","","923","<img id='selected' src='G_1.jpg' height='90'> <img id='selected' src='G_2.jpg' height='90'> <img src='G_4.jpg' height='90'> <img src='G_7.jpg' height='90'> <img src='G_6.jpg' height='90'> <img src='G_3.jpg' height='90'> <img src='G_5.jpg' height='90'> <img src='G_8.jpg' height='90'>","0","Learning example 1","",""
"","","","","","html-button-response","140","207965","0.0-111.1-0.1-0.1","29","1","2025-02-02 03:49:34","bc01a2b6f61d06f6604adb8657495020","108.12.255.112","Mozilla/5.0 (Windows NT 10.0; Win64; x64) AppleWebKit/537.36 (KHTML, like Gecko) Chrome/132.0.0.0 Safari/537.36 Edg/132.0.0.0","WebKit","Edge","132.0.0.0","Windows","10.0","https://app.prolific.com/","en-US,en;q=0.9","627f448165ed9095fd43cfd1","679edb085803f58d6bbd31ca","679ee916f92f86eaf5e1c274","","483","<img id='selected' src='G_1.jpg' height='90'> <img id='selected' src='G_2.jpg' height='90'> <img src='G_4.jpg' height='90'> <img src='G_7.jpg' height='90'> <img src='G_6.jpg' height='90'> <img src='G_3.jpg' height='90'> <img src='G_5.jpg' height='90'> <img src='G_8.jpg' height='90'>","1","Learning example 1","",""
"","","","","","html-button-response","141","208192","0.0-112.0","29","1","2025-02-02 03:49:34","bc01a2b6f61d06f6604adb8657495020","108.12.255.112","Mozilla/5.0 (Windows NT 10.0; Win64; x64) AppleWebKit/537.36 (KHTML, like Gecko) Chrome/132.0.0.0 Safari/537.36 Edg/132.0.0.0","WebKit","Edge","132.0.0.0","Windows","10.0","https://app.prolific.com/","en-US,en;q=0.9","627f448165ed9095fd43cfd1","679edb085803f58d6bbd31ca","679ee916f92f86eaf5e1c274","","null","<img  src='G_1.jpg' height='90'> <img  src='G_2.jpg' height='90'> <img src='G_4.jpg' height='90'> <img src='G_7.jpg' height='90'> <img src='G_6.jpg' height='90'> <img src='G_3.jpg' height='90'> <img src='G_5.jpg' height='90'> <img src='G_8.jpg' height='90'>","null","Learning example 1","",""
"","","","","","html-button-response","142","208608","0.0-113.0","29","1","2025-02-02 03:49:34","bc01a2b6f61d06f6604adb8657495020","108.12.255.112","Mozilla/5.0 (Windows NT 10.0; Win64; x64) AppleWebKit/537.36 (KHTML, like Gecko) Chrome/132.0.0.0 Safari/537.36 Edg/132.0.0.0","WebKit","Edge","132.0.0.0","Windows","10.0","https://app.prolific.com/","en-US,en;q=0.9","627f448165ed9095fd43cfd1","679edb085803f58d6bbd31ca","679ee916f92f86eaf5e1c274","","null","<img  src='G_1.jpg' height='90'> <img id='selected'  src='G_2.jpg' height='90'> <img src='G_4.jpg' height='90'> <img src='G_7.jpg' height='90'> <img src='G_6.jpg' height='90'> <img src='G_3.jpg' height='90'> <img src='G_5.jpg' height='90'> <img src='G_8.jpg' height='90'>","null","Learning example 1","",""
"","","","","","html-button-response","143","208918","0.0-114.0","29","1","2025-02-02 03:49:34","bc01a2b6f61d06f6604adb8657495020","108.12.255.112","Mozilla/5.0 (Windows NT 10.0; Win64; x64) AppleWebKit/537.36 (KHTML, like Gecko) Chrome/132.0.0.0 Safari/537.36 Edg/132.0.0.0","WebKit","Edge","132.0.0.0","Windows","10.0","https://app.prolific.com/","en-US,en;q=0.9","627f448165ed9095fd43cfd1","679edb085803f58d6bbd31ca","679ee916f92f86eaf5e1c274","","null","<img  src='G_1.jpg' height='90'> <img id='selected'  src='G_2.jpg' height='90'> <img id='selected' src='G_4.jpg' height='90'> <img src='G_7.jpg' height='90'> <img src='G_6.jpg' height='90'> <img src='G_3.jpg' height='90'> <img src='G_5.jpg' height='90'> <img src='G_8.jpg' height='90'>","null","Learning example 1","",""
"","","","","","html-button-response","144","209233","0.0-115.0","29","1","2025-02-02 03:49:34","bc01a2b6f61d06f6604adb8657495020","108.12.255.112","Mozilla/5.0 (Windows NT 10.0; Win64; x64) AppleWebKit/537.36 (KHTML, like Gecko) Chrome/132.0.0.0 Safari/537.36 Edg/132.0.0.0","WebKit","Edge","132.0.0.0","Windows","10.0","https://app.prolific.com/","en-US,en;q=0.9","627f448165ed9095fd43cfd1","679edb085803f58d6bbd31ca","679ee916f92f86eaf5e1c274","","null","<img  src='G_1.jpg' height='90'> <img id='swapped' src='G_4.jpg' height='90'> <img id='swapped'  src='G_2.jpg' height='90'> <img src='G_7.jpg' height='90'> <img src='G_6.jpg' height='90'> <img src='G_3.jpg' height='90'> <img src='G_5.jpg' height='90'> <img src='G_8.jpg' height='90'>","null","Learning example 1","",""
