"success","timeout","failed_images","failed_audio","failed_video","trial_type","trial_index","time_elapsed","internal_node_id","run_id","condition","recorded_at","source_code_version","ip","user_agent","device","browser","browser_version","platform","platform_version","referer","accept_language","PROLIFIC_PID","STUDY_ID","SESSION_ID","view_history","rt","stimulus","response","phase","question_order","presented_choices"
"true","false","[]","[]","[]","preload","0","319","0.0-0.0","30","1","2025-02-02 03:50:56","bc01a2b6f61d06f6604adb8657495020","76.171.35.46","Mozilla/5.0 (Macintosh; Intel Mac OS X 10_15_7) AppleWebKit/537.36 (KHTML, like Gecko) Chrome/128.0.0.0 Safari/537.36","Macintosh","Chrome","128.0.0.0","OS X","10_15_7","https://app.prolific.com/","en-US,en;q=0.9","674d396ea5a143c1fe1ff5bc","679edb085803f58d6bbd31ca","679eeb8f5a3632dbd83c5055","","","","","","",""
"","","","","","instructions","1","77569","0.0-1.0","30","1","2025-02-02 03:50:56","bc01a2b6f61d06f6604adb8657495020","76.171.35.46","Mozilla/5.0 (Macintosh; Intel Mac OS X 10_15_7) AppleWebKit/537.36 (KHTML, like Gecko) Chrome/128.0.0.0 Safari/537.36","Macintosh","Chrome","128.0.0.0","OS X","10_15_7","https://app.prolific.com/","en-US,en;q=0.9","674d396ea5a143c1fe1ff5bc","679edb085803f58d6bbd31ca","679eeb8f5a3632dbd83c5055","[{""page_index"":0,""viewing_time"":77250}]","77251","","","","",""
"","","","","","html-keyboard-response","2","78071","0.0-2.0","30","1","2025-02-02 03:50:56","bc01a2b6f61d06f6604adb8657495020","76.171.35.46","Mozilla/5.0 (Macintosh; Intel Mac OS X 10_15_7) AppleWebKit/537.36 (KHTML, like Gecko) Chrome/128.0.0.0 Safari/537.36","Macintosh","Chrome","128.0.0.0","OS X","10_15_7","https://app.prolific.com/","en-US,en;q=0.9","674d396ea5a143c1fe1ff5bc","679edb085803f58d6bbd31ca","679eeb8f5a3632dbd83c5055","","null","<p> + <p/>","null","","",""
"","","","","","instructions","3","167657","0.0-3.0","30","1","2025-02-02 03:50:56","bc01a2b6f61d06f6604adb8657495020","76.171.35.46","Mozilla/5.0 (Macintosh; Intel Mac OS X 10_15_7) AppleWebKit/537.36 (KHTML, like Gecko) Chrome/128.0.0.0 Safari/537.36","Macintosh","Chrome","128.0.0.0","OS X","10_15_7","https://app.prolific.com/","en-US,en;q=0.9","674d396ea5a143c1fe1ff5bc","679edb085803f58d6bbd31ca","679eeb8f5a3632dbd83c5055","[{""page_index"":0,""viewing_time"":4163},{""page_index"":1,""viewing_time"":29771},{""page_index"":2,""viewing_time"":26561},{""page_index"":3,""viewing_time"":8373},{""page_index"":4,""viewing_time"":20722}]","89589","","","","",""
"","","","","","html-button-response","4","197855","0.0-4.0-0.0-0.0","30","1","2025-02-02 03:50:56","bc01a2b6f61d06f6604adb8657495020","76.171.35.46","Mozilla/5.0 (Macintosh; Intel Mac OS X 10_15_7) AppleWebKit/537.36 (KHTML, like Gecko) Chrome/128.0.0.0 Safari/537.36","Macintosh","Chrome","128.0.0.0","OS X","10_15_7","https://app.prolific.com/","en-US,en;q=0.9","674d396ea5a143c1fe1ff5bc","679edb085803f58d6bbd31ca","679eeb8f5a3632dbd83c5055","","30197","","0","Intro Trial","",""
"","","","","","html-button-response","5","200454","0.0-4.1-0.1-0.1","30","1","2025-02-02 03:50:56","bc01a2b6f61d06f6604adb8657495020","76.171.35.46","Mozilla/5.0 (Macintosh; Intel Mac OS X 10_15_7) AppleWebKit/537.36 (KHTML, like Gecko) Chrome/128.0.0.0 Safari/537.36","Macintosh","Chrome","128.0.0.0","OS X","10_15_7","https://app.prolific.com/","en-US,en;q=0.9","674d396ea5a143c1fe1ff5bc","679edb085803f58d6bbd31ca","679eeb8f5a3632dbd83c5055","","2597","","1","Intro Trial","",""
"","","","","","html-button-response","6","214562","0.0-4.2-0.2-0.2","30","1","2025-02-02 03:50:56","bc01a2b6f61d06f6604adb8657495020","76.171.35.46","Mozilla/5.0 (Macintosh; Intel Mac OS X 10_15_7) AppleWebKit/537.36 (KHTML, like Gecko) Chrome/128.0.0.0 Safari/537.36","Macintosh","Chrome","128.0.0.0","OS X","10_15_7","https://app.prolific.com/","en-US,en;q=0.9","674d396ea5a143c1fe1ff5bc","679edb085803f58d6bbd31ca","679eeb8f5a3632dbd83c5055","","14106","","2","Intro Trial","",""
"","","","","","html-button-response","7","216069","0.0-4.3-0.3-0.3","30","1","2025-02-02 03:50:56","bc01a2b6f61d06f6604adb8657495020","76.171.35.46","Mozilla/5.0 (Macintosh; Intel Mac OS X 10_15_7) AppleWebKit/537.36 (KHTML, like Gecko) Chrome/128.0.0.0 Safari/537.36","Macintosh","Chrome","128.0.0.0","OS X","10_15_7","https://app.prolific.com/","en-US,en;q=0.9","674d396ea5a143c1fe1ff5bc","679edb085803f58d6bbd31ca","679eeb8f5a3632dbd83c5055","","1506","","3","Intro Trial","",""
"","","","","","html-button-response","8","217610","0.0-4.4-0.4-0.4","30","1","2025-02-02 03:50:56","bc01a2b6f61d06f6604adb8657495020","76.171.35.46","Mozilla/5.0 (Macintosh; Intel Mac OS X 10_15_7) AppleWebKit/537.36 (KHTML, like Gecko) Chrome/128.0.0.0 Safari/537.36","Macintosh","Chrome","128.0.0.0","OS X","10_15_7","https://app.prolific.com/","en-US,en;q=0.9","674d396ea5a143c1fe1ff5bc","679edb085803f58d6bbd31ca","679eeb8f5a3632dbd83c5055","","1539","","4","Intro Trial","",""
"","","","","","html-button-response","9","218477","0.0-4.5-0.5-0.5","30","1","2025-02-02 03:50:56","bc01a2b6f61d06f6604adb8657495020","76.171.35.46","Mozilla/5.0 (Macintosh; Intel Mac OS X 10_15_7) AppleWebKit/537.36 (KHTML, like Gecko) Chrome/128.0.0.0 Safari/537.36","Macintosh","Chrome","128.0.0.0","OS X","10_15_7","https://app.prolific.com/","en-US,en;q=0.9","674d396ea5a143c1fe1ff5bc","679edb085803f58d6bbd31ca","679eeb8f5a3632dbd83c5055","","865","","3","Intro Trial","",""
"","","","","","html-button-response","10","219489","0.0-4.6-0.6-0.6","30","1","2025-02-02 03:50:56","bc01a2b6f61d06f6604adb8657495020","76.171.35.46","Mozilla/5.0 (Macintosh; Intel Mac OS X 10_15_7) AppleWebKit/537.36 (KHTML, like Gecko) Chrome/128.0.0.0 Safari/537.36","Macintosh","Chrome","128.0.0.0","OS X","10_15_7","https://app.prolific.com/","en-US,en;q=0.9","674d396ea5a143c1fe1ff5bc","679edb085803f58d6bbd31ca","679eeb8f5a3632dbd83c5055","","1011","","2","Intro Trial","",""
"","","","","","html-button-response","11","220119","0.0-4.7-0.7-0.7","30","1","2025-02-02 03:50:56","bc01a2b6f61d06f6604adb8657495020","76.171.35.46","Mozilla/5.0 (Macintosh; Intel Mac OS X 10_15_7) AppleWebKit/537.36 (KHTML, like Gecko) Chrome/128.0.0.0 Safari/537.36","Macintosh","Chrome","128.0.0.0","OS X","10_15_7","https://app.prolific.com/","en-US,en;q=0.9","674d396ea5a143c1fe1ff5bc","679edb085803f58d6bbd31ca","679eeb8f5a3632dbd83c5055","","628","","3","Intro Trial","",""
"","","","","","html-button-response","12","225440","0.0-4.8-0.8-0.8","30","1","2025-02-02 03:50:56","bc01a2b6f61d06f6604adb8657495020","76.171.35.46","Mozilla/5.0 (Macintosh; Intel Mac OS X 10_15_7) AppleWebKit/537.36 (KHTML, like Gecko) Chrome/128.0.0.0 Safari/537.36","Macintosh","Chrome","128.0.0.0","OS X","10_15_7","https://app.prolific.com/","en-US,en;q=0.9","674d396ea5a143c1fe1ff5bc","679edb085803f58d6bbd31ca","679eeb8f5a3632dbd83c5055","","5320","","4","Intro Trial","",""
"","","","","","html-button-response","13","226070","0.0-4.9-0.9-0.9","30","1","2025-02-02 03:50:56","bc01a2b6f61d06f6604adb8657495020","76.171.35.46","Mozilla/5.0 (Macintosh; Intel Mac OS X 10_15_7) AppleWebKit/537.36 (KHTML, like Gecko) Chrome/128.0.0.0 Safari/537.36","Macintosh","Chrome","128.0.0.0","OS X","10_15_7","https://app.prolific.com/","en-US,en;q=0.9","674d396ea5a143c1fe1ff5bc","679edb085803f58d6bbd31ca","679eeb8f5a3632dbd83c5055","","628","","3","Intro Trial","",""
"","","","","","html-button-response","14","227195","0.0-4.10-0.10-0.10","30","1","2025-02-02 03:50:56","bc01a2b6f61d06f6604adb8657495020","76.171.35.46","Mozilla/5.0 (Macintosh; Intel Mac OS X 10_15_7) AppleWebKit/537.36 (KHTML, like Gecko) Chrome/128.0.0.0 Safari/537.36","Macintosh","Chrome","128.0.0.0","OS X","10_15_7","https://app.prolific.com/","en-US,en;q=0.9","674d396ea5a143c1fe1ff5bc","679edb085803f58d6bbd31ca","679eeb8f5a3632dbd83c5055","","1123","","3","Intro Trial","",""
"","","","","","html-button-response","15","227837","0.0-4.11-0.11-0.11","30","1","2025-02-02 03:50:56","bc01a2b6f61d06f6604adb8657495020","76.171.35.46","Mozilla/5.0 (Macintosh; Intel Mac OS X 10_15_7) AppleWebKit/537.36 (KHTML, like Gecko) Chrome/128.0.0.0 Safari/537.36","Macintosh","Chrome","128.0.0.0","OS X","10_15_7","https://app.prolific.com/","en-US,en;q=0.9","674d396ea5a143c1fe1ff5bc","679edb085803f58d6bbd31ca","679eeb8f5a3632dbd83c5055","","640","","4","Intro Trial","",""
"","","","","","html-button-response","16","229029","0.0-4.12-0.12-0.12","30","1","2025-02-02 03:50:56","bc01a2b6f61d06f6604adb8657495020","76.171.35.46","Mozilla/5.0 (Macintosh; Intel Mac OS X 10_15_7) AppleWebKit/537.36 (KHTML, like Gecko) Chrome/128.0.0.0 Safari/537.36","Macintosh","Chrome","128.0.0.0","OS X","10_15_7","https://app.prolific.com/","en-US,en;q=0.9","674d396ea5a143c1fe1ff5bc","679edb085803f58d6bbd31ca","679eeb8f5a3632dbd83c5055","","1191","","3","Intro Trial","",""
"","","","","","html-button-response","17","229738","0.0-4.13-0.13-0.13","30","1","2025-02-02 03:50:56","bc01a2b6f61d06f6604adb8657495020","76.171.35.46","Mozilla/5.0 (Macintosh; Intel Mac OS X 10_15_7) AppleWebKit/537.36 (KHTML, like Gecko) Chrome/128.0.0.0 Safari/537.36","Macintosh","Chrome","128.0.0.0","OS X","10_15_7","https://app.prolific.com/","en-US,en;q=0.9","674d396ea5a143c1fe1ff5bc","679edb085803f58d6bbd31ca","679eeb8f5a3632dbd83c5055","","707","","2","Intro Trial","",""
"","","","","","html-button-response","18","230514","0.0-4.14-0.14-0.14","30","1","2025-02-02 03:50:56","bc01a2b6f61d06f6604adb8657495020","76.171.35.46","Mozilla/5.0 (Macintosh; Intel Mac OS X 10_15_7) AppleWebKit/537.36 (KHTML, like Gecko) Chrome/128.0.0.0 Safari/537.36","Macintosh","Chrome","128.0.0.0","OS X","10_15_7","https://app.prolific.com/","en-US,en;q=0.9","674d396ea5a143c1fe1ff5bc","679edb085803f58d6bbd31ca","679eeb8f5a3632dbd83c5055","","775","","1","Intro Trial","",""
"","","","","","html-button-response","19","231178","0.0-4.15-0.15-0.15","30","1","2025-02-02 03:50:56","bc01a2b6f61d06f6604adb8657495020","76.171.35.46","Mozilla/5.0 (Macintosh; Intel Mac OS X 10_15_7) AppleWebKit/537.36 (KHTML, like Gecko) Chrome/128.0.0.0 Safari/537.36","Macintosh","Chrome","128.0.0.0","OS X","10_15_7","https://app.prolific.com/","en-US,en;q=0.9","674d396ea5a143c1fe1ff5bc","679edb085803f58d6bbd31ca","679eeb8f5a3632dbd83c5055","","662","","0","Intro Trial","",""
"","","","","","html-button-response","20","232404","0.0-4.16-0.16-0.16","30","1","2025-02-02 03:50:56","bc01a2b6f61d06f6604adb8657495020","76.171.35.46","Mozilla/5.0 (Macintosh; Intel Mac OS X 10_15_7) AppleWebKit/537.36 (KHTML, like Gecko) Chrome/128.0.0.0 Safari/537.36","Macintosh","Chrome","128.0.0.0","OS X","10_15_7","https://app.prolific.com/","en-US,en;q=0.9","674d396ea5a143c1fe1ff5bc","679edb085803f58d6bbd31ca","679eeb8f5a3632dbd83c5055","","1225","","5","Intro Trial","",""
"","","","","","html-keyboard-response","21","254364","0.0-5.0","30","1","2025-02-02 03:50:56","bc01a2b6f61d06f6604adb8657495020","76.171.35.46","Mozilla/5.0 (Macintosh; Intel Mac OS X 10_15_7) AppleWebKit/537.36 (KHTML, like Gecko) Chrome/128.0.0.0 Safari/537.36","Macintosh","Chrome","128.0.0.0","OS X","10_15_7","https://app.prolific.com/","en-US,en;q=0.9","674d396ea5a143c1fe1ff5bc","679edb085803f58d6bbd31ca","679eeb8f5a3632dbd83c5055","","21958","[""You sorted incorrectly by using the balance 8 times. <br><br> <img src='G_2.jpg' height='90'><img src='G_1.jpg' height='90'><img src='G_5.jpg' height='90'><img src='G_3.jpg' height='90'><img src='G_4.jpg' height='90'><br><br> Your final order is 2,4,1,3,5<br><br><br>Omgne Sort in this game will allow you to sort correctly by using the balance 8 times. Press Enter to learn it!""]","enter","","",""
"","","","","","html-keyboard-response","22","262169","0.0-6.0","30","1","2025-02-02 03:50:56","bc01a2b6f61d06f6604adb8657495020","76.171.35.46","Mozilla/5.0 (Macintosh; Intel Mac OS X 10_15_7) AppleWebKit/537.36 (KHTML, like Gecko) Chrome/128.0.0.0 Safari/537.36","Macintosh","Chrome","128.0.0.0","OS X","10_15_7","https://app.prolific.com/","en-US,en;q=0.9","674d396ea5a143c1fe1ff5bc","679edb085803f58d6bbd31ca","679eeb8f5a3632dbd83c5055","","7804","<p>Welcome to the learning phase! <br><br> You will learn by six examples. The following learning trials will not be used to calculate your performance. <br><br> Press Enter to continue.<p/>","enter","","",""
"","","","","","html-keyboard-response","23","271002","0.0-7.0","30","1","2025-02-02 03:50:56","bc01a2b6f61d06f6604adb8657495020","76.171.35.46","Mozilla/5.0 (Macintosh; Intel Mac OS X 10_15_7) AppleWebKit/537.36 (KHTML, like Gecko) Chrome/128.0.0.0 Safari/537.36","Macintosh","Chrome","128.0.0.0","OS X","10_15_7","https://app.prolific.com/","en-US,en;q=0.9","674d396ea5a143c1fe1ff5bc","679edb085803f58d6bbd31ca","679eeb8f5a3632dbd83c5055","","8833","[""Example 1<br><br>You will watch Omnge Sort in action. Try to identify any patterns in the comparisons made by this method. <br><br>Press Enter to continue.""]","enter","","",""
"","","","","","html-keyboard-response","24","271504","0.0-8.0","30","1","2025-02-02 03:50:56","bc01a2b6f61d06f6604adb8657495020","76.171.35.46","Mozilla/5.0 (Macintosh; Intel Mac OS X 10_15_7) AppleWebKit/537.36 (KHTML, like Gecko) Chrome/128.0.0.0 Safari/537.36","Macintosh","Chrome","128.0.0.0","OS X","10_15_7","https://app.prolific.com/","en-US,en;q=0.9","674d396ea5a143c1fe1ff5bc","679edb085803f58d6bbd31ca","679eeb8f5a3632dbd83c5055","","null","<img id='selected' src='G_3.jpg' height='90'> <img src='G_1.jpg' height='90'> <img src='G_5.jpg' height='90'> <img src='G_7.jpg' height='90'> <img src='G_9.jpg' height='90'>","null","Animation0","",""
"","","","","","html-keyboard-response","25","272007","0.0-9.0","30","1","2025-02-02 03:50:56","bc01a2b6f61d06f6604adb8657495020","76.171.35.46","Mozilla/5.0 (Macintosh; Intel Mac OS X 10_15_7) AppleWebKit/537.36 (KHTML, like Gecko) Chrome/128.0.0.0 Safari/537.36","Macintosh","Chrome","128.0.0.0","OS X","10_15_7","https://app.prolific.com/","en-US,en;q=0.9","674d396ea5a143c1fe1ff5bc","679edb085803f58d6bbd31ca","679eeb8f5a3632dbd83c5055","","null","<img id='selected' src='G_3.jpg' height='90'> <img id='selected' src='G_1.jpg' height='90'> <img src='G_5.jpg' height='90'> <img src='G_7.jpg' height='90'> <img src='G_9.jpg' height='90'>","null","Animation0","",""
"","","","","","html-keyboard-response","26","272510","0.0-10.0","30","1","2025-02-02 03:50:56","bc01a2b6f61d06f6604adb8657495020","76.171.35.46","Mozilla/5.0 (Macintosh; Intel Mac OS X 10_15_7) AppleWebKit/537.36 (KHTML, like Gecko) Chrome/128.0.0.0 Safari/537.36","Macintosh","Chrome","128.0.0.0","OS X","10_15_7","https://app.prolific.com/","en-US,en;q=0.9","674d396ea5a143c1fe1ff5bc","679edb085803f58d6bbd31ca","679eeb8f5a3632dbd83c5055","","null","<img id='swapped' src='G_1.jpg' height='90'> <img id='swapped' src='G_3.jpg' height='90'> <img src='G_5.jpg' height='90'> <img src='G_7.jpg' height='90'> <img src='G_9.jpg' height='90'>","null","Animation0","",""
"","","","","","html-keyboard-response","27","272813","0.0-11.0","30","1","2025-02-02 03:50:56","bc01a2b6f61d06f6604adb8657495020","76.171.35.46","Mozilla/5.0 (Macintosh; Intel Mac OS X 10_15_7) AppleWebKit/537.36 (KHTML, like Gecko) Chrome/128.0.0.0 Safari/537.36","Macintosh","Chrome","128.0.0.0","OS X","10_15_7","https://app.prolific.com/","en-US,en;q=0.9","674d396ea5a143c1fe1ff5bc","679edb085803f58d6bbd31ca","679eeb8f5a3632dbd83c5055","","null","<img  src='G_1.jpg' height='90'> <img  src='G_3.jpg' height='90'> <img src='G_5.jpg' height='90'> <img src='G_7.jpg' height='90'> <img src='G_9.jpg' height='90'>","null","Animation0","",""
"","","","","","html-keyboard-response","28","273316","0.0-12.0","30","1","2025-02-02 03:50:56","bc01a2b6f61d06f6604adb8657495020","76.171.35.46","Mozilla/5.0 (Macintosh; Intel Mac OS X 10_15_7) AppleWebKit/537.36 (KHTML, like Gecko) Chrome/128.0.0.0 Safari/537.36","Macintosh","Chrome","128.0.0.0","OS X","10_15_7","https://app.prolific.com/","en-US,en;q=0.9","674d396ea5a143c1fe1ff5bc","679edb085803f58d6bbd31ca","679eeb8f5a3632dbd83c5055","","null","<img  src='G_1.jpg' height='90'> <img id='selected'  src='G_3.jpg' height='90'> <img src='G_5.jpg' height='90'> <img src='G_7.jpg' height='90'> <img src='G_9.jpg' height='90'>","null","Animation0","",""
"","","","","","html-keyboard-response","29","273819","0.0-13.0","30","1","2025-02-02 03:50:56","bc01a2b6f61d06f6604adb8657495020","76.171.35.46","Mozilla/5.0 (Macintosh; Intel Mac OS X 10_15_7) AppleWebKit/537.36 (KHTML, like Gecko) Chrome/128.0.0.0 Safari/537.36","Macintosh","Chrome","128.0.0.0","OS X","10_15_7","https://app.prolific.com/","en-US,en;q=0.9","674d396ea5a143c1fe1ff5bc","679edb085803f58d6bbd31ca","679eeb8f5a3632dbd83c5055","","null","<img  src='G_1.jpg' height='90'> <img id='selected'  src='G_3.jpg' height='90'> <img id='selected' src='G_5.jpg' height='90'> <img src='G_7.jpg' height='90'> <img src='G_9.jpg' height='90'>","null","Animation0","",""
"","","","","","html-keyboard-response","30","274322","0.0-14.0","30","1","2025-02-02 03:50:56","bc01a2b6f61d06f6604adb8657495020","76.171.35.46","Mozilla/5.0 (Macintosh; Intel Mac OS X 10_15_7) AppleWebKit/537.36 (KHTML, like Gecko) Chrome/128.0.0.0 Safari/537.36","Macintosh","Chrome","128.0.0.0","OS X","10_15_7","https://app.prolific.com/","en-US,en;q=0.9","674d396ea5a143c1fe1ff5bc","679edb085803f58d6bbd31ca","679eeb8f5a3632dbd83c5055","","null","<img  src='G_1.jpg' height='90'> <img id='selected'  src='G_3.jpg' height='90'> <img id='selected' src='G_5.jpg' height='90'> <img src='G_7.jpg' height='90'> <img src='G_9.jpg' height='90'>","null","Animation0","",""
"","","","","","html-keyboard-response","31","274625","0.0-15.0","30","1","2025-02-02 03:50:56","bc01a2b6f61d06f6604adb8657495020","76.171.35.46","Mozilla/5.0 (Macintosh; Intel Mac OS X 10_15_7) AppleWebKit/537.36 (KHTML, like Gecko) Chrome/128.0.0.0 Safari/537.36","Macintosh","Chrome","128.0.0.0","OS X","10_15_7","https://app.prolific.com/","en-US,en;q=0.9","674d396ea5a143c1fe1ff5bc","679edb085803f58d6bbd31ca","679eeb8f5a3632dbd83c5055","","null","<img  src='G_1.jpg' height='90'> <img   src='G_3.jpg' height='90'> <img  src='G_5.jpg' height='90'> <img src='G_7.jpg' height='90'> <img src='G_9.jpg' height='90'>","null","Animation0","",""
"","","","","","html-keyboard-response","32","275128","0.0-16.0","30","1","2025-02-02 03:50:56","bc01a2b6f61d06f6604adb8657495020","76.171.35.46","Mozilla/5.0 (Macintosh; Intel Mac OS X 10_15_7) AppleWebKit/537.36 (KHTML, like Gecko) Chrome/128.0.0.0 Safari/537.36","Macintosh","Chrome","128.0.0.0","OS X","10_15_7","https://app.prolific.com/","en-US,en;q=0.9","674d396ea5a143c1fe1ff5bc","679edb085803f58d6bbd31ca","679eeb8f5a3632dbd83c5055","","null","<img  src='G_1.jpg' height='90'> <img   src='G_3.jpg' height='90'> <img id='selected'  src='G_5.jpg' height='90'> <img src='G_7.jpg' height='90'> <img src='G_9.jpg' height='90'>","null","Animation0","",""
"","","","","","html-keyboard-response","33","275630","0.0-17.0","30","1","2025-02-02 03:50:56","bc01a2b6f61d06f6604adb8657495020","76.171.35.46","Mozilla/5.0 (Macintosh; Intel Mac OS X 10_15_7) AppleWebKit/537.36 (KHTML, like Gecko) Chrome/128.0.0.0 Safari/537.36","Macintosh","Chrome","128.0.0.0","OS X","10_15_7","https://app.prolific.com/","en-US,en;q=0.9","674d396ea5a143c1fe1ff5bc","679edb085803f58d6bbd31ca","679eeb8f5a3632dbd83c5055","","null","<img  src='G_1.jpg' height='90'> <img   src='G_3.jpg' height='90'> <img id='selected'  src='G_5.jpg' height='90'> <img id='selected' src='G_7.jpg' height='90'> <img src='G_9.jpg' height='90'>","null","Animation0","",""
"","","","","","html-keyboard-response","34","276132","0.0-18.0","30","1","2025-02-02 03:50:56","bc01a2b6f61d06f6604adb8657495020","76.171.35.46","Mozilla/5.0 (Macintosh; Intel Mac OS X 10_15_7) AppleWebKit/537.36 (KHTML, like Gecko) Chrome/128.0.0.0 Safari/537.36","Macintosh","Chrome","128.0.0.0","OS X","10_15_7","https://app.prolific.com/","en-US,en;q=0.9","674d396ea5a143c1fe1ff5bc","679edb085803f58d6bbd31ca","679eeb8f5a3632dbd83c5055","","null","<img  src='G_1.jpg' height='90'> <img   src='G_3.jpg' height='90'> <img id='selected'  src='G_5.jpg' height='90'> <img id='selected' src='G_7.jpg' height='90'> <img src='G_9.jpg' height='90'>","null","Animation0","",""
"","","","","","html-keyboard-response","35","276436","0.0-19.0","30","1","2025-02-02 03:50:56","bc01a2b6f61d06f6604adb8657495020","76.171.35.46","Mozilla/5.0 (Macintosh; Intel Mac OS X 10_15_7) AppleWebKit/537.36 (KHTML, like Gecko) Chrome/128.0.0.0 Safari/537.36","Macintosh","Chrome","128.0.0.0","OS X","10_15_7","https://app.prolific.com/","en-US,en;q=0.9","674d396ea5a143c1fe1ff5bc","679edb085803f58d6bbd31ca","679eeb8f5a3632dbd83c5055","","null","<img  src='G_1.jpg' height='90'> <img   src='G_3.jpg' height='90'> <img   src='G_5.jpg' height='90'> <img  src='G_7.jpg' height='90'> <img src='G_9.jpg' height='90'>","null","Animation0","",""
"","","","","","html-keyboard-response","36","276939","0.0-20.0","30","1","2025-02-02 03:50:56","bc01a2b6f61d06f6604adb8657495020","76.171.35.46","Mozilla/5.0 (Macintosh; Intel Mac OS X 10_15_7) AppleWebKit/537.36 (KHTML, like Gecko) Chrome/128.0.0.0 Safari/537.36","Macintosh","Chrome","128.0.0.0","OS X","10_15_7","https://app.prolific.com/","en-US,en;q=0.9","674d396ea5a143c1fe1ff5bc","679edb085803f58d6bbd31ca","679eeb8f5a3632dbd83c5055","","null","<img  src='G_1.jpg' height='90'> <img   src='G_3.jpg' height='90'> <img   src='G_5.jpg' height='90'> <img id='selected'  src='G_7.jpg' height='90'> <img src='G_9.jpg' height='90'>","null","Animation0","",""
"","","","","","html-keyboard-response","37","277442","0.0-21.0","30","1","2025-02-02 03:50:56","bc01a2b6f61d06f6604adb8657495020","76.171.35.46","Mozilla/5.0 (Macintosh; Intel Mac OS X 10_15_7) AppleWebKit/537.36 (KHTML, like Gecko) Chrome/128.0.0.0 Safari/537.36","Macintosh","Chrome","128.0.0.0","OS X","10_15_7","https://app.prolific.com/","en-US,en;q=0.9","674d396ea5a143c1fe1ff5bc","679edb085803f58d6bbd31ca","679eeb8f5a3632dbd83c5055","","null","<img  src='G_1.jpg' height='90'> <img   src='G_3.jpg' height='90'> <img   src='G_5.jpg' height='90'> <img id='selected'  src='G_7.jpg' height='90'> <img id='selected' src='G_9.jpg' height='90'>","null","Animation0","",""
"","","","","","html-keyboard-response","38","277945","0.0-22.0","30","1","2025-02-02 03:50:56","bc01a2b6f61d06f6604adb8657495020","76.171.35.46","Mozilla/5.0 (Macintosh; Intel Mac OS X 10_15_7) AppleWebKit/537.36 (KHTML, like Gecko) Chrome/128.0.0.0 Safari/537.36","Macintosh","Chrome","128.0.0.0","OS X","10_15_7","https://app.prolific.com/","en-US,en;q=0.9","674d396ea5a143c1fe1ff5bc","679edb085803f58d6bbd31ca","679eeb8f5a3632dbd83c5055","","null","<img  src='G_1.jpg' height='90'> <img   src='G_3.jpg' height='90'> <img   src='G_5.jpg' height='90'> <img id='selected'  src='G_7.jpg' height='90'> <img id='selected' src='G_9.jpg' height='90'>","null","Animation0","",""
"","","","","","html-keyboard-response","39","278249","0.0-23.0","30","1","2025-02-02 03:50:56","bc01a2b6f61d06f6604adb8657495020","76.171.35.46","Mozilla/5.0 (Macintosh; Intel Mac OS X 10_15_7) AppleWebKit/537.36 (KHTML, like Gecko) Chrome/128.0.0.0 Safari/537.36","Macintosh","Chrome","128.0.0.0","OS X","10_15_7","https://app.prolific.com/","en-US,en;q=0.9","674d396ea5a143c1fe1ff5bc","679edb085803f58d6bbd31ca","679eeb8f5a3632dbd83c5055","","null","<img  src='G_1.jpg' height='90'> <img   src='G_3.jpg' height='90'> <img   src='G_5.jpg' height='90'> <img   src='G_7.jpg' height='90'> <img  src='G_9.jpg' height='90'>","null","Animation0","",""
"","","","","","html-keyboard-response","40","284028","0.0-24.0","30","1","2025-02-02 03:50:56","bc01a2b6f61d06f6604adb8657495020","76.171.35.46","Mozilla/5.0 (Macintosh; Intel Mac OS X 10_15_7) AppleWebKit/537.36 (KHTML, like Gecko) Chrome/128.0.0.0 Safari/537.36","Macintosh","Chrome","128.0.0.0","OS X","10_15_7","https://app.prolific.com/","en-US,en;q=0.9","674d396ea5a143c1fe1ff5bc","679edb085803f58d6bbd31ca","679eeb8f5a3632dbd83c5055","","5778","[""Did you notice any patterns? <br><br>Press Enter to watch that example again and follow the steps of Omgne Sort.""]","enter","","",""
"","","","","","html-button-response","41","284432","0.0-25.0","30","1","2025-02-02 03:50:56","bc01a2b6f61d06f6604adb8657495020","76.171.35.46","Mozilla/5.0 (Macintosh; Intel Mac OS X 10_15_7) AppleWebKit/537.36 (KHTML, like Gecko) Chrome/128.0.0.0 Safari/537.36","Macintosh","Chrome","128.0.0.0","OS X","10_15_7","https://app.prolific.com/","en-US,en;q=0.9","674d396ea5a143c1fe1ff5bc","679edb085803f58d6bbd31ca","679eeb8f5a3632dbd83c5055","","null","<img id='selected' src='G_3.jpg' height='90'> <img src='G_1.jpg' height='90'> <img src='G_5.jpg' height='90'> <img src='G_7.jpg' height='90'> <img src='G_9.jpg' height='90'>","null","Learning example 0","",""
"","","","","","html-button-response","42","284736","0.0-26.0","30","1","2025-02-02 03:50:56","bc01a2b6f61d06f6604adb8657495020","76.171.35.46","Mozilla/5.0 (Macintosh; Intel Mac OS X 10_15_7) AppleWebKit/537.36 (KHTML, like Gecko) Chrome/128.0.0.0 Safari/537.36","Macintosh","Chrome","128.0.0.0","OS X","10_15_7","https://app.prolific.com/","en-US,en;q=0.9","674d396ea5a143c1fe1ff5bc","679edb085803f58d6bbd31ca","679eeb8f5a3632dbd83c5055","","null","<img id='selected' src='G_3.jpg' height='90'> <img id='selected' src='G_1.jpg' height='90'> <img src='G_5.jpg' height='90'> <img src='G_7.jpg' height='90'> <img src='G_9.jpg' height='90'>","null","Learning example 0","",""
"","","","","","html-button-response","43","285039","0.0-27.0","30","1","2025-02-02 03:50:56","bc01a2b6f61d06f6604adb8657495020","76.171.35.46","Mozilla/5.0 (Macintosh; Intel Mac OS X 10_15_7) AppleWebKit/537.36 (KHTML, like Gecko) Chrome/128.0.0.0 Safari/537.36","Macintosh","Chrome","128.0.0.0","OS X","10_15_7","https://app.prolific.com/","en-US,en;q=0.9","674d396ea5a143c1fe1ff5bc","679edb085803f58d6bbd31ca","679eeb8f5a3632dbd83c5055","","null","<img id='swapped' src='G_1.jpg' height='90'> <img id='swapped' src='G_3.jpg' height='90'> <img src='G_5.jpg' height='90'> <img src='G_7.jpg' height='90'> <img src='G_9.jpg' height='90'>","null","Learning example 0","",""
"","","","","","html-button-response","44","311177","0.0-28.0-0.0-0.0","30","1","2025-02-02 03:50:56","bc01a2b6f61d06f6604adb8657495020","76.171.35.46","Mozilla/5.0 (Macintosh; Intel Mac OS X 10_15_7) AppleWebKit/537.36 (KHTML, like Gecko) Chrome/128.0.0.0 Safari/537.36","Macintosh","Chrome","128.0.0.0","OS X","10_15_7","https://app.prolific.com/","en-US,en;q=0.9","674d396ea5a143c1fe1ff5bc","679edb085803f58d6bbd31ca","679eeb8f5a3632dbd83c5055","","26137","<img id='swapped' src='G_1.jpg' height='90'> <img id='swapped' src='G_3.jpg' height='90'> <img src='G_5.jpg' height='90'> <img src='G_7.jpg' height='90'> <img src='G_9.jpg' height='90'>","0","Learning example 0","",""
"","","","","","html-button-response","45","311796","0.0-28.1-0.1-0.1","30","1","2025-02-02 03:50:56","bc01a2b6f61d06f6604adb8657495020","76.171.35.46","Mozilla/5.0 (Macintosh; Intel Mac OS X 10_15_7) AppleWebKit/537.36 (KHTML, like Gecko) Chrome/128.0.0.0 Safari/537.36","Macintosh","Chrome","128.0.0.0","OS X","10_15_7","https://app.prolific.com/","en-US,en;q=0.9","674d396ea5a143c1fe1ff5bc","679edb085803f58d6bbd31ca","679eeb8f5a3632dbd83c5055","","616","<img id='swapped' src='G_1.jpg' height='90'> <img id='swapped' src='G_3.jpg' height='90'> <img src='G_5.jpg' height='90'> <img src='G_7.jpg' height='90'> <img src='G_9.jpg' height='90'>","1","Learning example 0","",""
"","","","","","html-button-response","46","311999","0.0-29.0","30","1","2025-02-02 03:50:56","bc01a2b6f61d06f6604adb8657495020","76.171.35.46","Mozilla/5.0 (Macintosh; Intel Mac OS X 10_15_7) AppleWebKit/537.36 (KHTML, like Gecko) Chrome/128.0.0.0 Safari/537.36","Macintosh","Chrome","128.0.0.0","OS X","10_15_7","https://app.prolific.com/","en-US,en;q=0.9","674d396ea5a143c1fe1ff5bc","679edb085803f58d6bbd31ca","679eeb8f5a3632dbd83c5055","","null","<img  src='G_1.jpg' height='90'> <img  src='G_3.jpg' height='90'> <img src='G_5.jpg' height='90'> <img src='G_7.jpg' height='90'> <img src='G_9.jpg' height='90'>","null","Learning example 0","",""
"","","","","","html-button-response","47","312402","0.0-30.0","30","1","2025-02-02 03:50:56","bc01a2b6f61d06f6604adb8657495020","76.171.35.46","Mozilla/5.0 (Macintosh; Intel Mac OS X 10_15_7) AppleWebKit/537.36 (KHTML, like Gecko) Chrome/128.0.0.0 Safari/537.36","Macintosh","Chrome","128.0.0.0","OS X","10_15_7","https://app.prolific.com/","en-US,en;q=0.9","674d396ea5a143c1fe1ff5bc","679edb085803f58d6bbd31ca","679eeb8f5a3632dbd83c5055","","null","<img  src='G_1.jpg' height='90'> <img id='selected'  src='G_3.jpg' height='90'> <img src='G_5.jpg' height='90'> <img src='G_7.jpg' height='90'> <img src='G_9.jpg' height='90'>","null","Learning example 0","",""
"","","","","","html-button-response","48","312706","0.0-31.0","30","1","2025-02-02 03:50:56","bc01a2b6f61d06f6604adb8657495020","76.171.35.46","Mozilla/5.0 (Macintosh; Intel Mac OS X 10_15_7) AppleWebKit/537.36 (KHTML, like Gecko) Chrome/128.0.0.0 Safari/537.36","Macintosh","Chrome","128.0.0.0","OS X","10_15_7","https://app.prolific.com/","en-US,en;q=0.9","674d396ea5a143c1fe1ff5bc","679edb085803f58d6bbd31ca","679eeb8f5a3632dbd83c5055","","null","<img  src='G_1.jpg' height='90'> <img id='selected'  src='G_3.jpg' height='90'> <img id='selected' src='G_5.jpg' height='90'> <img src='G_7.jpg' height='90'> <img src='G_9.jpg' height='90'>","null","Learning example 0","",""
"","","","","","html-button-response","49","313010","0.0-32.0","30","1","2025-02-02 03:50:56","bc01a2b6f61d06f6604adb8657495020","76.171.35.46","Mozilla/5.0 (Macintosh; Intel Mac OS X 10_15_7) AppleWebKit/537.36 (KHTML, like Gecko) Chrome/128.0.0.0 Safari/537.36","Macintosh","Chrome","128.0.0.0","OS X","10_15_7","https://app.prolific.com/","en-US,en;q=0.9","674d396ea5a143c1fe1ff5bc","679edb085803f58d6bbd31ca","679eeb8f5a3632dbd83c5055","","null","<img  src='G_1.jpg' height='90'> <img id='selected'  src='G_3.jpg' height='90'> <img id='selected' src='G_5.jpg' height='90'> <img src='G_7.jpg' height='90'> <img src='G_9.jpg' height='90'>","null","Learning example 0","",""
"","","","","","html-button-response","50","317275","0.0-33.0-0.0-0.0","30","1","2025-02-02 03:50:56","bc01a2b6f61d06f6604adb8657495020","76.171.35.46","Mozilla/5.0 (Macintosh; Intel Mac OS X 10_15_7) AppleWebKit/537.36 (KHTML, like Gecko) Chrome/128.0.0.0 Safari/537.36","Macintosh","Chrome","128.0.0.0","OS X","10_15_7","https://app.prolific.com/","en-US,en;q=0.9","674d396ea5a143c1fe1ff5bc","679edb085803f58d6bbd31ca","679eeb8f5a3632dbd83c5055","","4263","<img  src='G_1.jpg' height='90'> <img id='selected'  src='G_3.jpg' height='90'> <img id='selected' src='G_5.jpg' height='90'> <img src='G_7.jpg' height='90'> <img src='G_9.jpg' height='90'>","2","Learning example 0","",""
"","","","","","html-button-response","51","317702","0.0-33.1-0.1-0.1","30","1","2025-02-02 03:50:56","bc01a2b6f61d06f6604adb8657495020","76.171.35.46","Mozilla/5.0 (Macintosh; Intel Mac OS X 10_15_7) AppleWebKit/537.36 (KHTML, like Gecko) Chrome/128.0.0.0 Safari/537.36","Macintosh","Chrome","128.0.0.0","OS X","10_15_7","https://app.prolific.com/","en-US,en;q=0.9","674d396ea5a143c1fe1ff5bc","679edb085803f58d6bbd31ca","679eeb8f5a3632dbd83c5055","","425","<img  src='G_1.jpg' height='90'> <img id='selected'  src='G_3.jpg' height='90'> <img id='selected' src='G_5.jpg' height='90'> <img src='G_7.jpg' height='90'> <img src='G_9.jpg' height='90'>","3","Learning example 0","",""
"","","","","","html-button-response","52","318400","0.0-33.2-0.2-0.2","30","1","2025-02-02 03:50:56","bc01a2b6f61d06f6604adb8657495020","76.171.35.46","Mozilla/5.0 (Macintosh; Intel Mac OS X 10_15_7) AppleWebKit/537.36 (KHTML, like Gecko) Chrome/128.0.0.0 Safari/537.36","Macintosh","Chrome","128.0.0.0","OS X","10_15_7","https://app.prolific.com/","en-US,en;q=0.9","674d396ea5a143c1fe1ff5bc","679edb085803f58d6bbd31ca","679eeb8f5a3632dbd83c5055","","695","<img  src='G_1.jpg' height='90'> <img id='selected'  src='G_3.jpg' height='90'> <img id='selected' src='G_5.jpg' height='90'> <img src='G_7.jpg' height='90'> <img src='G_9.jpg' height='90'>","3","Learning example 0","",""
"","","","","","html-button-response","53","319243","0.0-33.3-0.3-0.3","30","1","2025-02-02 03:50:56","bc01a2b6f61d06f6604adb8657495020","76.171.35.46","Mozilla/5.0 (Macintosh; Intel Mac OS X 10_15_7) AppleWebKit/537.36 (KHTML, like Gecko) Chrome/128.0.0.0 Safari/537.36","Macintosh","Chrome","128.0.0.0","OS X","10_15_7","https://app.prolific.com/","en-US,en;q=0.9","674d396ea5a143c1fe1ff5bc","679edb085803f58d6bbd31ca","679eeb8f5a3632dbd83c5055","","841","<img  src='G_1.jpg' height='90'> <img id='selected'  src='G_3.jpg' height='90'> <img id='selected' src='G_5.jpg' height='90'> <img src='G_7.jpg' height='90'> <img src='G_9.jpg' height='90'>","2","Learning example 0","",""
"","","","","","html-button-response","54","320436","0.0-33.4-0.4-0.4","30","1","2025-02-02 03:50:56","bc01a2b6f61d06f6604adb8657495020","76.171.35.46","Mozilla/5.0 (Macintosh; Intel Mac OS X 10_15_7) AppleWebKit/537.36 (KHTML, like Gecko) Chrome/128.0.0.0 Safari/537.36","Macintosh","Chrome","128.0.0.0","OS X","10_15_7","https://app.prolific.com/","en-US,en;q=0.9","674d396ea5a143c1fe1ff5bc","679edb085803f58d6bbd31ca","679eeb8f5a3632dbd83c5055","","1190","<img  src='G_1.jpg' height='90'> <img id='selected'  src='G_3.jpg' height='90'> <img id='selected' src='G_5.jpg' height='90'> <img src='G_7.jpg' height='90'> <img src='G_9.jpg' height='90'>","4","Learning example 0","",""
"","","","","","html-button-response","55","320841","0.0-33.5-0.5-0.5","30","1","2025-02-02 03:50:56","bc01a2b6f61d06f6604adb8657495020","76.171.35.46","Mozilla/5.0 (Macintosh; Intel Mac OS X 10_15_7) AppleWebKit/537.36 (KHTML, like Gecko) Chrome/128.0.0.0 Safari/537.36","Macintosh","Chrome","128.0.0.0","OS X","10_15_7","https://app.prolific.com/","en-US,en;q=0.9","674d396ea5a143c1fe1ff5bc","679edb085803f58d6bbd31ca","679eeb8f5a3632dbd83c5055","","403","<img  src='G_1.jpg' height='90'> <img id='selected'  src='G_3.jpg' height='90'> <img id='selected' src='G_5.jpg' height='90'> <img src='G_7.jpg' height='90'> <img src='G_9.jpg' height='90'>","3","Learning example 0","",""
"","","","","","html-button-response","56","321527","0.0-33.6-0.6-0.6","30","1","2025-02-02 03:50:56","bc01a2b6f61d06f6604adb8657495020","76.171.35.46","Mozilla/5.0 (Macintosh; Intel Mac OS X 10_15_7) AppleWebKit/537.36 (KHTML, like Gecko) Chrome/128.0.0.0 Safari/537.36","Macintosh","Chrome","128.0.0.0","OS X","10_15_7","https://app.prolific.com/","en-US,en;q=0.9","674d396ea5a143c1fe1ff5bc","679edb085803f58d6bbd31ca","679eeb8f5a3632dbd83c5055","","684","<img  src='G_1.jpg' height='90'> <img id='selected'  src='G_3.jpg' height='90'> <img id='selected' src='G_5.jpg' height='90'> <img src='G_7.jpg' height='90'> <img src='G_9.jpg' height='90'>","3","Learning example 0","",""
"","","","","","html-button-response","57","321932","0.0-33.7-0.7-0.7","30","1","2025-02-02 03:50:56","bc01a2b6f61d06f6604adb8657495020","76.171.35.46","Mozilla/5.0 (Macintosh; Intel Mac OS X 10_15_7) AppleWebKit/537.36 (KHTML, like Gecko) Chrome/128.0.0.0 Safari/537.36","Macintosh","Chrome","128.0.0.0","OS X","10_15_7","https://app.prolific.com/","en-US,en;q=0.9","674d396ea5a143c1fe1ff5bc","679edb085803f58d6bbd31ca","679eeb8f5a3632dbd83c5055","","402","<img  src='G_1.jpg' height='90'> <img id='selected'  src='G_3.jpg' height='90'> <img id='selected' src='G_5.jpg' height='90'> <img src='G_7.jpg' height='90'> <img src='G_9.jpg' height='90'>","4","Learning example 0","",""
"","","","","","html-button-response","58","322607","0.0-33.8-0.8-0.8","30","1","2025-02-02 03:50:56","bc01a2b6f61d06f6604adb8657495020","76.171.35.46","Mozilla/5.0 (Macintosh; Intel Mac OS X 10_15_7) AppleWebKit/537.36 (KHTML, like Gecko) Chrome/128.0.0.0 Safari/537.36","Macintosh","Chrome","128.0.0.0","OS X","10_15_7","https://app.prolific.com/","en-US,en;q=0.9","674d396ea5a143c1fe1ff5bc","679edb085803f58d6bbd31ca","679eeb8f5a3632dbd83c5055","","673","<img  src='G_1.jpg' height='90'> <img id='selected'  src='G_3.jpg' height='90'> <img id='selected' src='G_5.jpg' height='90'> <img src='G_7.jpg' height='90'> <img src='G_9.jpg' height='90'>","3","Learning example 0","",""
"","","","","","html-button-response","59","327861","0.0-33.9-0.9-0.9","30","1","2025-02-02 03:50:56","bc01a2b6f61d06f6604adb8657495020","76.171.35.46","Mozilla/5.0 (Macintosh; Intel Mac OS X 10_15_7) AppleWebKit/537.36 (KHTML, like Gecko) Chrome/128.0.0.0 Safari/537.36","Macintosh","Chrome","128.0.0.0","OS X","10_15_7","https://app.prolific.com/","en-US,en;q=0.9","674d396ea5a143c1fe1ff5bc","679edb085803f58d6bbd31ca","679eeb8f5a3632dbd83c5055","","5251","<img  src='G_1.jpg' height='90'> <img id='selected'  src='G_3.jpg' height='90'> <img id='selected' src='G_5.jpg' height='90'> <img src='G_7.jpg' height='90'> <img src='G_9.jpg' height='90'>","3","Learning example 0","",""
"","","","","","html-button-response","60","328435","0.0-33.10-0.10-0.10","30","1","2025-02-02 03:50:56","bc01a2b6f61d06f6604adb8657495020","76.171.35.46","Mozilla/5.0 (Macintosh; Intel Mac OS X 10_15_7) AppleWebKit/537.36 (KHTML, like Gecko) Chrome/128.0.0.0 Safari/537.36","Macintosh","Chrome","128.0.0.0","OS X","10_15_7","https://app.prolific.com/","en-US,en;q=0.9","674d396ea5a143c1fe1ff5bc","679edb085803f58d6bbd31ca","679eeb8f5a3632dbd83c5055","","571","<img  src='G_1.jpg' height='90'> <img id='selected'  src='G_3.jpg' height='90'> <img id='selected' src='G_5.jpg' height='90'> <img src='G_7.jpg' height='90'> <img src='G_9.jpg' height='90'>","4","Learning example 0","",""
"","","","","","html-button-response","61","330314","0.0-33.11-0.11-0.11","30","1","2025-02-02 03:50:56","bc01a2b6f61d06f6604adb8657495020","76.171.35.46","Mozilla/5.0 (Macintosh; Intel Mac OS X 10_15_7) AppleWebKit/537.36 (KHTML, like Gecko) Chrome/128.0.0.0 Safari/537.36","Macintosh","Chrome","128.0.0.0","OS X","10_15_7","https://app.prolific.com/","en-US,en;q=0.9","674d396ea5a143c1fe1ff5bc","679edb085803f58d6bbd31ca","679eeb8f5a3632dbd83c5055","","1876","<img  src='G_1.jpg' height='90'> <img id='selected'  src='G_3.jpg' height='90'> <img id='selected' src='G_5.jpg' height='90'> <img src='G_7.jpg' height='90'> <img src='G_9.jpg' height='90'>","2","Learning example 0","",""
"","","","","","html-button-response","62","330989","0.0-33.12-0.12-0.12","30","1","2025-02-02 03:50:56","bc01a2b6f61d06f6604adb8657495020","76.171.35.46","Mozilla/5.0 (Macintosh; Intel Mac OS X 10_15_7) AppleWebKit/537.36 (KHTML, like Gecko) Chrome/128.0.0.0 Safari/537.36","Macintosh","Chrome","128.0.0.0","OS X","10_15_7","https://app.prolific.com/","en-US,en;q=0.9","674d396ea5a143c1fe1ff5bc","679edb085803f58d6bbd31ca","679eeb8f5a3632dbd83c5055","","672","<img  src='G_1.jpg' height='90'> <img id='selected'  src='G_3.jpg' height='90'> <img id='selected' src='G_5.jpg' height='90'> <img src='G_7.jpg' height='90'> <img src='G_9.jpg' height='90'>","1","Learning example 0","",""
"","","","","","html-button-response","63","331192","0.0-34.0","30","1","2025-02-02 03:50:56","bc01a2b6f61d06f6604adb8657495020","76.171.35.46","Mozilla/5.0 (Macintosh; Intel Mac OS X 10_15_7) AppleWebKit/537.36 (KHTML, like Gecko) Chrome/128.0.0.0 Safari/537.36","Macintosh","Chrome","128.0.0.0","OS X","10_15_7","https://app.prolific.com/","en-US,en;q=0.9","674d396ea5a143c1fe1ff5bc","679edb085803f58d6bbd31ca","679eeb8f5a3632dbd83c5055","","null","<img  src='G_1.jpg' height='90'> <img   src='G_3.jpg' height='90'> <img  src='G_5.jpg' height='90'> <img src='G_7.jpg' height='90'> <img src='G_9.jpg' height='90'>","null","Learning example 0","",""
"","","","","","html-button-response","64","331595","0.0-35.0","30","1","2025-02-02 03:50:56","bc01a2b6f61d06f6604adb8657495020","76.171.35.46","Mozilla/5.0 (Macintosh; Intel Mac OS X 10_15_7) AppleWebKit/537.36 (KHTML, like Gecko) Chrome/128.0.0.0 Safari/537.36","Macintosh","Chrome","128.0.0.0","OS X","10_15_7","https://app.prolific.com/","en-US,en;q=0.9","674d396ea5a143c1fe1ff5bc","679edb085803f58d6bbd31ca","679eeb8f5a3632dbd83c5055","","null","<img  src='G_1.jpg' height='90'> <img   src='G_3.jpg' height='90'> <img id='selected'  src='G_5.jpg' height='90'> <img src='G_7.jpg' height='90'> <img src='G_9.jpg' height='90'>","null","Learning example 0","",""
"","","","","","html-button-response","65","331898","0.0-36.0","30","1","2025-02-02 03:50:56","bc01a2b6f61d06f6604adb8657495020","76.171.35.46","Mozilla/5.0 (Macintosh; Intel Mac OS X 10_15_7) AppleWebKit/537.36 (KHTML, like Gecko) Chrome/128.0.0.0 Safari/537.36","Macintosh","Chrome","128.0.0.0","OS X","10_15_7","https://app.prolific.com/","en-US,en;q=0.9","674d396ea5a143c1fe1ff5bc","679edb085803f58d6bbd31ca","679eeb8f5a3632dbd83c5055","","null","<img  src='G_1.jpg' height='90'> <img   src='G_3.jpg' height='90'> <img id='selected'  src='G_5.jpg' height='90'> <img id='selected' src='G_7.jpg' height='90'> <img src='G_9.jpg' height='90'>","null","Learning example 0","",""
"","","","","","html-button-response","66","332203","0.0-37.0","30","1","2025-02-02 03:50:56","bc01a2b6f61d06f6604adb8657495020","76.171.35.46","Mozilla/5.0 (Macintosh; Intel Mac OS X 10_15_7) AppleWebKit/537.36 (KHTML, like Gecko) Chrome/128.0.0.0 Safari/537.36","Macintosh","Chrome","128.0.0.0","OS X","10_15_7","https://app.prolific.com/","en-US,en;q=0.9","674d396ea5a143c1fe1ff5bc","679edb085803f58d6bbd31ca","679eeb8f5a3632dbd83c5055","","null","<img  src='G_1.jpg' height='90'> <img   src='G_3.jpg' height='90'> <img id='selected'  src='G_5.jpg' height='90'> <img id='selected' src='G_7.jpg' height='90'> <img src='G_9.jpg' height='90'>","null","Learning example 0","",""
"","","","","","html-button-response","67","333599","0.0-38.0-0.0-0.0","30","1","2025-02-02 03:50:56","bc01a2b6f61d06f6604adb8657495020","76.171.35.46","Mozilla/5.0 (Macintosh; Intel Mac OS X 10_15_7) AppleWebKit/537.36 (KHTML, like Gecko) Chrome/128.0.0.0 Safari/537.36","Macintosh","Chrome","128.0.0.0","OS X","10_15_7","https://app.prolific.com/","en-US,en;q=0.9","674d396ea5a143c1fe1ff5bc","679edb085803f58d6bbd31ca","679eeb8f5a3632dbd83c5055","","1393","<img  src='G_1.jpg' height='90'> <img   src='G_3.jpg' height='90'> <img id='selected'  src='G_5.jpg' height='90'> <img id='selected' src='G_7.jpg' height='90'> <img src='G_9.jpg' height='90'>","2","Learning example 0","",""
"","","","","","html-button-response","68","334251","0.0-38.1-0.1-0.1","30","1","2025-02-02 03:50:56","bc01a2b6f61d06f6604adb8657495020","76.171.35.46","Mozilla/5.0 (Macintosh; Intel Mac OS X 10_15_7) AppleWebKit/537.36 (KHTML, like Gecko) Chrome/128.0.0.0 Safari/537.36","Macintosh","Chrome","128.0.0.0","OS X","10_15_7","https://app.prolific.com/","en-US,en;q=0.9","674d396ea5a143c1fe1ff5bc","679edb085803f58d6bbd31ca","679eeb8f5a3632dbd83c5055","","650","<img  src='G_1.jpg' height='90'> <img   src='G_3.jpg' height='90'> <img id='selected'  src='G_5.jpg' height='90'> <img id='selected' src='G_7.jpg' height='90'> <img src='G_9.jpg' height='90'>","1","Learning example 0","",""
"","","","","","html-button-response","69","334825","0.0-38.2-0.2-0.2","30","1","2025-02-02 03:50:56","bc01a2b6f61d06f6604adb8657495020","76.171.35.46","Mozilla/5.0 (Macintosh; Intel Mac OS X 10_15_7) AppleWebKit/537.36 (KHTML, like Gecko) Chrome/128.0.0.0 Safari/537.36","Macintosh","Chrome","128.0.0.0","OS X","10_15_7","https://app.prolific.com/","en-US,en;q=0.9","674d396ea5a143c1fe1ff5bc","679edb085803f58d6bbd31ca","679eeb8f5a3632dbd83c5055","","571","<img  src='G_1.jpg' height='90'> <img   src='G_3.jpg' height='90'> <img id='selected'  src='G_5.jpg' height='90'> <img id='selected' src='G_7.jpg' height='90'> <img src='G_9.jpg' height='90'>","2","Learning example 0","",""
"","","","","","html-button-response","70","336760","0.0-38.3-0.3-0.3","30","1","2025-02-02 03:50:56","bc01a2b6f61d06f6604adb8657495020","76.171.35.46","Mozilla/5.0 (Macintosh; Intel Mac OS X 10_15_7) AppleWebKit/537.36 (KHTML, like Gecko) Chrome/128.0.0.0 Safari/537.36","Macintosh","Chrome","128.0.0.0","OS X","10_15_7","https://app.prolific.com/","en-US,en;q=0.9","674d396ea5a143c1fe1ff5bc","679edb085803f58d6bbd31ca","679eeb8f5a3632dbd83c5055","","1932","<img  src='G_1.jpg' height='90'> <img   src='G_3.jpg' height='90'> <img id='selected'  src='G_5.jpg' height='90'> <img id='selected' src='G_7.jpg' height='90'> <img src='G_9.jpg' height='90'>","3","Learning example 0","",""
"","","","","","html-button-response","71","336963","0.0-39.0","30","1","2025-02-02 03:50:56","bc01a2b6f61d06f6604adb8657495020","76.171.35.46","Mozilla/5.0 (Macintosh; Intel Mac OS X 10_15_7) AppleWebKit/537.36 (KHTML, like Gecko) Chrome/128.0.0.0 Safari/537.36","Macintosh","Chrome","128.0.0.0","OS X","10_15_7","https://app.prolific.com/","en-US,en;q=0.9","674d396ea5a143c1fe1ff5bc","679edb085803f58d6bbd31ca","679eeb8f5a3632dbd83c5055","","null","<img  src='G_1.jpg' height='90'> <img   src='G_3.jpg' height='90'> <img   src='G_5.jpg' height='90'> <img  src='G_7.jpg' height='90'> <img src='G_9.jpg' height='90'>","null","Learning example 0","",""
"","","","","","html-button-response","72","337367","0.0-40.0","30","1","2025-02-02 03:50:56","bc01a2b6f61d06f6604adb8657495020","76.171.35.46","Mozilla/5.0 (Macintosh; Intel Mac OS X 10_15_7) AppleWebKit/537.36 (KHTML, like Gecko) Chrome/128.0.0.0 Safari/537.36","Macintosh","Chrome","128.0.0.0","OS X","10_15_7","https://app.prolific.com/","en-US,en;q=0.9","674d396ea5a143c1fe1ff5bc","679edb085803f58d6bbd31ca","679eeb8f5a3632dbd83c5055","","null","<img  src='G_1.jpg' height='90'> <img   src='G_3.jpg' height='90'> <img   src='G_5.jpg' height='90'> <img id='selected'  src='G_7.jpg' height='90'> <img src='G_9.jpg' height='90'>","null","Learning example 0","",""
"","","","","","html-button-response","73","337672","0.0-41.0","30","1","2025-02-02 03:50:56","bc01a2b6f61d06f6604adb8657495020","76.171.35.46","Mozilla/5.0 (Macintosh; Intel Mac OS X 10_15_7) AppleWebKit/537.36 (KHTML, like Gecko) Chrome/128.0.0.0 Safari/537.36","Macintosh","Chrome","128.0.0.0","OS X","10_15_7","https://app.prolific.com/","en-US,en;q=0.9","674d396ea5a143c1fe1ff5bc","679edb085803f58d6bbd31ca","679eeb8f5a3632dbd83c5055","","null","<img  src='G_1.jpg' height='90'> <img   src='G_3.jpg' height='90'> <img   src='G_5.jpg' height='90'> <img id='selected'  src='G_7.jpg' height='90'> <img id='selected' src='G_9.jpg' height='90'>","null","Learning example 0","",""
"","","","","","html-button-response","74","337976","0.0-42.0","30","1","2025-02-02 03:50:56","bc01a2b6f61d06f6604adb8657495020","76.171.35.46","Mozilla/5.0 (Macintosh; Intel Mac OS X 10_15_7) AppleWebKit/537.36 (KHTML, like Gecko) Chrome/128.0.0.0 Safari/537.36","Macintosh","Chrome","128.0.0.0","OS X","10_15_7","https://app.prolific.com/","en-US,en;q=0.9","674d396ea5a143c1fe1ff5bc","679edb085803f58d6bbd31ca","679eeb8f5a3632dbd83c5055","","null","<img  src='G_1.jpg' height='90'> <img   src='G_3.jpg' height='90'> <img   src='G_5.jpg' height='90'> <img id='selected'  src='G_7.jpg' height='90'> <img id='selected' src='G_9.jpg' height='90'>","null","Learning example 0","",""
"","","","","","html-button-response","75","339494","0.0-43.0-0.0-0.0","30","1","2025-02-02 03:50:56","bc01a2b6f61d06f6604adb8657495020","76.171.35.46","Mozilla/5.0 (Macintosh; Intel Mac OS X 10_15_7) AppleWebKit/537.36 (KHTML, like Gecko) Chrome/128.0.0.0 Safari/537.36","Macintosh","Chrome","128.0.0.0","OS X","10_15_7","https://app.prolific.com/","en-US,en;q=0.9","674d396ea5a143c1fe1ff5bc","679edb085803f58d6bbd31ca","679eeb8f5a3632dbd83c5055","","1515","<img  src='G_1.jpg' height='90'> <img   src='G_3.jpg' height='90'> <img   src='G_5.jpg' height='90'> <img id='selected'  src='G_7.jpg' height='90'> <img id='selected' src='G_9.jpg' height='90'>","3","Learning example 0","",""
"","","","","","html-button-response","76","340034","0.0-43.1-0.1-0.1","30","1","2025-02-02 03:50:56","bc01a2b6f61d06f6604adb8657495020","76.171.35.46","Mozilla/5.0 (Macintosh; Intel Mac OS X 10_15_7) AppleWebKit/537.36 (KHTML, like Gecko) Chrome/128.0.0.0 Safari/537.36","Macintosh","Chrome","128.0.0.0","OS X","10_15_7","https://app.prolific.com/","en-US,en;q=0.9","674d396ea5a143c1fe1ff5bc","679edb085803f58d6bbd31ca","679eeb8f5a3632dbd83c5055","","538","<img  src='G_1.jpg' height='90'> <img   src='G_3.jpg' height='90'> <img   src='G_5.jpg' height='90'> <img id='selected'  src='G_7.jpg' height='90'> <img id='selected' src='G_9.jpg' height='90'>","4","Learning example 0","",""
"","","","","","html-button-response","77","340237","0.0-44.0","30","1","2025-02-02 03:50:56","bc01a2b6f61d06f6604adb8657495020","76.171.35.46","Mozilla/5.0 (Macintosh; Intel Mac OS X 10_15_7) AppleWebKit/537.36 (KHTML, like Gecko) Chrome/128.0.0.0 Safari/537.36","Macintosh","Chrome","128.0.0.0","OS X","10_15_7","https://app.prolific.com/","en-US,en;q=0.9","674d396ea5a143c1fe1ff5bc","679edb085803f58d6bbd31ca","679eeb8f5a3632dbd83c5055","","null","<img  src='G_1.jpg' height='90'> <img   src='G_3.jpg' height='90'> <img   src='G_5.jpg' height='90'> <img   src='G_7.jpg' height='90'> <img  src='G_9.jpg' height='90'>","null","Learning example 0","",""
"","","","","","html-keyboard-response","78","349132","0.0-45.0","30","1","2025-02-02 03:50:56","bc01a2b6f61d06f6604adb8657495020","76.171.35.46","Mozilla/5.0 (Macintosh; Intel Mac OS X 10_15_7) AppleWebKit/537.36 (KHTML, like Gecko) Chrome/128.0.0.0 Safari/537.36","Macintosh","Chrome","128.0.0.0","OS X","10_15_7","https://app.prolific.com/","en-US,en;q=0.9","674d396ea5a143c1fe1ff5bc","679edb085803f58d6bbd31ca","679eeb8f5a3632dbd83c5055","","8893","[""Final order was 1,2,3,4,5. The initial order was 2,1,3,4,5.<br>It took 1 swaps to sort it correctly with Omgne Sort. <br><br>Press Enter to continue.""]","enter","","",""
"","","","","","html-keyboard-response","79","356176","0.0-46.0","30","1","2025-02-02 03:50:56","bc01a2b6f61d06f6604adb8657495020","76.171.35.46","Mozilla/5.0 (Macintosh; Intel Mac OS X 10_15_7) AppleWebKit/537.36 (KHTML, like Gecko) Chrome/128.0.0.0 Safari/537.36","Macintosh","Chrome","128.0.0.0","OS X","10_15_7","https://app.prolific.com/","en-US,en;q=0.9","674d396ea5a143c1fe1ff5bc","679edb085803f58d6bbd31ca","679eeb8f5a3632dbd83c5055","","7043","[""Example 2<br><br>You will watch Omnge Sort in action. Try to identify any patterns in the comparisons made by this method. <br><br>Press Enter to continue.""]","enter","","",""
"","","","","","html-keyboard-response","80","356680","0.0-47.0","30","1","2025-02-02 03:50:56","bc01a2b6f61d06f6604adb8657495020","76.171.35.46","Mozilla/5.0 (Macintosh; Intel Mac OS X 10_15_7) AppleWebKit/537.36 (KHTML, like Gecko) Chrome/128.0.0.0 Safari/537.36","Macintosh","Chrome","128.0.0.0","OS X","10_15_7","https://app.prolific.com/","en-US,en;q=0.9","674d396ea5a143c1fe1ff5bc","679edb085803f58d6bbd31ca","679eeb8f5a3632dbd83c5055","","null","<img id='selected' src='G_2.jpg' height='90'> <img src='G_6.jpg' height='90'> <img src='G_8.jpg' height='90'> <img src='G_5.jpg' height='90'> <img src='G_7.jpg' height='90'> <img src='G_1.jpg' height='90'> <img src='G_3.jpg' height='90'> <img src='G_4.jpg' height='90'>","null","Animation1","",""
"","","","","","html-keyboard-response","81","357184","0.0-48.0","30","1","2025-02-02 03:50:56","bc01a2b6f61d06f6604adb8657495020","76.171.35.46","Mozilla/5.0 (Macintosh; Intel Mac OS X 10_15_7) AppleWebKit/537.36 (KHTML, like Gecko) Chrome/128.0.0.0 Safari/537.36","Macintosh","Chrome","128.0.0.0","OS X","10_15_7","https://app.prolific.com/","en-US,en;q=0.9","674d396ea5a143c1fe1ff5bc","679edb085803f58d6bbd31ca","679eeb8f5a3632dbd83c5055","","null","<img id='selected' src='G_2.jpg' height='90'> <img id='selected' src='G_6.jpg' height='90'> <img src='G_8.jpg' height='90'> <img src='G_5.jpg' height='90'> <img src='G_7.jpg' height='90'> <img src='G_1.jpg' height='90'> <img src='G_3.jpg' height='90'> <img src='G_4.jpg' height='90'>","null","Animation1","",""
"","","","","","html-keyboard-response","82","357686","0.0-49.0","30","1","2025-02-02 03:50:56","bc01a2b6f61d06f6604adb8657495020","76.171.35.46","Mozilla/5.0 (Macintosh; Intel Mac OS X 10_15_7) AppleWebKit/537.36 (KHTML, like Gecko) Chrome/128.0.0.0 Safari/537.36","Macintosh","Chrome","128.0.0.0","OS X","10_15_7","https://app.prolific.com/","en-US,en;q=0.9","674d396ea5a143c1fe1ff5bc","679edb085803f58d6bbd31ca","679eeb8f5a3632dbd83c5055","","null","<img id='selected' src='G_2.jpg' height='90'> <img id='selected' src='G_6.jpg' height='90'> <img src='G_8.jpg' height='90'> <img src='G_5.jpg' height='90'> <img src='G_7.jpg' height='90'> <img src='G_1.jpg' height='90'> <img src='G_3.jpg' height='90'> <img src='G_4.jpg' height='90'>","null","Animation1","",""
"","","","","","html-keyboard-response","83","357990","0.0-50.0","30","1","2025-02-02 03:50:56","bc01a2b6f61d06f6604adb8657495020","76.171.35.46","Mozilla/5.0 (Macintosh; Intel Mac OS X 10_15_7) AppleWebKit/537.36 (KHTML, like Gecko) Chrome/128.0.0.0 Safari/537.36","Macintosh","Chrome","128.0.0.0","OS X","10_15_7","https://app.prolific.com/","en-US,en;q=0.9","674d396ea5a143c1fe1ff5bc","679edb085803f58d6bbd31ca","679eeb8f5a3632dbd83c5055","","null","<img  src='G_2.jpg' height='90'> <img  src='G_6.jpg' height='90'> <img src='G_8.jpg' height='90'> <img src='G_5.jpg' height='90'> <img src='G_7.jpg' height='90'> <img src='G_1.jpg' height='90'> <img src='G_3.jpg' height='90'> <img src='G_4.jpg' height='90'>","null","Animation1","",""
"","","","","","html-keyboard-response","84","358495","0.0-51.0","30","1","2025-02-02 03:50:56","bc01a2b6f61d06f6604adb8657495020","76.171.35.46","Mozilla/5.0 (Macintosh; Intel Mac OS X 10_15_7) AppleWebKit/537.36 (KHTML, like Gecko) Chrome/128.0.0.0 Safari/537.36","Macintosh","Chrome","128.0.0.0","OS X","10_15_7","https://app.prolific.com/","en-US,en;q=0.9","674d396ea5a143c1fe1ff5bc","679edb085803f58d6bbd31ca","679eeb8f5a3632dbd83c5055","","null","<img  src='G_2.jpg' height='90'> <img id='selected'  src='G_6.jpg' height='90'> <img src='G_8.jpg' height='90'> <img src='G_5.jpg' height='90'> <img src='G_7.jpg' height='90'> <img src='G_1.jpg' height='90'> <img src='G_3.jpg' height='90'> <img src='G_4.jpg' height='90'>","null","Animation1","",""
"","","","","","html-keyboard-response","85","358998","0.0-52.0","30","1","2025-02-02 03:50:56","bc01a2b6f61d06f6604adb8657495020","76.171.35.46","Mozilla/5.0 (Macintosh; Intel Mac OS X 10_15_7) AppleWebKit/537.36 (KHTML, like Gecko) Chrome/128.0.0.0 Safari/537.36","Macintosh","Chrome","128.0.0.0","OS X","10_15_7","https://app.prolific.com/","en-US,en;q=0.9","674d396ea5a143c1fe1ff5bc","679edb085803f58d6bbd31ca","679eeb8f5a3632dbd83c5055","","null","<img  src='G_2.jpg' height='90'> <img id='selected'  src='G_6.jpg' height='90'> <img id='selected' src='G_8.jpg' height='90'> <img src='G_5.jpg' height='90'> <img src='G_7.jpg' height='90'> <img src='G_1.jpg' height='90'> <img src='G_3.jpg' height='90'> <img src='G_4.jpg' height='90'>","null","Animation1","",""
"","","","","","html-keyboard-response","86","359502","0.0-53.0","30","1","2025-02-02 03:50:56","bc01a2b6f61d06f6604adb8657495020","76.171.35.46","Mozilla/5.0 (Macintosh; Intel Mac OS X 10_15_7) AppleWebKit/537.36 (KHTML, like Gecko) Chrome/128.0.0.0 Safari/537.36","Macintosh","Chrome","128.0.0.0","OS X","10_15_7","https://app.prolific.com/","en-US,en;q=0.9","674d396ea5a143c1fe1ff5bc","679edb085803f58d6bbd31ca","679eeb8f5a3632dbd83c5055","","null","<img  src='G_2.jpg' height='90'> <img id='swapped' src='G_8.jpg' height='90'> <img id='swapped'  src='G_6.jpg' height='90'> <img src='G_5.jpg' height='90'> <img src='G_7.jpg' height='90'> <img src='G_1.jpg' height='90'> <img src='G_3.jpg' height='90'> <img src='G_4.jpg' height='90'>","null","Animation1","",""
"","","","","","html-keyboard-response","87","359806","0.0-54.0","30","1","2025-02-02 03:50:56","bc01a2b6f61d06f6604adb8657495020","76.171.35.46","Mozilla/5.0 (Macintosh; Intel Mac OS X 10_15_7) AppleWebKit/537.36 (KHTML, like Gecko) Chrome/128.0.0.0 Safari/537.36","Macintosh","Chrome","128.0.0.0","OS X","10_15_7","https://app.prolific.com/","en-US,en;q=0.9","674d396ea5a143c1fe1ff5bc","679edb085803f58d6bbd31ca","679eeb8f5a3632dbd83c5055","","null","<img  src='G_2.jpg' height='90'> <img  src='G_8.jpg' height='90'> <img   src='G_6.jpg' height='90'> <img src='G_5.jpg' height='90'> <img src='G_7.jpg' height='90'> <img src='G_1.jpg' height='90'> <img src='G_3.jpg' height='90'> <img src='G_4.jpg' height='90'>","null","Animation1","",""
"","","","","","html-keyboard-response","88","360310","0.0-55.0","30","1","2025-02-02 03:50:56","bc01a2b6f61d06f6604adb8657495020","76.171.35.46","Mozilla/5.0 (Macintosh; Intel Mac OS X 10_15_7) AppleWebKit/537.36 (KHTML, like Gecko) Chrome/128.0.0.0 Safari/537.36","Macintosh","Chrome","128.0.0.0","OS X","10_15_7","https://app.prolific.com/","en-US,en;q=0.9","674d396ea5a143c1fe1ff5bc","679edb085803f58d6bbd31ca","679eeb8f5a3632dbd83c5055","","null","<img id='selected'  src='G_2.jpg' height='90'> <img  src='G_8.jpg' height='90'> <img   src='G_6.jpg' height='90'> <img src='G_5.jpg' height='90'> <img src='G_7.jpg' height='90'> <img src='G_1.jpg' height='90'> <img src='G_3.jpg' height='90'> <img src='G_4.jpg' height='90'>","null","Animation1","",""
"","","","","","html-keyboard-response","89","360814","0.0-56.0","30","1","2025-02-02 03:50:56","bc01a2b6f61d06f6604adb8657495020","76.171.35.46","Mozilla/5.0 (Macintosh; Intel Mac OS X 10_15_7) AppleWebKit/537.36 (KHTML, like Gecko) Chrome/128.0.0.0 Safari/537.36","Macintosh","Chrome","128.0.0.0","OS X","10_15_7","https://app.prolific.com/","en-US,en;q=0.9","674d396ea5a143c1fe1ff5bc","679edb085803f58d6bbd31ca","679eeb8f5a3632dbd83c5055","","null","<img id='selected'  src='G_2.jpg' height='90'> <img id='selected'  src='G_8.jpg' height='90'> <img   src='G_6.jpg' height='90'> <img src='G_5.jpg' height='90'> <img src='G_7.jpg' height='90'> <img src='G_1.jpg' height='90'> <img src='G_3.jpg' height='90'> <img src='G_4.jpg' height='90'>","null","Animation1","",""
"","","","","","html-keyboard-response","90","361318","0.0-57.0","30","1","2025-02-02 03:50:56","bc01a2b6f61d06f6604adb8657495020","76.171.35.46","Mozilla/5.0 (Macintosh; Intel Mac OS X 10_15_7) AppleWebKit/537.36 (KHTML, like Gecko) Chrome/128.0.0.0 Safari/537.36","Macintosh","Chrome","128.0.0.0","OS X","10_15_7","https://app.prolific.com/","en-US,en;q=0.9","674d396ea5a143c1fe1ff5bc","679edb085803f58d6bbd31ca","679eeb8f5a3632dbd83c5055","","null","<img id='swapped'  src='G_8.jpg' height='90'> <img id='swapped'  src='G_2.jpg' height='90'> <img   src='G_6.jpg' height='90'> <img src='G_5.jpg' height='90'> <img src='G_7.jpg' height='90'> <img src='G_1.jpg' height='90'> <img src='G_3.jpg' height='90'> <img src='G_4.jpg' height='90'>","null","Animation1","",""
"","","","","","html-keyboard-response","91","361622","0.0-58.0","30","1","2025-02-02 03:50:56","bc01a2b6f61d06f6604adb8657495020","76.171.35.46","Mozilla/5.0 (Macintosh; Intel Mac OS X 10_15_7) AppleWebKit/537.36 (KHTML, like Gecko) Chrome/128.0.0.0 Safari/537.36","Macintosh","Chrome","128.0.0.0","OS X","10_15_7","https://app.prolific.com/","en-US,en;q=0.9","674d396ea5a143c1fe1ff5bc","679edb085803f58d6bbd31ca","679eeb8f5a3632dbd83c5055","","null","<img   src='G_8.jpg' height='90'> <img   src='G_2.jpg' height='90'> <img   src='G_6.jpg' height='90'> <img src='G_5.jpg' height='90'> <img src='G_7.jpg' height='90'> <img src='G_1.jpg' height='90'> <img src='G_3.jpg' height='90'> <img src='G_4.jpg' height='90'>","null","Animation1","",""
"","","","","","html-keyboard-response","92","362126","0.0-59.0","30","1","2025-02-02 03:50:56","bc01a2b6f61d06f6604adb8657495020","76.171.35.46","Mozilla/5.0 (Macintosh; Intel Mac OS X 10_15_7) AppleWebKit/537.36 (KHTML, like Gecko) Chrome/128.0.0.0 Safari/537.36","Macintosh","Chrome","128.0.0.0","OS X","10_15_7","https://app.prolific.com/","en-US,en;q=0.9","674d396ea5a143c1fe1ff5bc","679edb085803f58d6bbd31ca","679eeb8f5a3632dbd83c5055","","null","<img   src='G_8.jpg' height='90'> <img   src='G_2.jpg' height='90'> <img id='selected'   src='G_6.jpg' height='90'> <img src='G_5.jpg' height='90'> <img src='G_7.jpg' height='90'> <img src='G_1.jpg' height='90'> <img src='G_3.jpg' height='90'> <img src='G_4.jpg' height='90'>","null","Animation1","",""
"","","","","","html-keyboard-response","93","362630","0.0-60.0","30","1","2025-02-02 03:50:56","bc01a2b6f61d06f6604adb8657495020","76.171.35.46","Mozilla/5.0 (Macintosh; Intel Mac OS X 10_15_7) AppleWebKit/537.36 (KHTML, like Gecko) Chrome/128.0.0.0 Safari/537.36","Macintosh","Chrome","128.0.0.0","OS X","10_15_7","https://app.prolific.com/","en-US,en;q=0.9","674d396ea5a143c1fe1ff5bc","679edb085803f58d6bbd31ca","679eeb8f5a3632dbd83c5055","","null","<img   src='G_8.jpg' height='90'> <img   src='G_2.jpg' height='90'> <img id='selected'   src='G_6.jpg' height='90'> <img id='selected' src='G_5.jpg' height='90'> <img src='G_7.jpg' height='90'> <img src='G_1.jpg' height='90'> <img src='G_3.jpg' height='90'> <img src='G_4.jpg' height='90'>","null","Animation1","",""
"","","","","","html-keyboard-response","94","363134","0.0-61.0","30","1","2025-02-02 03:50:56","bc01a2b6f61d06f6604adb8657495020","76.171.35.46","Mozilla/5.0 (Macintosh; Intel Mac OS X 10_15_7) AppleWebKit/537.36 (KHTML, like Gecko) Chrome/128.0.0.0 Safari/537.36","Macintosh","Chrome","128.0.0.0","OS X","10_15_7","https://app.prolific.com/","en-US,en;q=0.9","674d396ea5a143c1fe1ff5bc","679edb085803f58d6bbd31ca","679eeb8f5a3632dbd83c5055","","null","<img   src='G_8.jpg' height='90'> <img   src='G_2.jpg' height='90'> <img id='swapped' src='G_5.jpg' height='90'> <img id='swapped'   src='G_6.jpg' height='90'> <img src='G_7.jpg' height='90'> <img src='G_1.jpg' height='90'> <img src='G_3.jpg' height='90'> <img src='G_4.jpg' height='90'>","null","Animation1","",""
"","","","","","html-keyboard-response","95","363438","0.0-62.0","30","1","2025-02-02 03:50:56","bc01a2b6f61d06f6604adb8657495020","76.171.35.46","Mozilla/5.0 (Macintosh; Intel Mac OS X 10_15_7) AppleWebKit/537.36 (KHTML, like Gecko) Chrome/128.0.0.0 Safari/537.36","Macintosh","Chrome","128.0.0.0","OS X","10_15_7","https://app.prolific.com/","en-US,en;q=0.9","674d396ea5a143c1fe1ff5bc","679edb085803f58d6bbd31ca","679eeb8f5a3632dbd83c5055","","null","<img   src='G_8.jpg' height='90'> <img   src='G_2.jpg' height='90'> <img  src='G_5.jpg' height='90'> <img    src='G_6.jpg' height='90'> <img src='G_7.jpg' height='90'> <img src='G_1.jpg' height='90'> <img src='G_3.jpg' height='90'> <img src='G_4.jpg' height='90'>","null","Animation1","",""
"","","","","","html-keyboard-response","96","363942","0.0-63.0","30","1","2025-02-02 03:50:56","bc01a2b6f61d06f6604adb8657495020","76.171.35.46","Mozilla/5.0 (Macintosh; Intel Mac OS X 10_15_7) AppleWebKit/537.36 (KHTML, like Gecko) Chrome/128.0.0.0 Safari/537.36","Macintosh","Chrome","128.0.0.0","OS X","10_15_7","https://app.prolific.com/","en-US,en;q=0.9","674d396ea5a143c1fe1ff5bc","679edb085803f58d6bbd31ca","679eeb8f5a3632dbd83c5055","","null","<img   src='G_8.jpg' height='90'> <img id='selected'   src='G_2.jpg' height='90'> <img  src='G_5.jpg' height='90'> <img    src='G_6.jpg' height='90'> <img src='G_7.jpg' height='90'> <img src='G_1.jpg' height='90'> <img src='G_3.jpg' height='90'> <img src='G_4.jpg' height='90'>","null","Animation1","",""
"","","","","","html-keyboard-response","97","364446","0.0-64.0","30","1","2025-02-02 03:50:56","bc01a2b6f61d06f6604adb8657495020","76.171.35.46","Mozilla/5.0 (Macintosh; Intel Mac OS X 10_15_7) AppleWebKit/537.36 (KHTML, like Gecko) Chrome/128.0.0.0 Safari/537.36","Macintosh","Chrome","128.0.0.0","OS X","10_15_7","https://app.prolific.com/","en-US,en;q=0.9","674d396ea5a143c1fe1ff5bc","679edb085803f58d6bbd31ca","679eeb8f5a3632dbd83c5055","","null","<img   src='G_8.jpg' height='90'> <img id='selected'   src='G_2.jpg' height='90'> <img id='selected'  src='G_5.jpg' height='90'> <img    src='G_6.jpg' height='90'> <img src='G_7.jpg' height='90'> <img src='G_1.jpg' height='90'> <img src='G_3.jpg' height='90'> <img src='G_4.jpg' height='90'>","null","Animation1","",""
"","","","","","html-keyboard-response","98","364951","0.0-65.0","30","1","2025-02-02 03:50:56","bc01a2b6f61d06f6604adb8657495020","76.171.35.46","Mozilla/5.0 (Macintosh; Intel Mac OS X 10_15_7) AppleWebKit/537.36 (KHTML, like Gecko) Chrome/128.0.0.0 Safari/537.36","Macintosh","Chrome","128.0.0.0","OS X","10_15_7","https://app.prolific.com/","en-US,en;q=0.9","674d396ea5a143c1fe1ff5bc","679edb085803f58d6bbd31ca","679eeb8f5a3632dbd83c5055","","null","<img   src='G_8.jpg' height='90'> <img id='swapped'  src='G_5.jpg' height='90'> <img id='swapped'   src='G_2.jpg' height='90'> <img    src='G_6.jpg' height='90'> <img src='G_7.jpg' height='90'> <img src='G_1.jpg' height='90'> <img src='G_3.jpg' height='90'> <img src='G_4.jpg' height='90'>","null","Animation1","",""
"","","","","","html-keyboard-response","99","365255","0.0-66.0","30","1","2025-02-02 03:50:56","bc01a2b6f61d06f6604adb8657495020","76.171.35.46","Mozilla/5.0 (Macintosh; Intel Mac OS X 10_15_7) AppleWebKit/537.36 (KHTML, like Gecko) Chrome/128.0.0.0 Safari/537.36","Macintosh","Chrome","128.0.0.0","OS X","10_15_7","https://app.prolific.com/","en-US,en;q=0.9","674d396ea5a143c1fe1ff5bc","679edb085803f58d6bbd31ca","679eeb8f5a3632dbd83c5055","","null","<img   src='G_8.jpg' height='90'> <img   src='G_5.jpg' height='90'> <img    src='G_2.jpg' height='90'> <img    src='G_6.jpg' height='90'> <img src='G_7.jpg' height='90'> <img src='G_1.jpg' height='90'> <img src='G_3.jpg' height='90'> <img src='G_4.jpg' height='90'>","null","Animation1","",""
"","","","","","html-keyboard-response","100","365759","0.0-67.0","30","1","2025-02-02 03:50:56","bc01a2b6f61d06f6604adb8657495020","76.171.35.46","Mozilla/5.0 (Macintosh; Intel Mac OS X 10_15_7) AppleWebKit/537.36 (KHTML, like Gecko) Chrome/128.0.0.0 Safari/537.36","Macintosh","Chrome","128.0.0.0","OS X","10_15_7","https://app.prolific.com/","en-US,en;q=0.9","674d396ea5a143c1fe1ff5bc","679edb085803f58d6bbd31ca","679eeb8f5a3632dbd83c5055","","null","<img id='selected'   src='G_8.jpg' height='90'> <img   src='G_5.jpg' height='90'> <img    src='G_2.jpg' height='90'> <img    src='G_6.jpg' height='90'> <img src='G_7.jpg' height='90'> <img src='G_1.jpg' height='90'> <img src='G_3.jpg' height='90'> <img src='G_4.jpg' height='90'>","null","Animation1","",""
"","","","","","html-keyboard-response","101","366264","0.0-68.0","30","1","2025-02-02 03:50:56","bc01a2b6f61d06f6604adb8657495020","76.171.35.46","Mozilla/5.0 (Macintosh; Intel Mac OS X 10_15_7) AppleWebKit/537.36 (KHTML, like Gecko) Chrome/128.0.0.0 Safari/537.36","Macintosh","Chrome","128.0.0.0","OS X","10_15_7","https://app.prolific.com/","en-US,en;q=0.9","674d396ea5a143c1fe1ff5bc","679edb085803f58d6bbd31ca","679eeb8f5a3632dbd83c5055","","null","<img id='selected'   src='G_8.jpg' height='90'> <img id='selected'   src='G_5.jpg' height='90'> <img    src='G_2.jpg' height='90'> <img    src='G_6.jpg' height='90'> <img src='G_7.jpg' height='90'> <img src='G_1.jpg' height='90'> <img src='G_3.jpg' height='90'> <img src='G_4.jpg' height='90'>","null","Animation1","",""
"","","","","","html-keyboard-response","102","366768","0.0-69.0","30","1","2025-02-02 03:50:56","bc01a2b6f61d06f6604adb8657495020","76.171.35.46","Mozilla/5.0 (Macintosh; Intel Mac OS X 10_15_7) AppleWebKit/537.36 (KHTML, like Gecko) Chrome/128.0.0.0 Safari/537.36","Macintosh","Chrome","128.0.0.0","OS X","10_15_7","https://app.prolific.com/","en-US,en;q=0.9","674d396ea5a143c1fe1ff5bc","679edb085803f58d6bbd31ca","679eeb8f5a3632dbd83c5055","","null","<img id='swapped'   src='G_5.jpg' height='90'> <img id='swapped'   src='G_8.jpg' height='90'> <img    src='G_2.jpg' height='90'> <img    src='G_6.jpg' height='90'> <img src='G_7.jpg' height='90'> <img src='G_1.jpg' height='90'> <img src='G_3.jpg' height='90'> <img src='G_4.jpg' height='90'>","null","Animation1","",""
"","","","","","html-keyboard-response","103","367073","0.0-70.0","30","1","2025-02-02 03:50:56","bc01a2b6f61d06f6604adb8657495020","76.171.35.46","Mozilla/5.0 (Macintosh; Intel Mac OS X 10_15_7) AppleWebKit/537.36 (KHTML, like Gecko) Chrome/128.0.0.0 Safari/537.36","Macintosh","Chrome","128.0.0.0","OS X","10_15_7","https://app.prolific.com/","en-US,en;q=0.9","674d396ea5a143c1fe1ff5bc","679edb085803f58d6bbd31ca","679eeb8f5a3632dbd83c5055","","null","<img    src='G_5.jpg' height='90'> <img    src='G_8.jpg' height='90'> <img    src='G_2.jpg' height='90'> <img    src='G_6.jpg' height='90'> <img src='G_7.jpg' height='90'> <img src='G_1.jpg' height='90'> <img src='G_3.jpg' height='90'> <img src='G_4.jpg' height='90'>","null","Animation1","",""
"","","","","","html-keyboard-response","104","367577","0.0-71.0","30","1","2025-02-02 03:50:56","bc01a2b6f61d06f6604adb8657495020","76.171.35.46","Mozilla/5.0 (Macintosh; Intel Mac OS X 10_15_7) AppleWebKit/537.36 (KHTML, like Gecko) Chrome/128.0.0.0 Safari/537.36","Macintosh","Chrome","128.0.0.0","OS X","10_15_7","https://app.prolific.com/","en-US,en;q=0.9","674d396ea5a143c1fe1ff5bc","679edb085803f58d6bbd31ca","679eeb8f5a3632dbd83c5055","","null","<img    src='G_5.jpg' height='90'> <img    src='G_8.jpg' height='90'> <img    src='G_2.jpg' height='90'> <img id='selected'    src='G_6.jpg' height='90'> <img src='G_7.jpg' height='90'> <img src='G_1.jpg' height='90'> <img src='G_3.jpg' height='90'> <img src='G_4.jpg' height='90'>","null","Animation1","",""
"","","","","","html-keyboard-response","105","368081","0.0-72.0","30","1","2025-02-02 03:50:56","bc01a2b6f61d06f6604adb8657495020","76.171.35.46","Mozilla/5.0 (Macintosh; Intel Mac OS X 10_15_7) AppleWebKit/537.36 (KHTML, like Gecko) Chrome/128.0.0.0 Safari/537.36","Macintosh","Chrome","128.0.0.0","OS X","10_15_7","https://app.prolific.com/","en-US,en;q=0.9","674d396ea5a143c1fe1ff5bc","679edb085803f58d6bbd31ca","679eeb8f5a3632dbd83c5055","","null","<img    src='G_5.jpg' height='90'> <img    src='G_8.jpg' height='90'> <img    src='G_2.jpg' height='90'> <img id='selected'    src='G_6.jpg' height='90'> <img id='selected' src='G_7.jpg' height='90'> <img src='G_1.jpg' height='90'> <img src='G_3.jpg' height='90'> <img src='G_4.jpg' height='90'>","null","Animation1","",""
"","","","","","html-keyboard-response","106","368586","0.0-73.0","30","1","2025-02-02 03:50:56","bc01a2b6f61d06f6604adb8657495020","76.171.35.46","Mozilla/5.0 (Macintosh; Intel Mac OS X 10_15_7) AppleWebKit/537.36 (KHTML, like Gecko) Chrome/128.0.0.0 Safari/537.36","Macintosh","Chrome","128.0.0.0","OS X","10_15_7","https://app.prolific.com/","en-US,en;q=0.9","674d396ea5a143c1fe1ff5bc","679edb085803f58d6bbd31ca","679eeb8f5a3632dbd83c5055","","null","<img    src='G_5.jpg' height='90'> <img    src='G_8.jpg' height='90'> <img    src='G_2.jpg' height='90'> <img id='swapped' src='G_7.jpg' height='90'> <img id='swapped'    src='G_6.jpg' height='90'> <img src='G_1.jpg' height='90'> <img src='G_3.jpg' height='90'> <img src='G_4.jpg' height='90'>","null","Animation1","",""
"","","","","","html-keyboard-response","107","368890","0.0-74.0","30","1","2025-02-02 03:50:56","bc01a2b6f61d06f6604adb8657495020","76.171.35.46","Mozilla/5.0 (Macintosh; Intel Mac OS X 10_15_7) AppleWebKit/537.36 (KHTML, like Gecko) Chrome/128.0.0.0 Safari/537.36","Macintosh","Chrome","128.0.0.0","OS X","10_15_7","https://app.prolific.com/","en-US,en;q=0.9","674d396ea5a143c1fe1ff5bc","679edb085803f58d6bbd31ca","679eeb8f5a3632dbd83c5055","","null","<img    src='G_5.jpg' height='90'> <img    src='G_8.jpg' height='90'> <img    src='G_2.jpg' height='90'> <img  src='G_7.jpg' height='90'> <img     src='G_6.jpg' height='90'> <img src='G_1.jpg' height='90'> <img src='G_3.jpg' height='90'> <img src='G_4.jpg' height='90'>","null","Animation1","",""
"","","","","","html-keyboard-response","108","369394","0.0-75.0","30","1","2025-02-02 03:50:56","bc01a2b6f61d06f6604adb8657495020","76.171.35.46","Mozilla/5.0 (Macintosh; Intel Mac OS X 10_15_7) AppleWebKit/537.36 (KHTML, like Gecko) Chrome/128.0.0.0 Safari/537.36","Macintosh","Chrome","128.0.0.0","OS X","10_15_7","https://app.prolific.com/","en-US,en;q=0.9","674d396ea5a143c1fe1ff5bc","679edb085803f58d6bbd31ca","679eeb8f5a3632dbd83c5055","","null","<img    src='G_5.jpg' height='90'> <img    src='G_8.jpg' height='90'> <img id='selected'    src='G_2.jpg' height='90'> <img  src='G_7.jpg' height='90'> <img     src='G_6.jpg' height='90'> <img src='G_1.jpg' height='90'> <img src='G_3.jpg' height='90'> <img src='G_4.jpg' height='90'>","null","Animation1","",""
"","","","","","html-keyboard-response","109","369899","0.0-76.0","30","1","2025-02-02 03:50:56","bc01a2b6f61d06f6604adb8657495020","76.171.35.46","Mozilla/5.0 (Macintosh; Intel Mac OS X 10_15_7) AppleWebKit/537.36 (KHTML, like Gecko) Chrome/128.0.0.0 Safari/537.36","Macintosh","Chrome","128.0.0.0","OS X","10_15_7","https://app.prolific.com/","en-US,en;q=0.9","674d396ea5a143c1fe1ff5bc","679edb085803f58d6bbd31ca","679eeb8f5a3632dbd83c5055","","null","<img    src='G_5.jpg' height='90'> <img    src='G_8.jpg' height='90'> <img id='selected'    src='G_2.jpg' height='90'> <img id='selected'  src='G_7.jpg' height='90'> <img     src='G_6.jpg' height='90'> <img src='G_1.jpg' height='90'> <img src='G_3.jpg' height='90'> <img src='G_4.jpg' height='90'>","null","Animation1","",""
"","","","","","html-keyboard-response","110","370403","0.0-77.0","30","1","2025-02-02 03:50:56","bc01a2b6f61d06f6604adb8657495020","76.171.35.46","Mozilla/5.0 (Macintosh; Intel Mac OS X 10_15_7) AppleWebKit/537.36 (KHTML, like Gecko) Chrome/128.0.0.0 Safari/537.36","Macintosh","Chrome","128.0.0.0","OS X","10_15_7","https://app.prolific.com/","en-US,en;q=0.9","674d396ea5a143c1fe1ff5bc","679edb085803f58d6bbd31ca","679eeb8f5a3632dbd83c5055","","null","<img    src='G_5.jpg' height='90'> <img    src='G_8.jpg' height='90'> <img id='swapped'  src='G_7.jpg' height='90'> <img id='swapped'    src='G_2.jpg' height='90'> <img     src='G_6.jpg' height='90'> <img src='G_1.jpg' height='90'> <img src='G_3.jpg' height='90'> <img src='G_4.jpg' height='90'>","null","Animation1","",""
"","","","","","html-keyboard-response","111","370708","0.0-78.0","30","1","2025-02-02 03:50:56","bc01a2b6f61d06f6604adb8657495020","76.171.35.46","Mozilla/5.0 (Macintosh; Intel Mac OS X 10_15_7) AppleWebKit/537.36 (KHTML, like Gecko) Chrome/128.0.0.0 Safari/537.36","Macintosh","Chrome","128.0.0.0","OS X","10_15_7","https://app.prolific.com/","en-US,en;q=0.9","674d396ea5a143c1fe1ff5bc","679edb085803f58d6bbd31ca","679eeb8f5a3632dbd83c5055","","null","<img    src='G_5.jpg' height='90'> <img    src='G_8.jpg' height='90'> <img   src='G_7.jpg' height='90'> <img     src='G_2.jpg' height='90'> <img     src='G_6.jpg' height='90'> <img src='G_1.jpg' height='90'> <img src='G_3.jpg' height='90'> <img src='G_4.jpg' height='90'>","null","Animation1","",""
"","","","","","html-keyboard-response","112","371213","0.0-79.0","30","1","2025-02-02 03:50:56","bc01a2b6f61d06f6604adb8657495020","76.171.35.46","Mozilla/5.0 (Macintosh; Intel Mac OS X 10_15_7) AppleWebKit/537.36 (KHTML, like Gecko) Chrome/128.0.0.0 Safari/537.36","Macintosh","Chrome","128.0.0.0","OS X","10_15_7","https://app.prolific.com/","en-US,en;q=0.9","674d396ea5a143c1fe1ff5bc","679edb085803f58d6bbd31ca","679eeb8f5a3632dbd83c5055","","null","<img    src='G_5.jpg' height='90'> <img id='selected'    src='G_8.jpg' height='90'> <img   src='G_7.jpg' height='90'> <img     src='G_2.jpg' height='90'> <img     src='G_6.jpg' height='90'> <img src='G_1.jpg' height='90'> <img src='G_3.jpg' height='90'> <img src='G_4.jpg' height='90'>","null","Animation1","",""
"","","","","","html-keyboard-response","113","371718","0.0-80.0","30","1","2025-02-02 03:50:56","bc01a2b6f61d06f6604adb8657495020","76.171.35.46","Mozilla/5.0 (Macintosh; Intel Mac OS X 10_15_7) AppleWebKit/537.36 (KHTML, like Gecko) Chrome/128.0.0.0 Safari/537.36","Macintosh","Chrome","128.0.0.0","OS X","10_15_7","https://app.prolific.com/","en-US,en;q=0.9","674d396ea5a143c1fe1ff5bc","679edb085803f58d6bbd31ca","679eeb8f5a3632dbd83c5055","","null","<img    src='G_5.jpg' height='90'> <img id='selected'    src='G_8.jpg' height='90'> <img id='selected'   src='G_7.jpg' height='90'> <img     src='G_2.jpg' height='90'> <img     src='G_6.jpg' height='90'> <img src='G_1.jpg' height='90'> <img src='G_3.jpg' height='90'> <img src='G_4.jpg' height='90'>","null","Animation1","",""
"","","","","","html-keyboard-response","114","372223","0.0-81.0","30","1","2025-02-02 03:50:56","bc01a2b6f61d06f6604adb8657495020","76.171.35.46","Mozilla/5.0 (Macintosh; Intel Mac OS X 10_15_7) AppleWebKit/537.36 (KHTML, like Gecko) Chrome/128.0.0.0 Safari/537.36","Macintosh","Chrome","128.0.0.0","OS X","10_15_7","https://app.prolific.com/","en-US,en;q=0.9","674d396ea5a143c1fe1ff5bc","679edb085803f58d6bbd31ca","679eeb8f5a3632dbd83c5055","","null","<img    src='G_5.jpg' height='90'> <img id='swapped'   src='G_7.jpg' height='90'> <img id='swapped'    src='G_8.jpg' height='90'> <img     src='G_2.jpg' height='90'> <img     src='G_6.jpg' height='90'> <img src='G_1.jpg' height='90'> <img src='G_3.jpg' height='90'> <img src='G_4.jpg' height='90'>","null","Animation1","",""
"","","","","","html-keyboard-response","115","372528","0.0-82.0","30","1","2025-02-02 03:50:56","bc01a2b6f61d06f6604adb8657495020","76.171.35.46","Mozilla/5.0 (Macintosh; Intel Mac OS X 10_15_7) AppleWebKit/537.36 (KHTML, like Gecko) Chrome/128.0.0.0 Safari/537.36","Macintosh","Chrome","128.0.0.0","OS X","10_15_7","https://app.prolific.com/","en-US,en;q=0.9","674d396ea5a143c1fe1ff5bc","679edb085803f58d6bbd31ca","679eeb8f5a3632dbd83c5055","","null","<img    src='G_5.jpg' height='90'> <img    src='G_7.jpg' height='90'> <img     src='G_8.jpg' height='90'> <img     src='G_2.jpg' height='90'> <img     src='G_6.jpg' height='90'> <img src='G_1.jpg' height='90'> <img src='G_3.jpg' height='90'> <img src='G_4.jpg' height='90'>","null","Animation1","",""
"","","","","","html-keyboard-response","116","373030","0.0-83.0","30","1","2025-02-02 03:50:56","bc01a2b6f61d06f6604adb8657495020","76.171.35.46","Mozilla/5.0 (Macintosh; Intel Mac OS X 10_15_7) AppleWebKit/537.36 (KHTML, like Gecko) Chrome/128.0.0.0 Safari/537.36","Macintosh","Chrome","128.0.0.0","OS X","10_15_7","https://app.prolific.com/","en-US,en;q=0.9","674d396ea5a143c1fe1ff5bc","679edb085803f58d6bbd31ca","679eeb8f5a3632dbd83c5055","","null","<img id='selected'    src='G_5.jpg' height='90'> <img    src='G_7.jpg' height='90'> <img     src='G_8.jpg' height='90'> <img     src='G_2.jpg' height='90'> <img     src='G_6.jpg' height='90'> <img src='G_1.jpg' height='90'> <img src='G_3.jpg' height='90'> <img src='G_4.jpg' height='90'>","null","Animation1","",""
"","","","","","html-keyboard-response","117","373535","0.0-84.0","30","1","2025-02-02 03:50:56","bc01a2b6f61d06f6604adb8657495020","76.171.35.46","Mozilla/5.0 (Macintosh; Intel Mac OS X 10_15_7) AppleWebKit/537.36 (KHTML, like Gecko) Chrome/128.0.0.0 Safari/537.36","Macintosh","Chrome","128.0.0.0","OS X","10_15_7","https://app.prolific.com/","en-US,en;q=0.9","674d396ea5a143c1fe1ff5bc","679edb085803f58d6bbd31ca","679eeb8f5a3632dbd83c5055","","null","<img id='selected'    src='G_5.jpg' height='90'> <img id='selected'    src='G_7.jpg' height='90'> <img     src='G_8.jpg' height='90'> <img     src='G_2.jpg' height='90'> <img     src='G_6.jpg' height='90'> <img src='G_1.jpg' height='90'> <img src='G_3.jpg' height='90'> <img src='G_4.jpg' height='90'>","null","Animation1","",""
"","","","","","html-keyboard-response","118","374039","0.0-85.0","30","1","2025-02-02 03:50:56","bc01a2b6f61d06f6604adb8657495020","76.171.35.46","Mozilla/5.0 (Macintosh; Intel Mac OS X 10_15_7) AppleWebKit/537.36 (KHTML, like Gecko) Chrome/128.0.0.0 Safari/537.36","Macintosh","Chrome","128.0.0.0","OS X","10_15_7","https://app.prolific.com/","en-US,en;q=0.9","674d396ea5a143c1fe1ff5bc","679edb085803f58d6bbd31ca","679eeb8f5a3632dbd83c5055","","null","<img id='selected'    src='G_5.jpg' height='90'> <img id='selected'    src='G_7.jpg' height='90'> <img     src='G_8.jpg' height='90'> <img     src='G_2.jpg' height='90'> <img     src='G_6.jpg' height='90'> <img src='G_1.jpg' height='90'> <img src='G_3.jpg' height='90'> <img src='G_4.jpg' height='90'>","null","Animation1","",""
"","","","","","html-keyboard-response","119","374344","0.0-86.0","30","1","2025-02-02 03:50:56","bc01a2b6f61d06f6604adb8657495020","76.171.35.46","Mozilla/5.0 (Macintosh; Intel Mac OS X 10_15_7) AppleWebKit/537.36 (KHTML, like Gecko) Chrome/128.0.0.0 Safari/537.36","Macintosh","Chrome","128.0.0.0","OS X","10_15_7","https://app.prolific.com/","en-US,en;q=0.9","674d396ea5a143c1fe1ff5bc","679edb085803f58d6bbd31ca","679eeb8f5a3632dbd83c5055","","null","<img     src='G_5.jpg' height='90'> <img     src='G_7.jpg' height='90'> <img     src='G_8.jpg' height='90'> <img     src='G_2.jpg' height='90'> <img     src='G_6.jpg' height='90'> <img src='G_1.jpg' height='90'> <img src='G_3.jpg' height='90'> <img src='G_4.jpg' height='90'>","null","Animation1","",""
"","","","","","html-keyboard-response","120","374848","0.0-87.0","30","1","2025-02-02 03:50:56","bc01a2b6f61d06f6604adb8657495020","76.171.35.46","Mozilla/5.0 (Macintosh; Intel Mac OS X 10_15_7) AppleWebKit/537.36 (KHTML, like Gecko) Chrome/128.0.0.0 Safari/537.36","Macintosh","Chrome","128.0.0.0","OS X","10_15_7","https://app.prolific.com/","en-US,en;q=0.9","674d396ea5a143c1fe1ff5bc","679edb085803f58d6bbd31ca","679eeb8f5a3632dbd83c5055","","null","<img     src='G_5.jpg' height='90'> <img     src='G_7.jpg' height='90'> <img     src='G_8.jpg' height='90'> <img     src='G_2.jpg' height='90'> <img id='selected'     src='G_6.jpg' height='90'> <img src='G_1.jpg' height='90'> <img src='G_3.jpg' height='90'> <img src='G_4.jpg' height='90'>","null","Animation1","",""
"","","","","","html-keyboard-response","121","375353","0.0-88.0","30","1","2025-02-02 03:50:56","bc01a2b6f61d06f6604adb8657495020","76.171.35.46","Mozilla/5.0 (Macintosh; Intel Mac OS X 10_15_7) AppleWebKit/537.36 (KHTML, like Gecko) Chrome/128.0.0.0 Safari/537.36","Macintosh","Chrome","128.0.0.0","OS X","10_15_7","https://app.prolific.com/","en-US,en;q=0.9","674d396ea5a143c1fe1ff5bc","679edb085803f58d6bbd31ca","679eeb8f5a3632dbd83c5055","","null","<img     src='G_5.jpg' height='90'> <img     src='G_7.jpg' height='90'> <img     src='G_8.jpg' height='90'> <img     src='G_2.jpg' height='90'> <img id='selected'     src='G_6.jpg' height='90'> <img id='selected' src='G_1.jpg' height='90'> <img src='G_3.jpg' height='90'> <img src='G_4.jpg' height='90'>","null","Animation1","",""
"","","","","","html-keyboard-response","122","375857","0.0-89.0","30","1","2025-02-02 03:50:56","bc01a2b6f61d06f6604adb8657495020","76.171.35.46","Mozilla/5.0 (Macintosh; Intel Mac OS X 10_15_7) AppleWebKit/537.36 (KHTML, like Gecko) Chrome/128.0.0.0 Safari/537.36","Macintosh","Chrome","128.0.0.0","OS X","10_15_7","https://app.prolific.com/","en-US,en;q=0.9","674d396ea5a143c1fe1ff5bc","679edb085803f58d6bbd31ca","679eeb8f5a3632dbd83c5055","","null","<img     src='G_5.jpg' height='90'> <img     src='G_7.jpg' height='90'> <img     src='G_8.jpg' height='90'> <img     src='G_2.jpg' height='90'> <img id='swapped' src='G_1.jpg' height='90'> <img id='swapped'     src='G_6.jpg' height='90'> <img src='G_3.jpg' height='90'> <img src='G_4.jpg' height='90'>","null","Animation1","",""
"","","","","","html-keyboard-response","123","376161","0.0-90.0","30","1","2025-02-02 03:50:56","bc01a2b6f61d06f6604adb8657495020","76.171.35.46","Mozilla/5.0 (Macintosh; Intel Mac OS X 10_15_7) AppleWebKit/537.36 (KHTML, like Gecko) Chrome/128.0.0.0 Safari/537.36","Macintosh","Chrome","128.0.0.0","OS X","10_15_7","https://app.prolific.com/","en-US,en;q=0.9","674d396ea5a143c1fe1ff5bc","679edb085803f58d6bbd31ca","679eeb8f5a3632dbd83c5055","","null","<img     src='G_5.jpg' height='90'> <img     src='G_7.jpg' height='90'> <img     src='G_8.jpg' height='90'> <img     src='G_2.jpg' height='90'> <img  src='G_1.jpg' height='90'> <img      src='G_6.jpg' height='90'> <img src='G_3.jpg' height='90'> <img src='G_4.jpg' height='90'>","null","Animation1","",""
"","","","","","html-keyboard-response","124","376666","0.0-91.0","30","1","2025-02-02 03:50:56","bc01a2b6f61d06f6604adb8657495020","76.171.35.46","Mozilla/5.0 (Macintosh; Intel Mac OS X 10_15_7) AppleWebKit/537.36 (KHTML, like Gecko) Chrome/128.0.0.0 Safari/537.36","Macintosh","Chrome","128.0.0.0","OS X","10_15_7","https://app.prolific.com/","en-US,en;q=0.9","674d396ea5a143c1fe1ff5bc","679edb085803f58d6bbd31ca","679eeb8f5a3632dbd83c5055","","null","<img     src='G_5.jpg' height='90'> <img     src='G_7.jpg' height='90'> <img     src='G_8.jpg' height='90'> <img id='selected'     src='G_2.jpg' height='90'> <img  src='G_1.jpg' height='90'> <img      src='G_6.jpg' height='90'> <img src='G_3.jpg' height='90'> <img src='G_4.jpg' height='90'>","null","Animation1","",""
"","","","","","html-keyboard-response","125","377170","0.0-92.0","30","1","2025-02-02 03:50:56","bc01a2b6f61d06f6604adb8657495020","76.171.35.46","Mozilla/5.0 (Macintosh; Intel Mac OS X 10_15_7) AppleWebKit/537.36 (KHTML, like Gecko) Chrome/128.0.0.0 Safari/537.36","Macintosh","Chrome","128.0.0.0","OS X","10_15_7","https://app.prolific.com/","en-US,en;q=0.9","674d396ea5a143c1fe1ff5bc","679edb085803f58d6bbd31ca","679eeb8f5a3632dbd83c5055","","null","<img     src='G_5.jpg' height='90'> <img     src='G_7.jpg' height='90'> <img     src='G_8.jpg' height='90'> <img id='selected'     src='G_2.jpg' height='90'> <img id='selected'  src='G_1.jpg' height='90'> <img      src='G_6.jpg' height='90'> <img src='G_3.jpg' height='90'> <img src='G_4.jpg' height='90'>","null","Animation1","",""
"","","","","","html-keyboard-response","126","377674","0.0-93.0","30","1","2025-02-02 03:50:56","bc01a2b6f61d06f6604adb8657495020","76.171.35.46","Mozilla/5.0 (Macintosh; Intel Mac OS X 10_15_7) AppleWebKit/537.36 (KHTML, like Gecko) Chrome/128.0.0.0 Safari/537.36","Macintosh","Chrome","128.0.0.0","OS X","10_15_7","https://app.prolific.com/","en-US,en;q=0.9","674d396ea5a143c1fe1ff5bc","679edb085803f58d6bbd31ca","679eeb8f5a3632dbd83c5055","","null","<img     src='G_5.jpg' height='90'> <img     src='G_7.jpg' height='90'> <img     src='G_8.jpg' height='90'> <img id='selected'     src='G_2.jpg' height='90'> <img id='selected'  src='G_1.jpg' height='90'> <img      src='G_6.jpg' height='90'> <img src='G_3.jpg' height='90'> <img src='G_4.jpg' height='90'>","null","Animation1","",""
"","","","","","html-keyboard-response","127","377978","0.0-94.0","30","1","2025-02-02 03:50:56","bc01a2b6f61d06f6604adb8657495020","76.171.35.46","Mozilla/5.0 (Macintosh; Intel Mac OS X 10_15_7) AppleWebKit/537.36 (KHTML, like Gecko) Chrome/128.0.0.0 Safari/537.36","Macintosh","Chrome","128.0.0.0","OS X","10_15_7","https://app.prolific.com/","en-US,en;q=0.9","674d396ea5a143c1fe1ff5bc","679edb085803f58d6bbd31ca","679eeb8f5a3632dbd83c5055","","null","<img     src='G_5.jpg' height='90'> <img     src='G_7.jpg' height='90'> <img     src='G_8.jpg' height='90'> <img      src='G_2.jpg' height='90'> <img   src='G_1.jpg' height='90'> <img      src='G_6.jpg' height='90'> <img src='G_3.jpg' height='90'> <img src='G_4.jpg' height='90'>","null","Animation1","",""
"","","","","","html-keyboard-response","128","378482","0.0-95.0","30","1","2025-02-02 03:50:56","bc01a2b6f61d06f6604adb8657495020","76.171.35.46","Mozilla/5.0 (Macintosh; Intel Mac OS X 10_15_7) AppleWebKit/537.36 (KHTML, like Gecko) Chrome/128.0.0.0 Safari/537.36","Macintosh","Chrome","128.0.0.0","OS X","10_15_7","https://app.prolific.com/","en-US,en;q=0.9","674d396ea5a143c1fe1ff5bc","679edb085803f58d6bbd31ca","679eeb8f5a3632dbd83c5055","","null","<img     src='G_5.jpg' height='90'> <img     src='G_7.jpg' height='90'> <img     src='G_8.jpg' height='90'> <img      src='G_2.jpg' height='90'> <img   src='G_1.jpg' height='90'> <img id='selected'      src='G_6.jpg' height='90'> <img src='G_3.jpg' height='90'> <img src='G_4.jpg' height='90'>","null","Animation1","",""
"","","","","","html-keyboard-response","129","378987","0.0-96.0","30","1","2025-02-02 03:50:56","bc01a2b6f61d06f6604adb8657495020","76.171.35.46","Mozilla/5.0 (Macintosh; Intel Mac OS X 10_15_7) AppleWebKit/537.36 (KHTML, like Gecko) Chrome/128.0.0.0 Safari/537.36","Macintosh","Chrome","128.0.0.0","OS X","10_15_7","https://app.prolific.com/","en-US,en;q=0.9","674d396ea5a143c1fe1ff5bc","679edb085803f58d6bbd31ca","679eeb8f5a3632dbd83c5055","","null","<img     src='G_5.jpg' height='90'> <img     src='G_7.jpg' height='90'> <img     src='G_8.jpg' height='90'> <img      src='G_2.jpg' height='90'> <img   src='G_1.jpg' height='90'> <img id='selected'      src='G_6.jpg' height='90'> <img id='selected' src='G_3.jpg' height='90'> <img src='G_4.jpg' height='90'>","null","Animation1","",""
"","","","","","html-keyboard-response","130","379492","0.0-97.0","30","1","2025-02-02 03:50:56","bc01a2b6f61d06f6604adb8657495020","76.171.35.46","Mozilla/5.0 (Macintosh; Intel Mac OS X 10_15_7) AppleWebKit/537.36 (KHTML, like Gecko) Chrome/128.0.0.0 Safari/537.36","Macintosh","Chrome","128.0.0.0","OS X","10_15_7","https://app.prolific.com/","en-US,en;q=0.9","674d396ea5a143c1fe1ff5bc","679edb085803f58d6bbd31ca","679eeb8f5a3632dbd83c5055","","null","<img     src='G_5.jpg' height='90'> <img     src='G_7.jpg' height='90'> <img     src='G_8.jpg' height='90'> <img      src='G_2.jpg' height='90'> <img   src='G_1.jpg' height='90'> <img id='selected'      src='G_6.jpg' height='90'> <img id='selected' src='G_3.jpg' height='90'> <img src='G_4.jpg' height='90'>","null","Animation1","",""
"","","","","","html-keyboard-response","131","379797","0.0-98.0","30","1","2025-02-02 03:50:56","bc01a2b6f61d06f6604adb8657495020","76.171.35.46","Mozilla/5.0 (Macintosh; Intel Mac OS X 10_15_7) AppleWebKit/537.36 (KHTML, like Gecko) Chrome/128.0.0.0 Safari/537.36","Macintosh","Chrome","128.0.0.0","OS X","10_15_7","https://app.prolific.com/","en-US,en;q=0.9","674d396ea5a143c1fe1ff5bc","679edb085803f58d6bbd31ca","679eeb8f5a3632dbd83c5055","","null","<img     src='G_5.jpg' height='90'> <img     src='G_7.jpg' height='90'> <img     src='G_8.jpg' height='90'> <img      src='G_2.jpg' height='90'> <img   src='G_1.jpg' height='90'> <img       src='G_6.jpg' height='90'> <img  src='G_3.jpg' height='90'> <img src='G_4.jpg' height='90'>","null","Animation1","",""
"","","","","","html-keyboard-response","132","380302","0.0-99.0","30","1","2025-02-02 03:50:56","bc01a2b6f61d06f6604adb8657495020","76.171.35.46","Mozilla/5.0 (Macintosh; Intel Mac OS X 10_15_7) AppleWebKit/537.36 (KHTML, like Gecko) Chrome/128.0.0.0 Safari/537.36","Macintosh","Chrome","128.0.0.0","OS X","10_15_7","https://app.prolific.com/","en-US,en;q=0.9","674d396ea5a143c1fe1ff5bc","679edb085803f58d6bbd31ca","679eeb8f5a3632dbd83c5055","","null","<img     src='G_5.jpg' height='90'> <img     src='G_7.jpg' height='90'> <img     src='G_8.jpg' height='90'> <img      src='G_2.jpg' height='90'> <img   src='G_1.jpg' height='90'> <img       src='G_6.jpg' height='90'> <img id='selected'  src='G_3.jpg' height='90'> <img src='G_4.jpg' height='90'>","null","Animation1","",""
"","","","","","html-keyboard-response","133","380807","0.0-100.0","30","1","2025-02-02 03:50:56","bc01a2b6f61d06f6604adb8657495020","76.171.35.46","Mozilla/5.0 (Macintosh; Intel Mac OS X 10_15_7) AppleWebKit/537.36 (KHTML, like Gecko) Chrome/128.0.0.0 Safari/537.36","Macintosh","Chrome","128.0.0.0","OS X","10_15_7","https://app.prolific.com/","en-US,en;q=0.9","674d396ea5a143c1fe1ff5bc","679edb085803f58d6bbd31ca","679eeb8f5a3632dbd83c5055","","null","<img     src='G_5.jpg' height='90'> <img     src='G_7.jpg' height='90'> <img     src='G_8.jpg' height='90'> <img      src='G_2.jpg' height='90'> <img   src='G_1.jpg' height='90'> <img       src='G_6.jpg' height='90'> <img id='selected'  src='G_3.jpg' height='90'> <img id='selected' src='G_4.jpg' height='90'>","null","Animation1","",""
"","","","","","html-keyboard-response","134","381312","0.0-101.0","30","1","2025-02-02 03:50:56","bc01a2b6f61d06f6604adb8657495020","76.171.35.46","Mozilla/5.0 (Macintosh; Intel Mac OS X 10_15_7) AppleWebKit/537.36 (KHTML, like Gecko) Chrome/128.0.0.0 Safari/537.36","Macintosh","Chrome","128.0.0.0","OS X","10_15_7","https://app.prolific.com/","en-US,en;q=0.9","674d396ea5a143c1fe1ff5bc","679edb085803f58d6bbd31ca","679eeb8f5a3632dbd83c5055","","null","<img     src='G_5.jpg' height='90'> <img     src='G_7.jpg' height='90'> <img     src='G_8.jpg' height='90'> <img      src='G_2.jpg' height='90'> <img   src='G_1.jpg' height='90'> <img       src='G_6.jpg' height='90'> <img id='swapped' src='G_4.jpg' height='90'> <img id='swapped'  src='G_3.jpg' height='90'>","null","Animation1","",""
"","","","","","html-keyboard-response","135","381615","0.0-102.0","30","1","2025-02-02 03:50:56","bc01a2b6f61d06f6604adb8657495020","76.171.35.46","Mozilla/5.0 (Macintosh; Intel Mac OS X 10_15_7) AppleWebKit/537.36 (KHTML, like Gecko) Chrome/128.0.0.0 Safari/537.36","Macintosh","Chrome","128.0.0.0","OS X","10_15_7","https://app.prolific.com/","en-US,en;q=0.9","674d396ea5a143c1fe1ff5bc","679edb085803f58d6bbd31ca","679eeb8f5a3632dbd83c5055","","null","<img     src='G_5.jpg' height='90'> <img     src='G_7.jpg' height='90'> <img     src='G_8.jpg' height='90'> <img      src='G_2.jpg' height='90'> <img   src='G_1.jpg' height='90'> <img       src='G_6.jpg' height='90'> <img  src='G_4.jpg' height='90'> <img   src='G_3.jpg' height='90'>","null","Animation1","",""
"","","","","","html-keyboard-response","136","382120","0.0-103.0","30","1","2025-02-02 03:50:56","bc01a2b6f61d06f6604adb8657495020","76.171.35.46","Mozilla/5.0 (Macintosh; Intel Mac OS X 10_15_7) AppleWebKit/537.36 (KHTML, like Gecko) Chrome/128.0.0.0 Safari/537.36","Macintosh","Chrome","128.0.0.0","OS X","10_15_7","https://app.prolific.com/","en-US,en;q=0.9","674d396ea5a143c1fe1ff5bc","679edb085803f58d6bbd31ca","679eeb8f5a3632dbd83c5055","","null","<img     src='G_5.jpg' height='90'> <img     src='G_7.jpg' height='90'> <img     src='G_8.jpg' height='90'> <img      src='G_2.jpg' height='90'> <img   src='G_1.jpg' height='90'> <img id='selected'       src='G_6.jpg' height='90'> <img  src='G_4.jpg' height='90'> <img   src='G_3.jpg' height='90'>","null","Animation1","",""
"","","","","","html-keyboard-response","137","382625","0.0-104.0","30","1","2025-02-02 03:50:56","bc01a2b6f61d06f6604adb8657495020","76.171.35.46","Mozilla/5.0 (Macintosh; Intel Mac OS X 10_15_7) AppleWebKit/537.36 (KHTML, like Gecko) Chrome/128.0.0.0 Safari/537.36","Macintosh","Chrome","128.0.0.0","OS X","10_15_7","https://app.prolific.com/","en-US,en;q=0.9","674d396ea5a143c1fe1ff5bc","679edb085803f58d6bbd31ca","679eeb8f5a3632dbd83c5055","","null","<img     src='G_5.jpg' height='90'> <img     src='G_7.jpg' height='90'> <img     src='G_8.jpg' height='90'> <img      src='G_2.jpg' height='90'> <img   src='G_1.jpg' height='90'> <img id='selected'       src='G_6.jpg' height='90'> <img id='selected'  src='G_4.jpg' height='90'> <img   src='G_3.jpg' height='90'>","null","Animation1","",""
"","","","","","html-keyboard-response","138","383130","0.0-105.0","30","1","2025-02-02 03:50:56","bc01a2b6f61d06f6604adb8657495020","76.171.35.46","Mozilla/5.0 (Macintosh; Intel Mac OS X 10_15_7) AppleWebKit/537.36 (KHTML, like Gecko) Chrome/128.0.0.0 Safari/537.36","Macintosh","Chrome","128.0.0.0","OS X","10_15_7","https://app.prolific.com/","en-US,en;q=0.9","674d396ea5a143c1fe1ff5bc","679edb085803f58d6bbd31ca","679eeb8f5a3632dbd83c5055","","null","<img     src='G_5.jpg' height='90'> <img     src='G_7.jpg' height='90'> <img     src='G_8.jpg' height='90'> <img      src='G_2.jpg' height='90'> <img   src='G_1.jpg' height='90'> <img id='selected'       src='G_6.jpg' height='90'> <img id='selected'  src='G_4.jpg' height='90'> <img   src='G_3.jpg' height='90'>","null","Animation1","",""
"","","","","","html-keyboard-response","139","383435","0.0-106.0","30","1","2025-02-02 03:50:56","bc01a2b6f61d06f6604adb8657495020","76.171.35.46","Mozilla/5.0 (Macintosh; Intel Mac OS X 10_15_7) AppleWebKit/537.36 (KHTML, like Gecko) Chrome/128.0.0.0 Safari/537.36","Macintosh","Chrome","128.0.0.0","OS X","10_15_7","https://app.prolific.com/","en-US,en;q=0.9","674d396ea5a143c1fe1ff5bc","679edb085803f58d6bbd31ca","679eeb8f5a3632dbd83c5055","","null","<img     src='G_5.jpg' height='90'> <img     src='G_7.jpg' height='90'> <img     src='G_8.jpg' height='90'> <img      src='G_2.jpg' height='90'> <img   src='G_1.jpg' height='90'> <img        src='G_6.jpg' height='90'> <img   src='G_4.jpg' height='90'> <img   src='G_3.jpg' height='90'>","null","Animation1","",""
"","","","","","html-keyboard-response","140","388271","0.0-107.0","30","1","2025-02-02 03:50:56","bc01a2b6f61d06f6604adb8657495020","76.171.35.46","Mozilla/5.0 (Macintosh; Intel Mac OS X 10_15_7) AppleWebKit/537.36 (KHTML, like Gecko) Chrome/128.0.0.0 Safari/537.36","Macintosh","Chrome","128.0.0.0","OS X","10_15_7","https://app.prolific.com/","en-US,en;q=0.9","674d396ea5a143c1fe1ff5bc","679edb085803f58d6bbd31ca","679eeb8f5a3632dbd83c5055","","4835","[""Did you notice any patterns? <br><br>Press Enter to watch that example again and follow the steps of Omgne Sort.""]","enter","","",""
"","","","","","html-button-response","141","388677","0.0-108.0","30","1","2025-02-02 03:50:56","bc01a2b6f61d06f6604adb8657495020","76.171.35.46","Mozilla/5.0 (Macintosh; Intel Mac OS X 10_15_7) AppleWebKit/537.36 (KHTML, like Gecko) Chrome/128.0.0.0 Safari/537.36","Macintosh","Chrome","128.0.0.0","OS X","10_15_7","https://app.prolific.com/","en-US,en;q=0.9","674d396ea5a143c1fe1ff5bc","679edb085803f58d6bbd31ca","679eeb8f5a3632dbd83c5055","","null","<img id='selected' src='G_2.jpg' height='90'> <img src='G_6.jpg' height='90'> <img src='G_8.jpg' height='90'> <img src='G_5.jpg' height='90'> <img src='G_7.jpg' height='90'> <img src='G_1.jpg' height='90'> <img src='G_3.jpg' height='90'> <img src='G_4.jpg' height='90'>","null","Learning example 1","",""
"","","","","","html-button-response","142","388983","0.0-109.0","30","1","2025-02-02 03:50:56","bc01a2b6f61d06f6604adb8657495020","76.171.35.46","Mozilla/5.0 (Macintosh; Intel Mac OS X 10_15_7) AppleWebKit/537.36 (KHTML, like Gecko) Chrome/128.0.0.0 Safari/537.36","Macintosh","Chrome","128.0.0.0","OS X","10_15_7","https://app.prolific.com/","en-US,en;q=0.9","674d396ea5a143c1fe1ff5bc","679edb085803f58d6bbd31ca","679eeb8f5a3632dbd83c5055","","null","<img id='selected' src='G_2.jpg' height='90'> <img id='selected' src='G_6.jpg' height='90'> <img src='G_8.jpg' height='90'> <img src='G_5.jpg' height='90'> <img src='G_7.jpg' height='90'> <img src='G_1.jpg' height='90'> <img src='G_3.jpg' height='90'> <img src='G_4.jpg' height='90'>","null","Learning example 1","",""
"","","","","","html-button-response","143","389289","0.0-110.0","30","1","2025-02-02 03:50:56","bc01a2b6f61d06f6604adb8657495020","76.171.35.46","Mozilla/5.0 (Macintosh; Intel Mac OS X 10_15_7) AppleWebKit/537.36 (KHTML, like Gecko) Chrome/128.0.0.0 Safari/537.36","Macintosh","Chrome","128.0.0.0","OS X","10_15_7","https://app.prolific.com/","en-US,en;q=0.9","674d396ea5a143c1fe1ff5bc","679edb085803f58d6bbd31ca","679eeb8f5a3632dbd83c5055","","null","<img id='selected' src='G_2.jpg' height='90'> <img id='selected' src='G_6.jpg' height='90'> <img src='G_8.jpg' height='90'> <img src='G_5.jpg' height='90'> <img src='G_7.jpg' height='90'> <img src='G_1.jpg' height='90'> <img src='G_3.jpg' height='90'> <img src='G_4.jpg' height='90'>","null","Learning example 1","",""
