"success","timeout","failed_images","failed_audio","failed_video","trial_type","trial_index","time_elapsed","internal_node_id","run_id","condition","recorded_at","source_code_version","ip","user_agent","device","browser","browser_version","platform","platform_version","referer","accept_language","PROLIFIC_PID","STUDY_ID","SESSION_ID","view_history","rt","stimulus","response","phase","question_order","presented_choices"
"true","false","[]","[]","[]","preload","0","972","0.0-0.0","31","1","2025-02-02 03:52:46","bc01a2b6f61d06f6604adb8657495020","75.203.11.166","Mozilla/5.0 (Windows NT 10.0; Win64; x64) AppleWebKit/537.36 (KHTML, like Gecko) Chrome/132.0.0.0 Safari/537.36","WebKit","Chrome","132.0.0.0","Windows","10.0","https://app.prolific.com/","en-US,en;q=0.9","5d5580165514d80017cd1999","679edb085803f58d6bbd31ca","679eebfd07399d1264e227d4","","","","","","",""
"","","","","","instructions","1","303012","0.0-1.0","31","1","2025-02-02 03:52:46","bc01a2b6f61d06f6604adb8657495020","75.203.11.166","Mozilla/5.0 (Windows NT 10.0; Win64; x64) AppleWebKit/537.36 (KHTML, like Gecko) Chrome/132.0.0.0 Safari/537.36","WebKit","Chrome","132.0.0.0","Windows","10.0","https://app.prolific.com/","en-US,en;q=0.9","5d5580165514d80017cd1999","679edb085803f58d6bbd31ca","679eebfd07399d1264e227d4","[{""page_index"":0,""viewing_time"":302035}]","302037","","","","",""
"","","","","","html-keyboard-response","2","303529","0.0-2.0","31","1","2025-02-02 03:52:46","bc01a2b6f61d06f6604adb8657495020","75.203.11.166","Mozilla/5.0 (Windows NT 10.0; Win64; x64) AppleWebKit/537.36 (KHTML, like Gecko) Chrome/132.0.0.0 Safari/537.36","WebKit","Chrome","132.0.0.0","Windows","10.0","https://app.prolific.com/","en-US,en;q=0.9","5d5580165514d80017cd1999","679edb085803f58d6bbd31ca","679eebfd07399d1264e227d4","","null","<p> + <p/>","null","","",""
"","","","","","instructions","3","335824","0.0-3.0","31","1","2025-02-02 03:52:46","bc01a2b6f61d06f6604adb8657495020","75.203.11.166","Mozilla/5.0 (Windows NT 10.0; Win64; x64) AppleWebKit/537.36 (KHTML, like Gecko) Chrome/132.0.0.0 Safari/537.36","WebKit","Chrome","132.0.0.0","Windows","10.0","https://app.prolific.com/","en-US,en;q=0.9","5d5580165514d80017cd1999","679edb085803f58d6bbd31ca","679eebfd07399d1264e227d4","[{""page_index"":0,""viewing_time"":2555},{""page_index"":1,""viewing_time"":10596},{""page_index"":2,""viewing_time"":7687},{""page_index"":3,""viewing_time"":4709},{""page_index"":4,""viewing_time"":6745}]","32292","","","","",""
"","","","","","html-button-response","4","357865","0.0-4.0-0.0-0.0","31","1","2025-02-02 03:52:46","bc01a2b6f61d06f6604adb8657495020","75.203.11.166","Mozilla/5.0 (Windows NT 10.0; Win64; x64) AppleWebKit/537.36 (KHTML, like Gecko) Chrome/132.0.0.0 Safari/537.36","WebKit","Chrome","132.0.0.0","Windows","10.0","https://app.prolific.com/","en-US,en;q=0.9","5d5580165514d80017cd1999","679edb085803f58d6bbd31ca","679eebfd07399d1264e227d4","","22039","","2","Intro Trial","",""
"","","","","","html-button-response","5","358709","0.0-4.1-0.1-0.1","31","1","2025-02-02 03:52:46","bc01a2b6f61d06f6604adb8657495020","75.203.11.166","Mozilla/5.0 (Windows NT 10.0; Win64; x64) AppleWebKit/537.36 (KHTML, like Gecko) Chrome/132.0.0.0 Safari/537.36","WebKit","Chrome","132.0.0.0","Windows","10.0","https://app.prolific.com/","en-US,en;q=0.9","5d5580165514d80017cd1999","679edb085803f58d6bbd31ca","679eebfd07399d1264e227d4","","841","","3","Intro Trial","",""
"","","","","","html-button-response","6","360056","0.0-4.2-0.2-0.2","31","1","2025-02-02 03:52:46","bc01a2b6f61d06f6604adb8657495020","75.203.11.166","Mozilla/5.0 (Windows NT 10.0; Win64; x64) AppleWebKit/537.36 (KHTML, like Gecko) Chrome/132.0.0.0 Safari/537.36","WebKit","Chrome","132.0.0.0","Windows","10.0","https://app.prolific.com/","en-US,en;q=0.9","5d5580165514d80017cd1999","679edb085803f58d6bbd31ca","679eebfd07399d1264e227d4","","1344","","2","Intro Trial","",""
"","","","","","html-button-response","7","360773","0.0-4.3-0.3-0.3","31","1","2025-02-02 03:52:46","bc01a2b6f61d06f6604adb8657495020","75.203.11.166","Mozilla/5.0 (Windows NT 10.0; Win64; x64) AppleWebKit/537.36 (KHTML, like Gecko) Chrome/132.0.0.0 Safari/537.36","WebKit","Chrome","132.0.0.0","Windows","10.0","https://app.prolific.com/","en-US,en;q=0.9","5d5580165514d80017cd1999","679edb085803f58d6bbd31ca","679eebfd07399d1264e227d4","","716","","3","Intro Trial","",""
"","","","","","html-button-response","8","361823","0.0-4.4-0.4-0.4","31","1","2025-02-02 03:52:46","bc01a2b6f61d06f6604adb8657495020","75.203.11.166","Mozilla/5.0 (Windows NT 10.0; Win64; x64) AppleWebKit/537.36 (KHTML, like Gecko) Chrome/132.0.0.0 Safari/537.36","WebKit","Chrome","132.0.0.0","Windows","10.0","https://app.prolific.com/","en-US,en;q=0.9","5d5580165514d80017cd1999","679edb085803f58d6bbd31ca","679eebfd07399d1264e227d4","","1048","","2","Intro Trial","",""
"","","","","","html-button-response","9","363306","0.0-4.5-0.5-0.5","31","1","2025-02-02 03:52:46","bc01a2b6f61d06f6604adb8657495020","75.203.11.166","Mozilla/5.0 (Windows NT 10.0; Win64; x64) AppleWebKit/537.36 (KHTML, like Gecko) Chrome/132.0.0.0 Safari/537.36","WebKit","Chrome","132.0.0.0","Windows","10.0","https://app.prolific.com/","en-US,en;q=0.9","5d5580165514d80017cd1999","679edb085803f58d6bbd31ca","679eebfd07399d1264e227d4","","1481","","3","Intro Trial","",""
"","","","","","html-button-response","10","364652","0.0-4.6-0.6-0.6","31","1","2025-02-02 03:52:46","bc01a2b6f61d06f6604adb8657495020","75.203.11.166","Mozilla/5.0 (Windows NT 10.0; Win64; x64) AppleWebKit/537.36 (KHTML, like Gecko) Chrome/132.0.0.0 Safari/537.36","WebKit","Chrome","132.0.0.0","Windows","10.0","https://app.prolific.com/","en-US,en;q=0.9","5d5580165514d80017cd1999","679edb085803f58d6bbd31ca","679eebfd07399d1264e227d4","","1344","","2","Intro Trial","",""
"","","","","","html-button-response","11","366212","0.0-4.7-0.7-0.7","31","1","2025-02-02 03:52:46","bc01a2b6f61d06f6604adb8657495020","75.203.11.166","Mozilla/5.0 (Windows NT 10.0; Win64; x64) AppleWebKit/537.36 (KHTML, like Gecko) Chrome/132.0.0.0 Safari/537.36","WebKit","Chrome","132.0.0.0","Windows","10.0","https://app.prolific.com/","en-US,en;q=0.9","5d5580165514d80017cd1999","679edb085803f58d6bbd31ca","679eebfd07399d1264e227d4","","1558","","3","Intro Trial","",""
"","","","","","html-button-response","12","367489","0.0-4.8-0.8-0.8","31","1","2025-02-02 03:52:46","bc01a2b6f61d06f6604adb8657495020","75.203.11.166","Mozilla/5.0 (Windows NT 10.0; Win64; x64) AppleWebKit/537.36 (KHTML, like Gecko) Chrome/132.0.0.0 Safari/537.36","WebKit","Chrome","132.0.0.0","Windows","10.0","https://app.prolific.com/","en-US,en;q=0.9","5d5580165514d80017cd1999","679edb085803f58d6bbd31ca","679eebfd07399d1264e227d4","","1275","","2","Intro Trial","",""
"","","","","","html-button-response","13","368227","0.0-4.9-0.9-0.9","31","1","2025-02-02 03:52:46","bc01a2b6f61d06f6604adb8657495020","75.203.11.166","Mozilla/5.0 (Windows NT 10.0; Win64; x64) AppleWebKit/537.36 (KHTML, like Gecko) Chrome/132.0.0.0 Safari/537.36","WebKit","Chrome","132.0.0.0","Windows","10.0","https://app.prolific.com/","en-US,en;q=0.9","5d5580165514d80017cd1999","679edb085803f58d6bbd31ca","679eebfd07399d1264e227d4","","735","","0","Intro Trial","",""
"","","","","","html-button-response","14","368944","0.0-4.10-0.10-0.10","31","1","2025-02-02 03:52:46","bc01a2b6f61d06f6604adb8657495020","75.203.11.166","Mozilla/5.0 (Windows NT 10.0; Win64; x64) AppleWebKit/537.36 (KHTML, like Gecko) Chrome/132.0.0.0 Safari/537.36","WebKit","Chrome","132.0.0.0","Windows","10.0","https://app.prolific.com/","en-US,en;q=0.9","5d5580165514d80017cd1999","679edb085803f58d6bbd31ca","679eebfd07399d1264e227d4","","715","","1","Intro Trial","",""
"","","","","","html-button-response","15","370152","0.0-4.11-0.11-0.11","31","1","2025-02-02 03:52:46","bc01a2b6f61d06f6604adb8657495020","75.203.11.166","Mozilla/5.0 (Windows NT 10.0; Win64; x64) AppleWebKit/537.36 (KHTML, like Gecko) Chrome/132.0.0.0 Safari/537.36","WebKit","Chrome","132.0.0.0","Windows","10.0","https://app.prolific.com/","en-US,en;q=0.9","5d5580165514d80017cd1999","679edb085803f58d6bbd31ca","679eebfd07399d1264e227d4","","1206","","0","Intro Trial","",""
"","","","","","html-button-response","16","372674","0.0-4.12-0.12-0.12","31","1","2025-02-02 03:52:46","bc01a2b6f61d06f6604adb8657495020","75.203.11.166","Mozilla/5.0 (Windows NT 10.0; Win64; x64) AppleWebKit/537.36 (KHTML, like Gecko) Chrome/132.0.0.0 Safari/537.36","WebKit","Chrome","132.0.0.0","Windows","10.0","https://app.prolific.com/","en-US,en;q=0.9","5d5580165514d80017cd1999","679edb085803f58d6bbd31ca","679eebfd07399d1264e227d4","","2519","","2","Intro Trial","",""
"","","","","","html-button-response","17","373403","0.0-4.13-0.13-0.13","31","1","2025-02-02 03:52:46","bc01a2b6f61d06f6604adb8657495020","75.203.11.166","Mozilla/5.0 (Windows NT 10.0; Win64; x64) AppleWebKit/537.36 (KHTML, like Gecko) Chrome/132.0.0.0 Safari/537.36","WebKit","Chrome","132.0.0.0","Windows","10.0","https://app.prolific.com/","en-US,en;q=0.9","5d5580165514d80017cd1999","679edb085803f58d6bbd31ca","679eebfd07399d1264e227d4","","727","","3","Intro Trial","",""
"","","","","","html-button-response","18","374935","0.0-4.14-0.14-0.14","31","1","2025-02-02 03:52:46","bc01a2b6f61d06f6604adb8657495020","75.203.11.166","Mozilla/5.0 (Windows NT 10.0; Win64; x64) AppleWebKit/537.36 (KHTML, like Gecko) Chrome/132.0.0.0 Safari/537.36","WebKit","Chrome","132.0.0.0","Windows","10.0","https://app.prolific.com/","en-US,en;q=0.9","5d5580165514d80017cd1999","679edb085803f58d6bbd31ca","679eebfd07399d1264e227d4","","1530","","1","Intro Trial","",""
"","","","","","html-button-response","19","375858","0.0-4.15-0.15-0.15","31","1","2025-02-02 03:52:46","bc01a2b6f61d06f6604adb8657495020","75.203.11.166","Mozilla/5.0 (Windows NT 10.0; Win64; x64) AppleWebKit/537.36 (KHTML, like Gecko) Chrome/132.0.0.0 Safari/537.36","WebKit","Chrome","132.0.0.0","Windows","10.0","https://app.prolific.com/","en-US,en;q=0.9","5d5580165514d80017cd1999","679edb085803f58d6bbd31ca","679eebfd07399d1264e227d4","","921","","4","Intro Trial","",""
"","","","","","html-button-response","20","378530","0.0-4.16-0.16-0.16","31","1","2025-02-02 03:52:46","bc01a2b6f61d06f6604adb8657495020","75.203.11.166","Mozilla/5.0 (Windows NT 10.0; Win64; x64) AppleWebKit/537.36 (KHTML, like Gecko) Chrome/132.0.0.0 Safari/537.36","WebKit","Chrome","132.0.0.0","Windows","10.0","https://app.prolific.com/","en-US,en;q=0.9","5d5580165514d80017cd1999","679edb085803f58d6bbd31ca","679eebfd07399d1264e227d4","","2670","","1","Intro Trial","",""
"","","","","","html-button-response","21","379149","0.0-4.17-0.17-0.17","31","1","2025-02-02 03:52:46","bc01a2b6f61d06f6604adb8657495020","75.203.11.166","Mozilla/5.0 (Windows NT 10.0; Win64; x64) AppleWebKit/537.36 (KHTML, like Gecko) Chrome/132.0.0.0 Safari/537.36","WebKit","Chrome","132.0.0.0","Windows","10.0","https://app.prolific.com/","en-US,en;q=0.9","5d5580165514d80017cd1999","679edb085803f58d6bbd31ca","679eebfd07399d1264e227d4","","617","","2","Intro Trial","",""
"","","","","","html-button-response","22","380171","0.0-4.18-0.18-0.18","31","1","2025-02-02 03:52:46","bc01a2b6f61d06f6604adb8657495020","75.203.11.166","Mozilla/5.0 (Windows NT 10.0; Win64; x64) AppleWebKit/537.36 (KHTML, like Gecko) Chrome/132.0.0.0 Safari/537.36","WebKit","Chrome","132.0.0.0","Windows","10.0","https://app.prolific.com/","en-US,en;q=0.9","5d5580165514d80017cd1999","679edb085803f58d6bbd31ca","679eebfd07399d1264e227d4","","1020","","2","Intro Trial","",""
"","","","","","html-button-response","23","380691","0.0-4.19-0.19-0.19","31","1","2025-02-02 03:52:46","bc01a2b6f61d06f6604adb8657495020","75.203.11.166","Mozilla/5.0 (Windows NT 10.0; Win64; x64) AppleWebKit/537.36 (KHTML, like Gecko) Chrome/132.0.0.0 Safari/537.36","WebKit","Chrome","132.0.0.0","Windows","10.0","https://app.prolific.com/","en-US,en;q=0.9","5d5580165514d80017cd1999","679edb085803f58d6bbd31ca","679eebfd07399d1264e227d4","","518","","3","Intro Trial","",""
"","","","","","html-button-response","24","381634","0.0-4.20-0.20-0.20","31","1","2025-02-02 03:52:46","bc01a2b6f61d06f6604adb8657495020","75.203.11.166","Mozilla/5.0 (Windows NT 10.0; Win64; x64) AppleWebKit/537.36 (KHTML, like Gecko) Chrome/132.0.0.0 Safari/537.36","WebKit","Chrome","132.0.0.0","Windows","10.0","https://app.prolific.com/","en-US,en;q=0.9","5d5580165514d80017cd1999","679edb085803f58d6bbd31ca","679eebfd07399d1264e227d4","","940","","0","Intro Trial","",""
"","","","","","html-button-response","25","382734","0.0-4.21-0.21-0.21","31","1","2025-02-02 03:52:46","bc01a2b6f61d06f6604adb8657495020","75.203.11.166","Mozilla/5.0 (Windows NT 10.0; Win64; x64) AppleWebKit/537.36 (KHTML, like Gecko) Chrome/132.0.0.0 Safari/537.36","WebKit","Chrome","132.0.0.0","Windows","10.0","https://app.prolific.com/","en-US,en;q=0.9","5d5580165514d80017cd1999","679edb085803f58d6bbd31ca","679eebfd07399d1264e227d4","","1097","","4","Intro Trial","",""
"","","","","","html-button-response","26","386672","0.0-4.22-0.22-0.22","31","1","2025-02-02 03:52:46","bc01a2b6f61d06f6604adb8657495020","75.203.11.166","Mozilla/5.0 (Windows NT 10.0; Win64; x64) AppleWebKit/537.36 (KHTML, like Gecko) Chrome/132.0.0.0 Safari/537.36","WebKit","Chrome","132.0.0.0","Windows","10.0","https://app.prolific.com/","en-US,en;q=0.9","5d5580165514d80017cd1999","679edb085803f58d6bbd31ca","679eebfd07399d1264e227d4","","3937","","0","Intro Trial","",""
"","","","","","html-button-response","27","387655","0.0-4.23-0.23-0.23","31","1","2025-02-02 03:52:46","bc01a2b6f61d06f6604adb8657495020","75.203.11.166","Mozilla/5.0 (Windows NT 10.0; Win64; x64) AppleWebKit/537.36 (KHTML, like Gecko) Chrome/132.0.0.0 Safari/537.36","WebKit","Chrome","132.0.0.0","Windows","10.0","https://app.prolific.com/","en-US,en;q=0.9","5d5580165514d80017cd1999","679edb085803f58d6bbd31ca","679eebfd07399d1264e227d4","","980","","3","Intro Trial","",""
"","","","","","html-button-response","28","388510","0.0-4.24-0.24-0.24","31","1","2025-02-02 03:52:46","bc01a2b6f61d06f6604adb8657495020","75.203.11.166","Mozilla/5.0 (Windows NT 10.0; Win64; x64) AppleWebKit/537.36 (KHTML, like Gecko) Chrome/132.0.0.0 Safari/537.36","WebKit","Chrome","132.0.0.0","Windows","10.0","https://app.prolific.com/","en-US,en;q=0.9","5d5580165514d80017cd1999","679edb085803f58d6bbd31ca","679eebfd07399d1264e227d4","","853","","5","Intro Trial","",""
"","","","","","html-keyboard-response","29","398242","0.0-5.0","31","1","2025-02-02 03:52:46","bc01a2b6f61d06f6604adb8657495020","75.203.11.166","Mozilla/5.0 (Windows NT 10.0; Win64; x64) AppleWebKit/537.36 (KHTML, like Gecko) Chrome/132.0.0.0 Safari/537.36","WebKit","Chrome","132.0.0.0","Windows","10.0","https://app.prolific.com/","en-US,en;q=0.9","5d5580165514d80017cd1999","679edb085803f58d6bbd31ca","679eebfd07399d1264e227d4","","9728","[""You sorted incorrectly by using the balance 12 times. <br><br> <img src='G_2.jpg' height='90'><img src='G_5.jpg' height='90'><img src='G_1.jpg' height='90'><img src='G_4.jpg' height='90'><img src='G_3.jpg' height='90'><br><br> Your final order is 2,1,4,5,3<br><br><br>Omgne Sort in this game will allow you to sort correctly by using the balance 8 times. Press Enter to learn it!""]","shift","","",""
"","","","","","html-keyboard-response","30","401811","0.0-6.0","31","1","2025-02-02 03:52:46","bc01a2b6f61d06f6604adb8657495020","75.203.11.166","Mozilla/5.0 (Windows NT 10.0; Win64; x64) AppleWebKit/537.36 (KHTML, like Gecko) Chrome/132.0.0.0 Safari/537.36","WebKit","Chrome","132.0.0.0","Windows","10.0","https://app.prolific.com/","en-US,en;q=0.9","5d5580165514d80017cd1999","679edb085803f58d6bbd31ca","679eebfd07399d1264e227d4","","3564","<p>Welcome to the learning phase! <br><br> You will learn by six examples. The following learning trials will not be used to calculate your performance. <br><br> Press Enter to continue.<p/>","enter","","",""
"","","","","","html-keyboard-response","31","406023","0.0-7.0","31","1","2025-02-02 03:52:46","bc01a2b6f61d06f6604adb8657495020","75.203.11.166","Mozilla/5.0 (Windows NT 10.0; Win64; x64) AppleWebKit/537.36 (KHTML, like Gecko) Chrome/132.0.0.0 Safari/537.36","WebKit","Chrome","132.0.0.0","Windows","10.0","https://app.prolific.com/","en-US,en;q=0.9","5d5580165514d80017cd1999","679edb085803f58d6bbd31ca","679eebfd07399d1264e227d4","","4210","[""Example 1<br><br>You will watch Omnge Sort in action. Try to identify any patterns in the comparisons made by this method. <br><br>Press Enter to continue.""]","enter","","",""
"","","","","","html-keyboard-response","32","406535","0.0-8.0","31","1","2025-02-02 03:52:46","bc01a2b6f61d06f6604adb8657495020","75.203.11.166","Mozilla/5.0 (Windows NT 10.0; Win64; x64) AppleWebKit/537.36 (KHTML, like Gecko) Chrome/132.0.0.0 Safari/537.36","WebKit","Chrome","132.0.0.0","Windows","10.0","https://app.prolific.com/","en-US,en;q=0.9","5d5580165514d80017cd1999","679edb085803f58d6bbd31ca","679eebfd07399d1264e227d4","","null","<img id='selected' src='G_1.jpg' height='90'> <img src='G_9.jpg' height='90'> <img src='G_3.jpg' height='90'> <img src='G_7.jpg' height='90'> <img src='G_5.jpg' height='90'>","null","Animation0","",""
"","","","","","html-keyboard-response","33","407051","0.0-9.0","31","1","2025-02-02 03:52:46","bc01a2b6f61d06f6604adb8657495020","75.203.11.166","Mozilla/5.0 (Windows NT 10.0; Win64; x64) AppleWebKit/537.36 (KHTML, like Gecko) Chrome/132.0.0.0 Safari/537.36","WebKit","Chrome","132.0.0.0","Windows","10.0","https://app.prolific.com/","en-US,en;q=0.9","5d5580165514d80017cd1999","679edb085803f58d6bbd31ca","679eebfd07399d1264e227d4","","null","<img id='selected' src='G_1.jpg' height='90'> <img id='selected' src='G_9.jpg' height='90'> <img src='G_3.jpg' height='90'> <img src='G_7.jpg' height='90'> <img src='G_5.jpg' height='90'>","null","Animation0","",""
"","","","","","html-keyboard-response","34","407564","0.0-10.0","31","1","2025-02-02 03:52:46","bc01a2b6f61d06f6604adb8657495020","75.203.11.166","Mozilla/5.0 (Windows NT 10.0; Win64; x64) AppleWebKit/537.36 (KHTML, like Gecko) Chrome/132.0.0.0 Safari/537.36","WebKit","Chrome","132.0.0.0","Windows","10.0","https://app.prolific.com/","en-US,en;q=0.9","5d5580165514d80017cd1999","679edb085803f58d6bbd31ca","679eebfd07399d1264e227d4","","null","<img id='swapped' src='G_9.jpg' height='90'> <img id='swapped' src='G_1.jpg' height='90'> <img src='G_3.jpg' height='90'> <img src='G_7.jpg' height='90'> <img src='G_5.jpg' height='90'>","null","Animation0","",""
"","","","","","html-keyboard-response","35","407876","0.0-11.0","31","1","2025-02-02 03:52:46","bc01a2b6f61d06f6604adb8657495020","75.203.11.166","Mozilla/5.0 (Windows NT 10.0; Win64; x64) AppleWebKit/537.36 (KHTML, like Gecko) Chrome/132.0.0.0 Safari/537.36","WebKit","Chrome","132.0.0.0","Windows","10.0","https://app.prolific.com/","en-US,en;q=0.9","5d5580165514d80017cd1999","679edb085803f58d6bbd31ca","679eebfd07399d1264e227d4","","null","<img  src='G_9.jpg' height='90'> <img  src='G_1.jpg' height='90'> <img src='G_3.jpg' height='90'> <img src='G_7.jpg' height='90'> <img src='G_5.jpg' height='90'>","null","Animation0","",""
"","","","","","html-keyboard-response","36","408389","0.0-12.0","31","1","2025-02-02 03:52:46","bc01a2b6f61d06f6604adb8657495020","75.203.11.166","Mozilla/5.0 (Windows NT 10.0; Win64; x64) AppleWebKit/537.36 (KHTML, like Gecko) Chrome/132.0.0.0 Safari/537.36","WebKit","Chrome","132.0.0.0","Windows","10.0","https://app.prolific.com/","en-US,en;q=0.9","5d5580165514d80017cd1999","679edb085803f58d6bbd31ca","679eebfd07399d1264e227d4","","null","<img  src='G_9.jpg' height='90'> <img id='selected'  src='G_1.jpg' height='90'> <img src='G_3.jpg' height='90'> <img src='G_7.jpg' height='90'> <img src='G_5.jpg' height='90'>","null","Animation0","",""
"","","","","","html-keyboard-response","37","408900","0.0-13.0","31","1","2025-02-02 03:52:46","bc01a2b6f61d06f6604adb8657495020","75.203.11.166","Mozilla/5.0 (Windows NT 10.0; Win64; x64) AppleWebKit/537.36 (KHTML, like Gecko) Chrome/132.0.0.0 Safari/537.36","WebKit","Chrome","132.0.0.0","Windows","10.0","https://app.prolific.com/","en-US,en;q=0.9","5d5580165514d80017cd1999","679edb085803f58d6bbd31ca","679eebfd07399d1264e227d4","","null","<img  src='G_9.jpg' height='90'> <img id='selected'  src='G_1.jpg' height='90'> <img id='selected' src='G_3.jpg' height='90'> <img src='G_7.jpg' height='90'> <img src='G_5.jpg' height='90'>","null","Animation0","",""
"","","","","","html-keyboard-response","38","409415","0.0-14.0","31","1","2025-02-02 03:52:46","bc01a2b6f61d06f6604adb8657495020","75.203.11.166","Mozilla/5.0 (Windows NT 10.0; Win64; x64) AppleWebKit/537.36 (KHTML, like Gecko) Chrome/132.0.0.0 Safari/537.36","WebKit","Chrome","132.0.0.0","Windows","10.0","https://app.prolific.com/","en-US,en;q=0.9","5d5580165514d80017cd1999","679edb085803f58d6bbd31ca","679eebfd07399d1264e227d4","","null","<img  src='G_9.jpg' height='90'> <img id='selected'  src='G_1.jpg' height='90'> <img id='selected' src='G_3.jpg' height='90'> <img src='G_7.jpg' height='90'> <img src='G_5.jpg' height='90'>","null","Animation0","",""
"","","","","","html-keyboard-response","39","409726","0.0-15.0","31","1","2025-02-02 03:52:46","bc01a2b6f61d06f6604adb8657495020","75.203.11.166","Mozilla/5.0 (Windows NT 10.0; Win64; x64) AppleWebKit/537.36 (KHTML, like Gecko) Chrome/132.0.0.0 Safari/537.36","WebKit","Chrome","132.0.0.0","Windows","10.0","https://app.prolific.com/","en-US,en;q=0.9","5d5580165514d80017cd1999","679edb085803f58d6bbd31ca","679eebfd07399d1264e227d4","","null","<img  src='G_9.jpg' height='90'> <img   src='G_1.jpg' height='90'> <img  src='G_3.jpg' height='90'> <img src='G_7.jpg' height='90'> <img src='G_5.jpg' height='90'>","null","Animation0","",""
"","","","","","html-keyboard-response","40","410240","0.0-16.0","31","1","2025-02-02 03:52:46","bc01a2b6f61d06f6604adb8657495020","75.203.11.166","Mozilla/5.0 (Windows NT 10.0; Win64; x64) AppleWebKit/537.36 (KHTML, like Gecko) Chrome/132.0.0.0 Safari/537.36","WebKit","Chrome","132.0.0.0","Windows","10.0","https://app.prolific.com/","en-US,en;q=0.9","5d5580165514d80017cd1999","679edb085803f58d6bbd31ca","679eebfd07399d1264e227d4","","null","<img  src='G_9.jpg' height='90'> <img   src='G_1.jpg' height='90'> <img id='selected'  src='G_3.jpg' height='90'> <img src='G_7.jpg' height='90'> <img src='G_5.jpg' height='90'>","null","Animation0","",""
"","","","","","html-keyboard-response","41","410751","0.0-17.0","31","1","2025-02-02 03:52:46","bc01a2b6f61d06f6604adb8657495020","75.203.11.166","Mozilla/5.0 (Windows NT 10.0; Win64; x64) AppleWebKit/537.36 (KHTML, like Gecko) Chrome/132.0.0.0 Safari/537.36","WebKit","Chrome","132.0.0.0","Windows","10.0","https://app.prolific.com/","en-US,en;q=0.9","5d5580165514d80017cd1999","679edb085803f58d6bbd31ca","679eebfd07399d1264e227d4","","null","<img  src='G_9.jpg' height='90'> <img   src='G_1.jpg' height='90'> <img id='selected'  src='G_3.jpg' height='90'> <img id='selected' src='G_7.jpg' height='90'> <img src='G_5.jpg' height='90'>","null","Animation0","",""
"","","","","","html-keyboard-response","42","411260","0.0-18.0","31","1","2025-02-02 03:52:46","bc01a2b6f61d06f6604adb8657495020","75.203.11.166","Mozilla/5.0 (Windows NT 10.0; Win64; x64) AppleWebKit/537.36 (KHTML, like Gecko) Chrome/132.0.0.0 Safari/537.36","WebKit","Chrome","132.0.0.0","Windows","10.0","https://app.prolific.com/","en-US,en;q=0.9","5d5580165514d80017cd1999","679edb085803f58d6bbd31ca","679eebfd07399d1264e227d4","","null","<img  src='G_9.jpg' height='90'> <img   src='G_1.jpg' height='90'> <img id='selected'  src='G_3.jpg' height='90'> <img id='selected' src='G_7.jpg' height='90'> <img src='G_5.jpg' height='90'>","null","Animation0","",""
"","","","","","html-keyboard-response","43","411570","0.0-19.0","31","1","2025-02-02 03:52:46","bc01a2b6f61d06f6604adb8657495020","75.203.11.166","Mozilla/5.0 (Windows NT 10.0; Win64; x64) AppleWebKit/537.36 (KHTML, like Gecko) Chrome/132.0.0.0 Safari/537.36","WebKit","Chrome","132.0.0.0","Windows","10.0","https://app.prolific.com/","en-US,en;q=0.9","5d5580165514d80017cd1999","679edb085803f58d6bbd31ca","679eebfd07399d1264e227d4","","null","<img  src='G_9.jpg' height='90'> <img   src='G_1.jpg' height='90'> <img   src='G_3.jpg' height='90'> <img  src='G_7.jpg' height='90'> <img src='G_5.jpg' height='90'>","null","Animation0","",""
"","","","","","html-keyboard-response","44","412087","0.0-20.0","31","1","2025-02-02 03:52:46","bc01a2b6f61d06f6604adb8657495020","75.203.11.166","Mozilla/5.0 (Windows NT 10.0; Win64; x64) AppleWebKit/537.36 (KHTML, like Gecko) Chrome/132.0.0.0 Safari/537.36","WebKit","Chrome","132.0.0.0","Windows","10.0","https://app.prolific.com/","en-US,en;q=0.9","5d5580165514d80017cd1999","679edb085803f58d6bbd31ca","679eebfd07399d1264e227d4","","null","<img  src='G_9.jpg' height='90'> <img   src='G_1.jpg' height='90'> <img   src='G_3.jpg' height='90'> <img id='selected'  src='G_7.jpg' height='90'> <img src='G_5.jpg' height='90'>","null","Animation0","",""
"","","","","","html-keyboard-response","45","412600","0.0-21.0","31","1","2025-02-02 03:52:46","bc01a2b6f61d06f6604adb8657495020","75.203.11.166","Mozilla/5.0 (Windows NT 10.0; Win64; x64) AppleWebKit/537.36 (KHTML, like Gecko) Chrome/132.0.0.0 Safari/537.36","WebKit","Chrome","132.0.0.0","Windows","10.0","https://app.prolific.com/","en-US,en;q=0.9","5d5580165514d80017cd1999","679edb085803f58d6bbd31ca","679eebfd07399d1264e227d4","","null","<img  src='G_9.jpg' height='90'> <img   src='G_1.jpg' height='90'> <img   src='G_3.jpg' height='90'> <img id='selected'  src='G_7.jpg' height='90'> <img id='selected' src='G_5.jpg' height='90'>","null","Animation0","",""
"","","","","","html-keyboard-response","46","413118","0.0-22.0","31","1","2025-02-02 03:52:46","bc01a2b6f61d06f6604adb8657495020","75.203.11.166","Mozilla/5.0 (Windows NT 10.0; Win64; x64) AppleWebKit/537.36 (KHTML, like Gecko) Chrome/132.0.0.0 Safari/537.36","WebKit","Chrome","132.0.0.0","Windows","10.0","https://app.prolific.com/","en-US,en;q=0.9","5d5580165514d80017cd1999","679edb085803f58d6bbd31ca","679eebfd07399d1264e227d4","","null","<img  src='G_9.jpg' height='90'> <img   src='G_1.jpg' height='90'> <img   src='G_3.jpg' height='90'> <img id='selected'  src='G_7.jpg' height='90'> <img id='selected' src='G_5.jpg' height='90'>","null","Animation0","",""
"","","","","","html-keyboard-response","47","413429","0.0-23.0","31","1","2025-02-02 03:52:46","bc01a2b6f61d06f6604adb8657495020","75.203.11.166","Mozilla/5.0 (Windows NT 10.0; Win64; x64) AppleWebKit/537.36 (KHTML, like Gecko) Chrome/132.0.0.0 Safari/537.36","WebKit","Chrome","132.0.0.0","Windows","10.0","https://app.prolific.com/","en-US,en;q=0.9","5d5580165514d80017cd1999","679edb085803f58d6bbd31ca","679eebfd07399d1264e227d4","","null","<img  src='G_9.jpg' height='90'> <img   src='G_1.jpg' height='90'> <img   src='G_3.jpg' height='90'> <img   src='G_7.jpg' height='90'> <img  src='G_5.jpg' height='90'>","null","Animation0","",""
"","","","","","html-keyboard-response","48","416991","0.0-24.0","31","1","2025-02-02 03:52:46","bc01a2b6f61d06f6604adb8657495020","75.203.11.166","Mozilla/5.0 (Windows NT 10.0; Win64; x64) AppleWebKit/537.36 (KHTML, like Gecko) Chrome/132.0.0.0 Safari/537.36","WebKit","Chrome","132.0.0.0","Windows","10.0","https://app.prolific.com/","en-US,en;q=0.9","5d5580165514d80017cd1999","679edb085803f58d6bbd31ca","679eebfd07399d1264e227d4","","3557","[""Did you notice any patterns? <br><br>Press Enter to watch that example again and follow the steps of Omgne Sort.""]","enter","","",""
"","","","","","html-button-response","49","417406","0.0-25.0","31","1","2025-02-02 03:52:46","bc01a2b6f61d06f6604adb8657495020","75.203.11.166","Mozilla/5.0 (Windows NT 10.0; Win64; x64) AppleWebKit/537.36 (KHTML, like Gecko) Chrome/132.0.0.0 Safari/537.36","WebKit","Chrome","132.0.0.0","Windows","10.0","https://app.prolific.com/","en-US,en;q=0.9","5d5580165514d80017cd1999","679edb085803f58d6bbd31ca","679eebfd07399d1264e227d4","","null","<img id='selected' src='G_1.jpg' height='90'> <img src='G_9.jpg' height='90'> <img src='G_3.jpg' height='90'> <img src='G_7.jpg' height='90'> <img src='G_5.jpg' height='90'>","null","Learning example 0","",""
"","","","","","html-button-response","50","417716","0.0-26.0","31","1","2025-02-02 03:52:46","bc01a2b6f61d06f6604adb8657495020","75.203.11.166","Mozilla/5.0 (Windows NT 10.0; Win64; x64) AppleWebKit/537.36 (KHTML, like Gecko) Chrome/132.0.0.0 Safari/537.36","WebKit","Chrome","132.0.0.0","Windows","10.0","https://app.prolific.com/","en-US,en;q=0.9","5d5580165514d80017cd1999","679edb085803f58d6bbd31ca","679eebfd07399d1264e227d4","","null","<img id='selected' src='G_1.jpg' height='90'> <img id='selected' src='G_9.jpg' height='90'> <img src='G_3.jpg' height='90'> <img src='G_7.jpg' height='90'> <img src='G_5.jpg' height='90'>","null","Learning example 0","",""
"","","","","","html-button-response","51","418025","0.0-27.0","31","1","2025-02-02 03:52:46","bc01a2b6f61d06f6604adb8657495020","75.203.11.166","Mozilla/5.0 (Windows NT 10.0; Win64; x64) AppleWebKit/537.36 (KHTML, like Gecko) Chrome/132.0.0.0 Safari/537.36","WebKit","Chrome","132.0.0.0","Windows","10.0","https://app.prolific.com/","en-US,en;q=0.9","5d5580165514d80017cd1999","679edb085803f58d6bbd31ca","679eebfd07399d1264e227d4","","null","<img id='swapped' src='G_9.jpg' height='90'> <img id='swapped' src='G_1.jpg' height='90'> <img src='G_3.jpg' height='90'> <img src='G_7.jpg' height='90'> <img src='G_5.jpg' height='90'>","null","Learning example 0","",""
"","","","","","html-button-response","52","418801","0.0-28.0-0.0-0.0","31","1","2025-02-02 03:52:46","bc01a2b6f61d06f6604adb8657495020","75.203.11.166","Mozilla/5.0 (Windows NT 10.0; Win64; x64) AppleWebKit/537.36 (KHTML, like Gecko) Chrome/132.0.0.0 Safari/537.36","WebKit","Chrome","132.0.0.0","Windows","10.0","https://app.prolific.com/","en-US,en;q=0.9","5d5580165514d80017cd1999","679edb085803f58d6bbd31ca","679eebfd07399d1264e227d4","","772","<img id='swapped' src='G_9.jpg' height='90'> <img id='swapped' src='G_1.jpg' height='90'> <img src='G_3.jpg' height='90'> <img src='G_7.jpg' height='90'> <img src='G_5.jpg' height='90'>","0","Learning example 0","",""
"","","","","","html-button-response","53","419292","0.0-28.1-0.1-0.1","31","1","2025-02-02 03:52:46","bc01a2b6f61d06f6604adb8657495020","75.203.11.166","Mozilla/5.0 (Windows NT 10.0; Win64; x64) AppleWebKit/537.36 (KHTML, like Gecko) Chrome/132.0.0.0 Safari/537.36","WebKit","Chrome","132.0.0.0","Windows","10.0","https://app.prolific.com/","en-US,en;q=0.9","5d5580165514d80017cd1999","679edb085803f58d6bbd31ca","679eebfd07399d1264e227d4","","488","<img id='swapped' src='G_9.jpg' height='90'> <img id='swapped' src='G_1.jpg' height='90'> <img src='G_3.jpg' height='90'> <img src='G_7.jpg' height='90'> <img src='G_5.jpg' height='90'>","1","Learning example 0","",""
"","","","","","html-button-response","54","419506","0.0-29.0","31","1","2025-02-02 03:52:46","bc01a2b6f61d06f6604adb8657495020","75.203.11.166","Mozilla/5.0 (Windows NT 10.0; Win64; x64) AppleWebKit/537.36 (KHTML, like Gecko) Chrome/132.0.0.0 Safari/537.36","WebKit","Chrome","132.0.0.0","Windows","10.0","https://app.prolific.com/","en-US,en;q=0.9","5d5580165514d80017cd1999","679edb085803f58d6bbd31ca","679eebfd07399d1264e227d4","","null","<img  src='G_9.jpg' height='90'> <img  src='G_1.jpg' height='90'> <img src='G_3.jpg' height='90'> <img src='G_7.jpg' height='90'> <img src='G_5.jpg' height='90'>","null","Learning example 0","",""
"","","","","","html-button-response","55","419917","0.0-30.0","31","1","2025-02-02 03:52:46","bc01a2b6f61d06f6604adb8657495020","75.203.11.166","Mozilla/5.0 (Windows NT 10.0; Win64; x64) AppleWebKit/537.36 (KHTML, like Gecko) Chrome/132.0.0.0 Safari/537.36","WebKit","Chrome","132.0.0.0","Windows","10.0","https://app.prolific.com/","en-US,en;q=0.9","5d5580165514d80017cd1999","679edb085803f58d6bbd31ca","679eebfd07399d1264e227d4","","null","<img  src='G_9.jpg' height='90'> <img id='selected'  src='G_1.jpg' height='90'> <img src='G_3.jpg' height='90'> <img src='G_7.jpg' height='90'> <img src='G_5.jpg' height='90'>","null","Learning example 0","",""
"","","","","","html-button-response","56","420222","0.0-31.0","31","1","2025-02-02 03:52:46","bc01a2b6f61d06f6604adb8657495020","75.203.11.166","Mozilla/5.0 (Windows NT 10.0; Win64; x64) AppleWebKit/537.36 (KHTML, like Gecko) Chrome/132.0.0.0 Safari/537.36","WebKit","Chrome","132.0.0.0","Windows","10.0","https://app.prolific.com/","en-US,en;q=0.9","5d5580165514d80017cd1999","679edb085803f58d6bbd31ca","679eebfd07399d1264e227d4","","null","<img  src='G_9.jpg' height='90'> <img id='selected'  src='G_1.jpg' height='90'> <img id='selected' src='G_3.jpg' height='90'> <img src='G_7.jpg' height='90'> <img src='G_5.jpg' height='90'>","null","Learning example 0","",""
"","","","","","html-button-response","57","420471","0.0-32.0","31","1","2025-02-02 03:52:46","bc01a2b6f61d06f6604adb8657495020","75.203.11.166","Mozilla/5.0 (Windows NT 10.0; Win64; x64) AppleWebKit/537.36 (KHTML, like Gecko) Chrome/132.0.0.0 Safari/537.36","WebKit","Chrome","132.0.0.0","Windows","10.0","https://app.prolific.com/","en-US,en;q=0.9","5d5580165514d80017cd1999","679edb085803f58d6bbd31ca","679eebfd07399d1264e227d4","","245","<img  src='G_9.jpg' height='90'> <img id='selected'  src='G_1.jpg' height='90'> <img id='selected' src='G_3.jpg' height='90'> <img src='G_7.jpg' height='90'> <img src='G_5.jpg' height='90'>","1","Learning example 0","",""
"","","","","","html-button-response","58","420992","0.0-33.0-0.0-0.0","31","1","2025-02-02 03:52:46","bc01a2b6f61d06f6604adb8657495020","75.203.11.166","Mozilla/5.0 (Windows NT 10.0; Win64; x64) AppleWebKit/537.36 (KHTML, like Gecko) Chrome/132.0.0.0 Safari/537.36","WebKit","Chrome","132.0.0.0","Windows","10.0","https://app.prolific.com/","en-US,en;q=0.9","5d5580165514d80017cd1999","679edb085803f58d6bbd31ca","679eebfd07399d1264e227d4","","518","<img  src='G_9.jpg' height='90'> <img id='selected'  src='G_1.jpg' height='90'> <img id='selected' src='G_3.jpg' height='90'> <img src='G_7.jpg' height='90'> <img src='G_5.jpg' height='90'>","2","Learning example 0","",""
"","","","","","html-button-response","59","421207","0.0-34.0","31","1","2025-02-02 03:52:46","bc01a2b6f61d06f6604adb8657495020","75.203.11.166","Mozilla/5.0 (Windows NT 10.0; Win64; x64) AppleWebKit/537.36 (KHTML, like Gecko) Chrome/132.0.0.0 Safari/537.36","WebKit","Chrome","132.0.0.0","Windows","10.0","https://app.prolific.com/","en-US,en;q=0.9","5d5580165514d80017cd1999","679edb085803f58d6bbd31ca","679eebfd07399d1264e227d4","","null","<img  src='G_9.jpg' height='90'> <img   src='G_1.jpg' height='90'> <img  src='G_3.jpg' height='90'> <img src='G_7.jpg' height='90'> <img src='G_5.jpg' height='90'>","null","Learning example 0","",""
"","","","","","html-button-response","60","421626","0.0-35.0","31","1","2025-02-02 03:52:46","bc01a2b6f61d06f6604adb8657495020","75.203.11.166","Mozilla/5.0 (Windows NT 10.0; Win64; x64) AppleWebKit/537.36 (KHTML, like Gecko) Chrome/132.0.0.0 Safari/537.36","WebKit","Chrome","132.0.0.0","Windows","10.0","https://app.prolific.com/","en-US,en;q=0.9","5d5580165514d80017cd1999","679edb085803f58d6bbd31ca","679eebfd07399d1264e227d4","","null","<img  src='G_9.jpg' height='90'> <img   src='G_1.jpg' height='90'> <img id='selected'  src='G_3.jpg' height='90'> <img src='G_7.jpg' height='90'> <img src='G_5.jpg' height='90'>","null","Learning example 0","",""
"","","","","","html-button-response","61","421939","0.0-36.0","31","1","2025-02-02 03:52:46","bc01a2b6f61d06f6604adb8657495020","75.203.11.166","Mozilla/5.0 (Windows NT 10.0; Win64; x64) AppleWebKit/537.36 (KHTML, like Gecko) Chrome/132.0.0.0 Safari/537.36","WebKit","Chrome","132.0.0.0","Windows","10.0","https://app.prolific.com/","en-US,en;q=0.9","5d5580165514d80017cd1999","679edb085803f58d6bbd31ca","679eebfd07399d1264e227d4","","null","<img  src='G_9.jpg' height='90'> <img   src='G_1.jpg' height='90'> <img id='selected'  src='G_3.jpg' height='90'> <img id='selected' src='G_7.jpg' height='90'> <img src='G_5.jpg' height='90'>","null","Learning example 0","",""
"","","","","","html-button-response","62","422251","0.0-37.0","31","1","2025-02-02 03:52:46","bc01a2b6f61d06f6604adb8657495020","75.203.11.166","Mozilla/5.0 (Windows NT 10.0; Win64; x64) AppleWebKit/537.36 (KHTML, like Gecko) Chrome/132.0.0.0 Safari/537.36","WebKit","Chrome","132.0.0.0","Windows","10.0","https://app.prolific.com/","en-US,en;q=0.9","5d5580165514d80017cd1999","679edb085803f58d6bbd31ca","679eebfd07399d1264e227d4","","null","<img  src='G_9.jpg' height='90'> <img   src='G_1.jpg' height='90'> <img id='selected'  src='G_3.jpg' height='90'> <img id='selected' src='G_7.jpg' height='90'> <img src='G_5.jpg' height='90'>","null","Learning example 0","",""
"","","","","","html-button-response","63","422338","0.0-38.0-0.0-0.0","31","1","2025-02-02 03:52:46","bc01a2b6f61d06f6604adb8657495020","75.203.11.166","Mozilla/5.0 (Windows NT 10.0; Win64; x64) AppleWebKit/537.36 (KHTML, like Gecko) Chrome/132.0.0.0 Safari/537.36","WebKit","Chrome","132.0.0.0","Windows","10.0","https://app.prolific.com/","en-US,en;q=0.9","5d5580165514d80017cd1999","679edb085803f58d6bbd31ca","679eebfd07399d1264e227d4","","84","<img  src='G_9.jpg' height='90'> <img   src='G_1.jpg' height='90'> <img id='selected'  src='G_3.jpg' height='90'> <img id='selected' src='G_7.jpg' height='90'> <img src='G_5.jpg' height='90'>","2","Learning example 0","",""
"","","","","","html-button-response","64","422810","0.0-38.1-0.1-0.1","31","1","2025-02-02 03:52:46","bc01a2b6f61d06f6604adb8657495020","75.203.11.166","Mozilla/5.0 (Windows NT 10.0; Win64; x64) AppleWebKit/537.36 (KHTML, like Gecko) Chrome/132.0.0.0 Safari/537.36","WebKit","Chrome","132.0.0.0","Windows","10.0","https://app.prolific.com/","en-US,en;q=0.9","5d5580165514d80017cd1999","679edb085803f58d6bbd31ca","679eebfd07399d1264e227d4","","468","<img  src='G_9.jpg' height='90'> <img   src='G_1.jpg' height='90'> <img id='selected'  src='G_3.jpg' height='90'> <img id='selected' src='G_7.jpg' height='90'> <img src='G_5.jpg' height='90'>","3","Learning example 0","",""
"","","","","","html-button-response","65","423028","0.0-39.0","31","1","2025-02-02 03:52:46","bc01a2b6f61d06f6604adb8657495020","75.203.11.166","Mozilla/5.0 (Windows NT 10.0; Win64; x64) AppleWebKit/537.36 (KHTML, like Gecko) Chrome/132.0.0.0 Safari/537.36","WebKit","Chrome","132.0.0.0","Windows","10.0","https://app.prolific.com/","en-US,en;q=0.9","5d5580165514d80017cd1999","679edb085803f58d6bbd31ca","679eebfd07399d1264e227d4","","null","<img  src='G_9.jpg' height='90'> <img   src='G_1.jpg' height='90'> <img   src='G_3.jpg' height='90'> <img  src='G_7.jpg' height='90'> <img src='G_5.jpg' height='90'>","null","Learning example 0","",""
"","","","","","html-button-response","66","423448","0.0-40.0","31","1","2025-02-02 03:52:46","bc01a2b6f61d06f6604adb8657495020","75.203.11.166","Mozilla/5.0 (Windows NT 10.0; Win64; x64) AppleWebKit/537.36 (KHTML, like Gecko) Chrome/132.0.0.0 Safari/537.36","WebKit","Chrome","132.0.0.0","Windows","10.0","https://app.prolific.com/","en-US,en;q=0.9","5d5580165514d80017cd1999","679edb085803f58d6bbd31ca","679eebfd07399d1264e227d4","","null","<img  src='G_9.jpg' height='90'> <img   src='G_1.jpg' height='90'> <img   src='G_3.jpg' height='90'> <img id='selected'  src='G_7.jpg' height='90'> <img src='G_5.jpg' height='90'>","null","Learning example 0","",""
"","","","","","html-button-response","67","423756","0.0-41.0","31","1","2025-02-02 03:52:46","bc01a2b6f61d06f6604adb8657495020","75.203.11.166","Mozilla/5.0 (Windows NT 10.0; Win64; x64) AppleWebKit/537.36 (KHTML, like Gecko) Chrome/132.0.0.0 Safari/537.36","WebKit","Chrome","132.0.0.0","Windows","10.0","https://app.prolific.com/","en-US,en;q=0.9","5d5580165514d80017cd1999","679edb085803f58d6bbd31ca","679eebfd07399d1264e227d4","","null","<img  src='G_9.jpg' height='90'> <img   src='G_1.jpg' height='90'> <img   src='G_3.jpg' height='90'> <img id='selected'  src='G_7.jpg' height='90'> <img id='selected' src='G_5.jpg' height='90'>","null","Learning example 0","",""
"","","","","","html-button-response","68","424072","0.0-42.0","31","1","2025-02-02 03:52:46","bc01a2b6f61d06f6604adb8657495020","75.203.11.166","Mozilla/5.0 (Windows NT 10.0; Win64; x64) AppleWebKit/537.36 (KHTML, like Gecko) Chrome/132.0.0.0 Safari/537.36","WebKit","Chrome","132.0.0.0","Windows","10.0","https://app.prolific.com/","en-US,en;q=0.9","5d5580165514d80017cd1999","679edb085803f58d6bbd31ca","679eebfd07399d1264e227d4","","null","<img  src='G_9.jpg' height='90'> <img   src='G_1.jpg' height='90'> <img   src='G_3.jpg' height='90'> <img id='selected'  src='G_7.jpg' height='90'> <img id='selected' src='G_5.jpg' height='90'>","null","Learning example 0","",""
"","","","","","html-button-response","69","424284","0.0-43.0-0.0-0.0","31","1","2025-02-02 03:52:46","bc01a2b6f61d06f6604adb8657495020","75.203.11.166","Mozilla/5.0 (Windows NT 10.0; Win64; x64) AppleWebKit/537.36 (KHTML, like Gecko) Chrome/132.0.0.0 Safari/537.36","WebKit","Chrome","132.0.0.0","Windows","10.0","https://app.prolific.com/","en-US,en;q=0.9","5d5580165514d80017cd1999","679edb085803f58d6bbd31ca","679eebfd07399d1264e227d4","","205","<img  src='G_9.jpg' height='90'> <img   src='G_1.jpg' height='90'> <img   src='G_3.jpg' height='90'> <img id='selected'  src='G_7.jpg' height='90'> <img id='selected' src='G_5.jpg' height='90'>","4","Learning example 0","",""
"","","","","","html-button-response","70","428704","0.0-43.1-0.1-0.1","31","1","2025-02-02 03:52:46","bc01a2b6f61d06f6604adb8657495020","75.203.11.166","Mozilla/5.0 (Windows NT 10.0; Win64; x64) AppleWebKit/537.36 (KHTML, like Gecko) Chrome/132.0.0.0 Safari/537.36","WebKit","Chrome","132.0.0.0","Windows","10.0","https://app.prolific.com/","en-US,en;q=0.9","5d5580165514d80017cd1999","679edb085803f58d6bbd31ca","679eebfd07399d1264e227d4","","4417","<img  src='G_9.jpg' height='90'> <img   src='G_1.jpg' height='90'> <img   src='G_3.jpg' height='90'> <img id='selected'  src='G_7.jpg' height='90'> <img id='selected' src='G_5.jpg' height='90'>","3","Learning example 0","",""
"","","","","","html-button-response","71","428909","0.0-44.0","31","1","2025-02-02 03:52:46","bc01a2b6f61d06f6604adb8657495020","75.203.11.166","Mozilla/5.0 (Windows NT 10.0; Win64; x64) AppleWebKit/537.36 (KHTML, like Gecko) Chrome/132.0.0.0 Safari/537.36","WebKit","Chrome","132.0.0.0","Windows","10.0","https://app.prolific.com/","en-US,en;q=0.9","5d5580165514d80017cd1999","679edb085803f58d6bbd31ca","679eebfd07399d1264e227d4","","null","<img  src='G_9.jpg' height='90'> <img   src='G_1.jpg' height='90'> <img   src='G_3.jpg' height='90'> <img   src='G_7.jpg' height='90'> <img  src='G_5.jpg' height='90'>","null","Learning example 0","",""
"","","","","","html-keyboard-response","72","434282","0.0-45.0","31","1","2025-02-02 03:52:46","bc01a2b6f61d06f6604adb8657495020","75.203.11.166","Mozilla/5.0 (Windows NT 10.0; Win64; x64) AppleWebKit/537.36 (KHTML, like Gecko) Chrome/132.0.0.0 Safari/537.36","WebKit","Chrome","132.0.0.0","Windows","10.0","https://app.prolific.com/","en-US,en;q=0.9","5d5580165514d80017cd1999","679edb085803f58d6bbd31ca","679eebfd07399d1264e227d4","","5370","[""Final order was 1,2,3,4,5. The initial order was 2,1,3,4,5.<br>It took 1 swaps to sort it correctly with Omgne Sort. <br><br>Press Enter to continue.""]","enter","","",""
"","","","","","html-keyboard-response","73","436237","0.0-46.0","31","1","2025-02-02 03:52:46","bc01a2b6f61d06f6604adb8657495020","75.203.11.166","Mozilla/5.0 (Windows NT 10.0; Win64; x64) AppleWebKit/537.36 (KHTML, like Gecko) Chrome/132.0.0.0 Safari/537.36","WebKit","Chrome","132.0.0.0","Windows","10.0","https://app.prolific.com/","en-US,en;q=0.9","5d5580165514d80017cd1999","679edb085803f58d6bbd31ca","679eebfd07399d1264e227d4","","1954","[""Example 2<br><br>You will watch Omnge Sort in action. Try to identify any patterns in the comparisons made by this method. <br><br>Press Enter to continue.""]","enter","","",""
"","","","","","html-keyboard-response","74","436753","0.0-47.0","31","1","2025-02-02 03:52:46","bc01a2b6f61d06f6604adb8657495020","75.203.11.166","Mozilla/5.0 (Windows NT 10.0; Win64; x64) AppleWebKit/537.36 (KHTML, like Gecko) Chrome/132.0.0.0 Safari/537.36","WebKit","Chrome","132.0.0.0","Windows","10.0","https://app.prolific.com/","en-US,en;q=0.9","5d5580165514d80017cd1999","679edb085803f58d6bbd31ca","679eebfd07399d1264e227d4","","null","<img id='selected' src='G_8.jpg' height='90'> <img src='G_4.jpg' height='90'> <img src='G_5.jpg' height='90'> <img src='G_7.jpg' height='90'> <img src='G_6.jpg' height='90'> <img src='G_2.jpg' height='90'> <img src='G_1.jpg' height='90'> <img src='G_3.jpg' height='90'>","null","Animation1","",""
"","","","","","html-keyboard-response","75","437266","0.0-48.0","31","1","2025-02-02 03:52:46","bc01a2b6f61d06f6604adb8657495020","75.203.11.166","Mozilla/5.0 (Windows NT 10.0; Win64; x64) AppleWebKit/537.36 (KHTML, like Gecko) Chrome/132.0.0.0 Safari/537.36","WebKit","Chrome","132.0.0.0","Windows","10.0","https://app.prolific.com/","en-US,en;q=0.9","5d5580165514d80017cd1999","679edb085803f58d6bbd31ca","679eebfd07399d1264e227d4","","null","<img id='selected' src='G_8.jpg' height='90'> <img id='selected' src='G_4.jpg' height='90'> <img src='G_5.jpg' height='90'> <img src='G_7.jpg' height='90'> <img src='G_6.jpg' height='90'> <img src='G_2.jpg' height='90'> <img src='G_1.jpg' height='90'> <img src='G_3.jpg' height='90'>","null","Animation1","",""
"","","","","","html-keyboard-response","76","437784","0.0-49.0","31","1","2025-02-02 03:52:46","bc01a2b6f61d06f6604adb8657495020","75.203.11.166","Mozilla/5.0 (Windows NT 10.0; Win64; x64) AppleWebKit/537.36 (KHTML, like Gecko) Chrome/132.0.0.0 Safari/537.36","WebKit","Chrome","132.0.0.0","Windows","10.0","https://app.prolific.com/","en-US,en;q=0.9","5d5580165514d80017cd1999","679edb085803f58d6bbd31ca","679eebfd07399d1264e227d4","","null","<img id='selected' src='G_8.jpg' height='90'> <img id='selected' src='G_4.jpg' height='90'> <img src='G_5.jpg' height='90'> <img src='G_7.jpg' height='90'> <img src='G_6.jpg' height='90'> <img src='G_2.jpg' height='90'> <img src='G_1.jpg' height='90'> <img src='G_3.jpg' height='90'>","null","Animation1","",""
"","","","","","html-keyboard-response","77","438096","0.0-50.0","31","1","2025-02-02 03:52:46","bc01a2b6f61d06f6604adb8657495020","75.203.11.166","Mozilla/5.0 (Windows NT 10.0; Win64; x64) AppleWebKit/537.36 (KHTML, like Gecko) Chrome/132.0.0.0 Safari/537.36","WebKit","Chrome","132.0.0.0","Windows","10.0","https://app.prolific.com/","en-US,en;q=0.9","5d5580165514d80017cd1999","679edb085803f58d6bbd31ca","679eebfd07399d1264e227d4","","null","<img  src='G_8.jpg' height='90'> <img  src='G_4.jpg' height='90'> <img src='G_5.jpg' height='90'> <img src='G_7.jpg' height='90'> <img src='G_6.jpg' height='90'> <img src='G_2.jpg' height='90'> <img src='G_1.jpg' height='90'> <img src='G_3.jpg' height='90'>","null","Animation1","",""
"","","","","","html-keyboard-response","78","438607","0.0-51.0","31","1","2025-02-02 03:52:46","bc01a2b6f61d06f6604adb8657495020","75.203.11.166","Mozilla/5.0 (Windows NT 10.0; Win64; x64) AppleWebKit/537.36 (KHTML, like Gecko) Chrome/132.0.0.0 Safari/537.36","WebKit","Chrome","132.0.0.0","Windows","10.0","https://app.prolific.com/","en-US,en;q=0.9","5d5580165514d80017cd1999","679edb085803f58d6bbd31ca","679eebfd07399d1264e227d4","","null","<img  src='G_8.jpg' height='90'> <img id='selected'  src='G_4.jpg' height='90'> <img src='G_5.jpg' height='90'> <img src='G_7.jpg' height='90'> <img src='G_6.jpg' height='90'> <img src='G_2.jpg' height='90'> <img src='G_1.jpg' height='90'> <img src='G_3.jpg' height='90'>","null","Animation1","",""
"","","","","","html-keyboard-response","79","439121","0.0-52.0","31","1","2025-02-02 03:52:46","bc01a2b6f61d06f6604adb8657495020","75.203.11.166","Mozilla/5.0 (Windows NT 10.0; Win64; x64) AppleWebKit/537.36 (KHTML, like Gecko) Chrome/132.0.0.0 Safari/537.36","WebKit","Chrome","132.0.0.0","Windows","10.0","https://app.prolific.com/","en-US,en;q=0.9","5d5580165514d80017cd1999","679edb085803f58d6bbd31ca","679eebfd07399d1264e227d4","","null","<img  src='G_8.jpg' height='90'> <img id='selected'  src='G_4.jpg' height='90'> <img id='selected' src='G_5.jpg' height='90'> <img src='G_7.jpg' height='90'> <img src='G_6.jpg' height='90'> <img src='G_2.jpg' height='90'> <img src='G_1.jpg' height='90'> <img src='G_3.jpg' height='90'>","null","Animation1","",""
"","","","","","html-keyboard-response","80","439636","0.0-53.0","31","1","2025-02-02 03:52:46","bc01a2b6f61d06f6604adb8657495020","75.203.11.166","Mozilla/5.0 (Windows NT 10.0; Win64; x64) AppleWebKit/537.36 (KHTML, like Gecko) Chrome/132.0.0.0 Safari/537.36","WebKit","Chrome","132.0.0.0","Windows","10.0","https://app.prolific.com/","en-US,en;q=0.9","5d5580165514d80017cd1999","679edb085803f58d6bbd31ca","679eebfd07399d1264e227d4","","null","<img  src='G_8.jpg' height='90'> <img id='swapped' src='G_5.jpg' height='90'> <img id='swapped'  src='G_4.jpg' height='90'> <img src='G_7.jpg' height='90'> <img src='G_6.jpg' height='90'> <img src='G_2.jpg' height='90'> <img src='G_1.jpg' height='90'> <img src='G_3.jpg' height='90'>","null","Animation1","",""
"","","","","","html-keyboard-response","81","439948","0.0-54.0","31","1","2025-02-02 03:52:46","bc01a2b6f61d06f6604adb8657495020","75.203.11.166","Mozilla/5.0 (Windows NT 10.0; Win64; x64) AppleWebKit/537.36 (KHTML, like Gecko) Chrome/132.0.0.0 Safari/537.36","WebKit","Chrome","132.0.0.0","Windows","10.0","https://app.prolific.com/","en-US,en;q=0.9","5d5580165514d80017cd1999","679edb085803f58d6bbd31ca","679eebfd07399d1264e227d4","","null","<img  src='G_8.jpg' height='90'> <img  src='G_5.jpg' height='90'> <img   src='G_4.jpg' height='90'> <img src='G_7.jpg' height='90'> <img src='G_6.jpg' height='90'> <img src='G_2.jpg' height='90'> <img src='G_1.jpg' height='90'> <img src='G_3.jpg' height='90'>","null","Animation1","",""
"","","","","","html-keyboard-response","82","440463","0.0-55.0","31","1","2025-02-02 03:52:46","bc01a2b6f61d06f6604adb8657495020","75.203.11.166","Mozilla/5.0 (Windows NT 10.0; Win64; x64) AppleWebKit/537.36 (KHTML, like Gecko) Chrome/132.0.0.0 Safari/537.36","WebKit","Chrome","132.0.0.0","Windows","10.0","https://app.prolific.com/","en-US,en;q=0.9","5d5580165514d80017cd1999","679edb085803f58d6bbd31ca","679eebfd07399d1264e227d4","","null","<img id='selected'  src='G_8.jpg' height='90'> <img  src='G_5.jpg' height='90'> <img   src='G_4.jpg' height='90'> <img src='G_7.jpg' height='90'> <img src='G_6.jpg' height='90'> <img src='G_2.jpg' height='90'> <img src='G_1.jpg' height='90'> <img src='G_3.jpg' height='90'>","null","Animation1","",""
"","","","","","html-keyboard-response","83","440976","0.0-56.0","31","1","2025-02-02 03:52:46","bc01a2b6f61d06f6604adb8657495020","75.203.11.166","Mozilla/5.0 (Windows NT 10.0; Win64; x64) AppleWebKit/537.36 (KHTML, like Gecko) Chrome/132.0.0.0 Safari/537.36","WebKit","Chrome","132.0.0.0","Windows","10.0","https://app.prolific.com/","en-US,en;q=0.9","5d5580165514d80017cd1999","679edb085803f58d6bbd31ca","679eebfd07399d1264e227d4","","null","<img id='selected'  src='G_8.jpg' height='90'> <img id='selected'  src='G_5.jpg' height='90'> <img   src='G_4.jpg' height='90'> <img src='G_7.jpg' height='90'> <img src='G_6.jpg' height='90'> <img src='G_2.jpg' height='90'> <img src='G_1.jpg' height='90'> <img src='G_3.jpg' height='90'>","null","Animation1","",""
"","","","","","html-keyboard-response","84","441491","0.0-57.0","31","1","2025-02-02 03:52:46","bc01a2b6f61d06f6604adb8657495020","75.203.11.166","Mozilla/5.0 (Windows NT 10.0; Win64; x64) AppleWebKit/537.36 (KHTML, like Gecko) Chrome/132.0.0.0 Safari/537.36","WebKit","Chrome","132.0.0.0","Windows","10.0","https://app.prolific.com/","en-US,en;q=0.9","5d5580165514d80017cd1999","679edb085803f58d6bbd31ca","679eebfd07399d1264e227d4","","null","<img id='swapped'  src='G_5.jpg' height='90'> <img id='swapped'  src='G_8.jpg' height='90'> <img   src='G_4.jpg' height='90'> <img src='G_7.jpg' height='90'> <img src='G_6.jpg' height='90'> <img src='G_2.jpg' height='90'> <img src='G_1.jpg' height='90'> <img src='G_3.jpg' height='90'>","null","Animation1","",""
"","","","","","html-keyboard-response","85","441804","0.0-58.0","31","1","2025-02-02 03:52:46","bc01a2b6f61d06f6604adb8657495020","75.203.11.166","Mozilla/5.0 (Windows NT 10.0; Win64; x64) AppleWebKit/537.36 (KHTML, like Gecko) Chrome/132.0.0.0 Safari/537.36","WebKit","Chrome","132.0.0.0","Windows","10.0","https://app.prolific.com/","en-US,en;q=0.9","5d5580165514d80017cd1999","679edb085803f58d6bbd31ca","679eebfd07399d1264e227d4","","null","<img   src='G_5.jpg' height='90'> <img   src='G_8.jpg' height='90'> <img   src='G_4.jpg' height='90'> <img src='G_7.jpg' height='90'> <img src='G_6.jpg' height='90'> <img src='G_2.jpg' height='90'> <img src='G_1.jpg' height='90'> <img src='G_3.jpg' height='90'>","null","Animation1","",""
"","","","","","html-keyboard-response","86","442317","0.0-59.0","31","1","2025-02-02 03:52:46","bc01a2b6f61d06f6604adb8657495020","75.203.11.166","Mozilla/5.0 (Windows NT 10.0; Win64; x64) AppleWebKit/537.36 (KHTML, like Gecko) Chrome/132.0.0.0 Safari/537.36","WebKit","Chrome","132.0.0.0","Windows","10.0","https://app.prolific.com/","en-US,en;q=0.9","5d5580165514d80017cd1999","679edb085803f58d6bbd31ca","679eebfd07399d1264e227d4","","null","<img   src='G_5.jpg' height='90'> <img   src='G_8.jpg' height='90'> <img id='selected'   src='G_4.jpg' height='90'> <img src='G_7.jpg' height='90'> <img src='G_6.jpg' height='90'> <img src='G_2.jpg' height='90'> <img src='G_1.jpg' height='90'> <img src='G_3.jpg' height='90'>","null","Animation1","",""
"","","","","","html-keyboard-response","87","442831","0.0-60.0","31","1","2025-02-02 03:52:46","bc01a2b6f61d06f6604adb8657495020","75.203.11.166","Mozilla/5.0 (Windows NT 10.0; Win64; x64) AppleWebKit/537.36 (KHTML, like Gecko) Chrome/132.0.0.0 Safari/537.36","WebKit","Chrome","132.0.0.0","Windows","10.0","https://app.prolific.com/","en-US,en;q=0.9","5d5580165514d80017cd1999","679edb085803f58d6bbd31ca","679eebfd07399d1264e227d4","","null","<img   src='G_5.jpg' height='90'> <img   src='G_8.jpg' height='90'> <img id='selected'   src='G_4.jpg' height='90'> <img id='selected' src='G_7.jpg' height='90'> <img src='G_6.jpg' height='90'> <img src='G_2.jpg' height='90'> <img src='G_1.jpg' height='90'> <img src='G_3.jpg' height='90'>","null","Animation1","",""
"","","","","","html-keyboard-response","88","443347","0.0-61.0","31","1","2025-02-02 03:52:46","bc01a2b6f61d06f6604adb8657495020","75.203.11.166","Mozilla/5.0 (Windows NT 10.0; Win64; x64) AppleWebKit/537.36 (KHTML, like Gecko) Chrome/132.0.0.0 Safari/537.36","WebKit","Chrome","132.0.0.0","Windows","10.0","https://app.prolific.com/","en-US,en;q=0.9","5d5580165514d80017cd1999","679edb085803f58d6bbd31ca","679eebfd07399d1264e227d4","","null","<img   src='G_5.jpg' height='90'> <img   src='G_8.jpg' height='90'> <img id='swapped' src='G_7.jpg' height='90'> <img id='swapped'   src='G_4.jpg' height='90'> <img src='G_6.jpg' height='90'> <img src='G_2.jpg' height='90'> <img src='G_1.jpg' height='90'> <img src='G_3.jpg' height='90'>","null","Animation1","",""
"","","","","","html-keyboard-response","89","443661","0.0-62.0","31","1","2025-02-02 03:52:46","bc01a2b6f61d06f6604adb8657495020","75.203.11.166","Mozilla/5.0 (Windows NT 10.0; Win64; x64) AppleWebKit/537.36 (KHTML, like Gecko) Chrome/132.0.0.0 Safari/537.36","WebKit","Chrome","132.0.0.0","Windows","10.0","https://app.prolific.com/","en-US,en;q=0.9","5d5580165514d80017cd1999","679edb085803f58d6bbd31ca","679eebfd07399d1264e227d4","","null","<img   src='G_5.jpg' height='90'> <img   src='G_8.jpg' height='90'> <img  src='G_7.jpg' height='90'> <img    src='G_4.jpg' height='90'> <img src='G_6.jpg' height='90'> <img src='G_2.jpg' height='90'> <img src='G_1.jpg' height='90'> <img src='G_3.jpg' height='90'>","null","Animation1","",""
"","","","","","html-keyboard-response","90","444175","0.0-63.0","31","1","2025-02-02 03:52:46","bc01a2b6f61d06f6604adb8657495020","75.203.11.166","Mozilla/5.0 (Windows NT 10.0; Win64; x64) AppleWebKit/537.36 (KHTML, like Gecko) Chrome/132.0.0.0 Safari/537.36","WebKit","Chrome","132.0.0.0","Windows","10.0","https://app.prolific.com/","en-US,en;q=0.9","5d5580165514d80017cd1999","679edb085803f58d6bbd31ca","679eebfd07399d1264e227d4","","null","<img   src='G_5.jpg' height='90'> <img id='selected'   src='G_8.jpg' height='90'> <img  src='G_7.jpg' height='90'> <img    src='G_4.jpg' height='90'> <img src='G_6.jpg' height='90'> <img src='G_2.jpg' height='90'> <img src='G_1.jpg' height='90'> <img src='G_3.jpg' height='90'>","null","Animation1","",""
"","","","","","html-keyboard-response","91","444689","0.0-64.0","31","1","2025-02-02 03:52:46","bc01a2b6f61d06f6604adb8657495020","75.203.11.166","Mozilla/5.0 (Windows NT 10.0; Win64; x64) AppleWebKit/537.36 (KHTML, like Gecko) Chrome/132.0.0.0 Safari/537.36","WebKit","Chrome","132.0.0.0","Windows","10.0","https://app.prolific.com/","en-US,en;q=0.9","5d5580165514d80017cd1999","679edb085803f58d6bbd31ca","679eebfd07399d1264e227d4","","null","<img   src='G_5.jpg' height='90'> <img id='selected'   src='G_8.jpg' height='90'> <img id='selected'  src='G_7.jpg' height='90'> <img    src='G_4.jpg' height='90'> <img src='G_6.jpg' height='90'> <img src='G_2.jpg' height='90'> <img src='G_1.jpg' height='90'> <img src='G_3.jpg' height='90'>","null","Animation1","",""
"","","","","","html-keyboard-response","92","445203","0.0-65.0","31","1","2025-02-02 03:52:46","bc01a2b6f61d06f6604adb8657495020","75.203.11.166","Mozilla/5.0 (Windows NT 10.0; Win64; x64) AppleWebKit/537.36 (KHTML, like Gecko) Chrome/132.0.0.0 Safari/537.36","WebKit","Chrome","132.0.0.0","Windows","10.0","https://app.prolific.com/","en-US,en;q=0.9","5d5580165514d80017cd1999","679edb085803f58d6bbd31ca","679eebfd07399d1264e227d4","","null","<img   src='G_5.jpg' height='90'> <img id='swapped'  src='G_7.jpg' height='90'> <img id='swapped'   src='G_8.jpg' height='90'> <img    src='G_4.jpg' height='90'> <img src='G_6.jpg' height='90'> <img src='G_2.jpg' height='90'> <img src='G_1.jpg' height='90'> <img src='G_3.jpg' height='90'>","null","Animation1","",""
"","","","","","html-keyboard-response","93","445515","0.0-66.0","31","1","2025-02-02 03:52:46","bc01a2b6f61d06f6604adb8657495020","75.203.11.166","Mozilla/5.0 (Windows NT 10.0; Win64; x64) AppleWebKit/537.36 (KHTML, like Gecko) Chrome/132.0.0.0 Safari/537.36","WebKit","Chrome","132.0.0.0","Windows","10.0","https://app.prolific.com/","en-US,en;q=0.9","5d5580165514d80017cd1999","679edb085803f58d6bbd31ca","679eebfd07399d1264e227d4","","null","<img   src='G_5.jpg' height='90'> <img   src='G_7.jpg' height='90'> <img    src='G_8.jpg' height='90'> <img    src='G_4.jpg' height='90'> <img src='G_6.jpg' height='90'> <img src='G_2.jpg' height='90'> <img src='G_1.jpg' height='90'> <img src='G_3.jpg' height='90'>","null","Animation1","",""
"","","","","","html-keyboard-response","94","446035","0.0-67.0","31","1","2025-02-02 03:52:46","bc01a2b6f61d06f6604adb8657495020","75.203.11.166","Mozilla/5.0 (Windows NT 10.0; Win64; x64) AppleWebKit/537.36 (KHTML, like Gecko) Chrome/132.0.0.0 Safari/537.36","WebKit","Chrome","132.0.0.0","Windows","10.0","https://app.prolific.com/","en-US,en;q=0.9","5d5580165514d80017cd1999","679edb085803f58d6bbd31ca","679eebfd07399d1264e227d4","","null","<img id='selected'   src='G_5.jpg' height='90'> <img   src='G_7.jpg' height='90'> <img    src='G_8.jpg' height='90'> <img    src='G_4.jpg' height='90'> <img src='G_6.jpg' height='90'> <img src='G_2.jpg' height='90'> <img src='G_1.jpg' height='90'> <img src='G_3.jpg' height='90'>","null","Animation1","",""
"","","","","","html-keyboard-response","95","446545","0.0-68.0","31","1","2025-02-02 03:52:46","bc01a2b6f61d06f6604adb8657495020","75.203.11.166","Mozilla/5.0 (Windows NT 10.0; Win64; x64) AppleWebKit/537.36 (KHTML, like Gecko) Chrome/132.0.0.0 Safari/537.36","WebKit","Chrome","132.0.0.0","Windows","10.0","https://app.prolific.com/","en-US,en;q=0.9","5d5580165514d80017cd1999","679edb085803f58d6bbd31ca","679eebfd07399d1264e227d4","","null","<img id='selected'   src='G_5.jpg' height='90'> <img id='selected'   src='G_7.jpg' height='90'> <img    src='G_8.jpg' height='90'> <img    src='G_4.jpg' height='90'> <img src='G_6.jpg' height='90'> <img src='G_2.jpg' height='90'> <img src='G_1.jpg' height='90'> <img src='G_3.jpg' height='90'>","null","Animation1","",""
"","","","","","html-keyboard-response","96","447060","0.0-69.0","31","1","2025-02-02 03:52:46","bc01a2b6f61d06f6604adb8657495020","75.203.11.166","Mozilla/5.0 (Windows NT 10.0; Win64; x64) AppleWebKit/537.36 (KHTML, like Gecko) Chrome/132.0.0.0 Safari/537.36","WebKit","Chrome","132.0.0.0","Windows","10.0","https://app.prolific.com/","en-US,en;q=0.9","5d5580165514d80017cd1999","679edb085803f58d6bbd31ca","679eebfd07399d1264e227d4","","null","<img id='swapped'   src='G_7.jpg' height='90'> <img id='swapped'   src='G_5.jpg' height='90'> <img    src='G_8.jpg' height='90'> <img    src='G_4.jpg' height='90'> <img src='G_6.jpg' height='90'> <img src='G_2.jpg' height='90'> <img src='G_1.jpg' height='90'> <img src='G_3.jpg' height='90'>","null","Animation1","",""
"","","","","","html-keyboard-response","97","447370","0.0-70.0","31","1","2025-02-02 03:52:46","bc01a2b6f61d06f6604adb8657495020","75.203.11.166","Mozilla/5.0 (Windows NT 10.0; Win64; x64) AppleWebKit/537.36 (KHTML, like Gecko) Chrome/132.0.0.0 Safari/537.36","WebKit","Chrome","132.0.0.0","Windows","10.0","https://app.prolific.com/","en-US,en;q=0.9","5d5580165514d80017cd1999","679edb085803f58d6bbd31ca","679eebfd07399d1264e227d4","","null","<img    src='G_7.jpg' height='90'> <img    src='G_5.jpg' height='90'> <img    src='G_8.jpg' height='90'> <img    src='G_4.jpg' height='90'> <img src='G_6.jpg' height='90'> <img src='G_2.jpg' height='90'> <img src='G_1.jpg' height='90'> <img src='G_3.jpg' height='90'>","null","Animation1","",""
"","","","","","html-keyboard-response","98","447887","0.0-71.0","31","1","2025-02-02 03:52:46","bc01a2b6f61d06f6604adb8657495020","75.203.11.166","Mozilla/5.0 (Windows NT 10.0; Win64; x64) AppleWebKit/537.36 (KHTML, like Gecko) Chrome/132.0.0.0 Safari/537.36","WebKit","Chrome","132.0.0.0","Windows","10.0","https://app.prolific.com/","en-US,en;q=0.9","5d5580165514d80017cd1999","679edb085803f58d6bbd31ca","679eebfd07399d1264e227d4","","null","<img    src='G_7.jpg' height='90'> <img    src='G_5.jpg' height='90'> <img    src='G_8.jpg' height='90'> <img id='selected'    src='G_4.jpg' height='90'> <img src='G_6.jpg' height='90'> <img src='G_2.jpg' height='90'> <img src='G_1.jpg' height='90'> <img src='G_3.jpg' height='90'>","null","Animation1","",""
"","","","","","html-keyboard-response","99","448400","0.0-72.0","31","1","2025-02-02 03:52:46","bc01a2b6f61d06f6604adb8657495020","75.203.11.166","Mozilla/5.0 (Windows NT 10.0; Win64; x64) AppleWebKit/537.36 (KHTML, like Gecko) Chrome/132.0.0.0 Safari/537.36","WebKit","Chrome","132.0.0.0","Windows","10.0","https://app.prolific.com/","en-US,en;q=0.9","5d5580165514d80017cd1999","679edb085803f58d6bbd31ca","679eebfd07399d1264e227d4","","null","<img    src='G_7.jpg' height='90'> <img    src='G_5.jpg' height='90'> <img    src='G_8.jpg' height='90'> <img id='selected'    src='G_4.jpg' height='90'> <img id='selected' src='G_6.jpg' height='90'> <img src='G_2.jpg' height='90'> <img src='G_1.jpg' height='90'> <img src='G_3.jpg' height='90'>","null","Animation1","",""
"","","","","","html-keyboard-response","100","448930","0.0-73.0","31","1","2025-02-02 03:52:46","bc01a2b6f61d06f6604adb8657495020","75.203.11.166","Mozilla/5.0 (Windows NT 10.0; Win64; x64) AppleWebKit/537.36 (KHTML, like Gecko) Chrome/132.0.0.0 Safari/537.36","WebKit","Chrome","132.0.0.0","Windows","10.0","https://app.prolific.com/","en-US,en;q=0.9","5d5580165514d80017cd1999","679edb085803f58d6bbd31ca","679eebfd07399d1264e227d4","","null","<img    src='G_7.jpg' height='90'> <img    src='G_5.jpg' height='90'> <img    src='G_8.jpg' height='90'> <img id='swapped' src='G_6.jpg' height='90'> <img id='swapped'    src='G_4.jpg' height='90'> <img src='G_2.jpg' height='90'> <img src='G_1.jpg' height='90'> <img src='G_3.jpg' height='90'>","null","Animation1","",""
"","","","","","html-keyboard-response","101","449242","0.0-74.0","31","1","2025-02-02 03:52:46","bc01a2b6f61d06f6604adb8657495020","75.203.11.166","Mozilla/5.0 (Windows NT 10.0; Win64; x64) AppleWebKit/537.36 (KHTML, like Gecko) Chrome/132.0.0.0 Safari/537.36","WebKit","Chrome","132.0.0.0","Windows","10.0","https://app.prolific.com/","en-US,en;q=0.9","5d5580165514d80017cd1999","679edb085803f58d6bbd31ca","679eebfd07399d1264e227d4","","null","<img    src='G_7.jpg' height='90'> <img    src='G_5.jpg' height='90'> <img    src='G_8.jpg' height='90'> <img  src='G_6.jpg' height='90'> <img     src='G_4.jpg' height='90'> <img src='G_2.jpg' height='90'> <img src='G_1.jpg' height='90'> <img src='G_3.jpg' height='90'>","null","Animation1","",""
"","","","","","html-keyboard-response","102","449757","0.0-75.0","31","1","2025-02-02 03:52:46","bc01a2b6f61d06f6604adb8657495020","75.203.11.166","Mozilla/5.0 (Windows NT 10.0; Win64; x64) AppleWebKit/537.36 (KHTML, like Gecko) Chrome/132.0.0.0 Safari/537.36","WebKit","Chrome","132.0.0.0","Windows","10.0","https://app.prolific.com/","en-US,en;q=0.9","5d5580165514d80017cd1999","679edb085803f58d6bbd31ca","679eebfd07399d1264e227d4","","null","<img    src='G_7.jpg' height='90'> <img    src='G_5.jpg' height='90'> <img id='selected'    src='G_8.jpg' height='90'> <img  src='G_6.jpg' height='90'> <img     src='G_4.jpg' height='90'> <img src='G_2.jpg' height='90'> <img src='G_1.jpg' height='90'> <img src='G_3.jpg' height='90'>","null","Animation1","",""
"","","","","","html-keyboard-response","103","450274","0.0-76.0","31","1","2025-02-02 03:52:46","bc01a2b6f61d06f6604adb8657495020","75.203.11.166","Mozilla/5.0 (Windows NT 10.0; Win64; x64) AppleWebKit/537.36 (KHTML, like Gecko) Chrome/132.0.0.0 Safari/537.36","WebKit","Chrome","132.0.0.0","Windows","10.0","https://app.prolific.com/","en-US,en;q=0.9","5d5580165514d80017cd1999","679edb085803f58d6bbd31ca","679eebfd07399d1264e227d4","","null","<img    src='G_7.jpg' height='90'> <img    src='G_5.jpg' height='90'> <img id='selected'    src='G_8.jpg' height='90'> <img id='selected'  src='G_6.jpg' height='90'> <img     src='G_4.jpg' height='90'> <img src='G_2.jpg' height='90'> <img src='G_1.jpg' height='90'> <img src='G_3.jpg' height='90'>","null","Animation1","",""
"","","","","","html-keyboard-response","104","450792","0.0-77.0","31","1","2025-02-02 03:52:46","bc01a2b6f61d06f6604adb8657495020","75.203.11.166","Mozilla/5.0 (Windows NT 10.0; Win64; x64) AppleWebKit/537.36 (KHTML, like Gecko) Chrome/132.0.0.0 Safari/537.36","WebKit","Chrome","132.0.0.0","Windows","10.0","https://app.prolific.com/","en-US,en;q=0.9","5d5580165514d80017cd1999","679edb085803f58d6bbd31ca","679eebfd07399d1264e227d4","","null","<img    src='G_7.jpg' height='90'> <img    src='G_5.jpg' height='90'> <img id='swapped'  src='G_6.jpg' height='90'> <img id='swapped'    src='G_8.jpg' height='90'> <img     src='G_4.jpg' height='90'> <img src='G_2.jpg' height='90'> <img src='G_1.jpg' height='90'> <img src='G_3.jpg' height='90'>","null","Animation1","",""
"","","","","","html-keyboard-response","105","451100","0.0-78.0","31","1","2025-02-02 03:52:46","bc01a2b6f61d06f6604adb8657495020","75.203.11.166","Mozilla/5.0 (Windows NT 10.0; Win64; x64) AppleWebKit/537.36 (KHTML, like Gecko) Chrome/132.0.0.0 Safari/537.36","WebKit","Chrome","132.0.0.0","Windows","10.0","https://app.prolific.com/","en-US,en;q=0.9","5d5580165514d80017cd1999","679edb085803f58d6bbd31ca","679eebfd07399d1264e227d4","","null","<img    src='G_7.jpg' height='90'> <img    src='G_5.jpg' height='90'> <img   src='G_6.jpg' height='90'> <img     src='G_8.jpg' height='90'> <img     src='G_4.jpg' height='90'> <img src='G_2.jpg' height='90'> <img src='G_1.jpg' height='90'> <img src='G_3.jpg' height='90'>","null","Animation1","",""
"","","","","","html-keyboard-response","106","451612","0.0-79.0","31","1","2025-02-02 03:52:46","bc01a2b6f61d06f6604adb8657495020","75.203.11.166","Mozilla/5.0 (Windows NT 10.0; Win64; x64) AppleWebKit/537.36 (KHTML, like Gecko) Chrome/132.0.0.0 Safari/537.36","WebKit","Chrome","132.0.0.0","Windows","10.0","https://app.prolific.com/","en-US,en;q=0.9","5d5580165514d80017cd1999","679edb085803f58d6bbd31ca","679eebfd07399d1264e227d4","","null","<img    src='G_7.jpg' height='90'> <img id='selected'    src='G_5.jpg' height='90'> <img   src='G_6.jpg' height='90'> <img     src='G_8.jpg' height='90'> <img     src='G_4.jpg' height='90'> <img src='G_2.jpg' height='90'> <img src='G_1.jpg' height='90'> <img src='G_3.jpg' height='90'>","null","Animation1","",""
"","","","","","html-keyboard-response","107","452125","0.0-80.0","31","1","2025-02-02 03:52:46","bc01a2b6f61d06f6604adb8657495020","75.203.11.166","Mozilla/5.0 (Windows NT 10.0; Win64; x64) AppleWebKit/537.36 (KHTML, like Gecko) Chrome/132.0.0.0 Safari/537.36","WebKit","Chrome","132.0.0.0","Windows","10.0","https://app.prolific.com/","en-US,en;q=0.9","5d5580165514d80017cd1999","679edb085803f58d6bbd31ca","679eebfd07399d1264e227d4","","null","<img    src='G_7.jpg' height='90'> <img id='selected'    src='G_5.jpg' height='90'> <img id='selected'   src='G_6.jpg' height='90'> <img     src='G_8.jpg' height='90'> <img     src='G_4.jpg' height='90'> <img src='G_2.jpg' height='90'> <img src='G_1.jpg' height='90'> <img src='G_3.jpg' height='90'>","null","Animation1","",""
"","","","","","html-keyboard-response","108","452639","0.0-81.0","31","1","2025-02-02 03:52:46","bc01a2b6f61d06f6604adb8657495020","75.203.11.166","Mozilla/5.0 (Windows NT 10.0; Win64; x64) AppleWebKit/537.36 (KHTML, like Gecko) Chrome/132.0.0.0 Safari/537.36","WebKit","Chrome","132.0.0.0","Windows","10.0","https://app.prolific.com/","en-US,en;q=0.9","5d5580165514d80017cd1999","679edb085803f58d6bbd31ca","679eebfd07399d1264e227d4","","null","<img    src='G_7.jpg' height='90'> <img id='swapped'   src='G_6.jpg' height='90'> <img id='swapped'    src='G_5.jpg' height='90'> <img     src='G_8.jpg' height='90'> <img     src='G_4.jpg' height='90'> <img src='G_2.jpg' height='90'> <img src='G_1.jpg' height='90'> <img src='G_3.jpg' height='90'>","null","Animation1","",""
"","","","","","html-keyboard-response","109","452963","0.0-82.0","31","1","2025-02-02 03:52:46","bc01a2b6f61d06f6604adb8657495020","75.203.11.166","Mozilla/5.0 (Windows NT 10.0; Win64; x64) AppleWebKit/537.36 (KHTML, like Gecko) Chrome/132.0.0.0 Safari/537.36","WebKit","Chrome","132.0.0.0","Windows","10.0","https://app.prolific.com/","en-US,en;q=0.9","5d5580165514d80017cd1999","679edb085803f58d6bbd31ca","679eebfd07399d1264e227d4","","null","<img    src='G_7.jpg' height='90'> <img    src='G_6.jpg' height='90'> <img     src='G_5.jpg' height='90'> <img     src='G_8.jpg' height='90'> <img     src='G_4.jpg' height='90'> <img src='G_2.jpg' height='90'> <img src='G_1.jpg' height='90'> <img src='G_3.jpg' height='90'>","null","Animation1","",""
"","","","","","html-keyboard-response","110","453477","0.0-83.0","31","1","2025-02-02 03:52:46","bc01a2b6f61d06f6604adb8657495020","75.203.11.166","Mozilla/5.0 (Windows NT 10.0; Win64; x64) AppleWebKit/537.36 (KHTML, like Gecko) Chrome/132.0.0.0 Safari/537.36","WebKit","Chrome","132.0.0.0","Windows","10.0","https://app.prolific.com/","en-US,en;q=0.9","5d5580165514d80017cd1999","679edb085803f58d6bbd31ca","679eebfd07399d1264e227d4","","null","<img id='selected'    src='G_7.jpg' height='90'> <img    src='G_6.jpg' height='90'> <img     src='G_5.jpg' height='90'> <img     src='G_8.jpg' height='90'> <img     src='G_4.jpg' height='90'> <img src='G_2.jpg' height='90'> <img src='G_1.jpg' height='90'> <img src='G_3.jpg' height='90'>","null","Animation1","",""
"","","","","","html-keyboard-response","111","454006","0.0-84.0","31","1","2025-02-02 03:52:46","bc01a2b6f61d06f6604adb8657495020","75.203.11.166","Mozilla/5.0 (Windows NT 10.0; Win64; x64) AppleWebKit/537.36 (KHTML, like Gecko) Chrome/132.0.0.0 Safari/537.36","WebKit","Chrome","132.0.0.0","Windows","10.0","https://app.prolific.com/","en-US,en;q=0.9","5d5580165514d80017cd1999","679edb085803f58d6bbd31ca","679eebfd07399d1264e227d4","","null","<img id='selected'    src='G_7.jpg' height='90'> <img id='selected'    src='G_6.jpg' height='90'> <img     src='G_5.jpg' height='90'> <img     src='G_8.jpg' height='90'> <img     src='G_4.jpg' height='90'> <img src='G_2.jpg' height='90'> <img src='G_1.jpg' height='90'> <img src='G_3.jpg' height='90'>","null","Animation1","",""
"","","","","","html-keyboard-response","112","454521","0.0-85.0","31","1","2025-02-02 03:52:46","bc01a2b6f61d06f6604adb8657495020","75.203.11.166","Mozilla/5.0 (Windows NT 10.0; Win64; x64) AppleWebKit/537.36 (KHTML, like Gecko) Chrome/132.0.0.0 Safari/537.36","WebKit","Chrome","132.0.0.0","Windows","10.0","https://app.prolific.com/","en-US,en;q=0.9","5d5580165514d80017cd1999","679edb085803f58d6bbd31ca","679eebfd07399d1264e227d4","","null","<img id='selected'    src='G_7.jpg' height='90'> <img id='selected'    src='G_6.jpg' height='90'> <img     src='G_5.jpg' height='90'> <img     src='G_8.jpg' height='90'> <img     src='G_4.jpg' height='90'> <img src='G_2.jpg' height='90'> <img src='G_1.jpg' height='90'> <img src='G_3.jpg' height='90'>","null","Animation1","",""
"","","","","","html-keyboard-response","113","454833","0.0-86.0","31","1","2025-02-02 03:52:46","bc01a2b6f61d06f6604adb8657495020","75.203.11.166","Mozilla/5.0 (Windows NT 10.0; Win64; x64) AppleWebKit/537.36 (KHTML, like Gecko) Chrome/132.0.0.0 Safari/537.36","WebKit","Chrome","132.0.0.0","Windows","10.0","https://app.prolific.com/","en-US,en;q=0.9","5d5580165514d80017cd1999","679edb085803f58d6bbd31ca","679eebfd07399d1264e227d4","","null","<img     src='G_7.jpg' height='90'> <img     src='G_6.jpg' height='90'> <img     src='G_5.jpg' height='90'> <img     src='G_8.jpg' height='90'> <img     src='G_4.jpg' height='90'> <img src='G_2.jpg' height='90'> <img src='G_1.jpg' height='90'> <img src='G_3.jpg' height='90'>","null","Animation1","",""
"","","","","","html-keyboard-response","114","455347","0.0-87.0","31","1","2025-02-02 03:52:46","bc01a2b6f61d06f6604adb8657495020","75.203.11.166","Mozilla/5.0 (Windows NT 10.0; Win64; x64) AppleWebKit/537.36 (KHTML, like Gecko) Chrome/132.0.0.0 Safari/537.36","WebKit","Chrome","132.0.0.0","Windows","10.0","https://app.prolific.com/","en-US,en;q=0.9","5d5580165514d80017cd1999","679edb085803f58d6bbd31ca","679eebfd07399d1264e227d4","","null","<img     src='G_7.jpg' height='90'> <img     src='G_6.jpg' height='90'> <img     src='G_5.jpg' height='90'> <img     src='G_8.jpg' height='90'> <img id='selected'     src='G_4.jpg' height='90'> <img src='G_2.jpg' height='90'> <img src='G_1.jpg' height='90'> <img src='G_3.jpg' height='90'>","null","Animation1","",""
"","","","","","html-keyboard-response","115","455859","0.0-88.0","31","1","2025-02-02 03:52:46","bc01a2b6f61d06f6604adb8657495020","75.203.11.166","Mozilla/5.0 (Windows NT 10.0; Win64; x64) AppleWebKit/537.36 (KHTML, like Gecko) Chrome/132.0.0.0 Safari/537.36","WebKit","Chrome","132.0.0.0","Windows","10.0","https://app.prolific.com/","en-US,en;q=0.9","5d5580165514d80017cd1999","679edb085803f58d6bbd31ca","679eebfd07399d1264e227d4","","null","<img     src='G_7.jpg' height='90'> <img     src='G_6.jpg' height='90'> <img     src='G_5.jpg' height='90'> <img     src='G_8.jpg' height='90'> <img id='selected'     src='G_4.jpg' height='90'> <img id='selected' src='G_2.jpg' height='90'> <img src='G_1.jpg' height='90'> <img src='G_3.jpg' height='90'>","null","Animation1","",""
"","","","","","html-keyboard-response","116","456372","0.0-89.0","31","1","2025-02-02 03:52:46","bc01a2b6f61d06f6604adb8657495020","75.203.11.166","Mozilla/5.0 (Windows NT 10.0; Win64; x64) AppleWebKit/537.36 (KHTML, like Gecko) Chrome/132.0.0.0 Safari/537.36","WebKit","Chrome","132.0.0.0","Windows","10.0","https://app.prolific.com/","en-US,en;q=0.9","5d5580165514d80017cd1999","679edb085803f58d6bbd31ca","679eebfd07399d1264e227d4","","null","<img     src='G_7.jpg' height='90'> <img     src='G_6.jpg' height='90'> <img     src='G_5.jpg' height='90'> <img     src='G_8.jpg' height='90'> <img id='swapped' src='G_2.jpg' height='90'> <img id='swapped'     src='G_4.jpg' height='90'> <img src='G_1.jpg' height='90'> <img src='G_3.jpg' height='90'>","null","Animation1","",""
"","","","","","html-keyboard-response","117","456696","0.0-90.0","31","1","2025-02-02 03:52:46","bc01a2b6f61d06f6604adb8657495020","75.203.11.166","Mozilla/5.0 (Windows NT 10.0; Win64; x64) AppleWebKit/537.36 (KHTML, like Gecko) Chrome/132.0.0.0 Safari/537.36","WebKit","Chrome","132.0.0.0","Windows","10.0","https://app.prolific.com/","en-US,en;q=0.9","5d5580165514d80017cd1999","679edb085803f58d6bbd31ca","679eebfd07399d1264e227d4","","null","<img     src='G_7.jpg' height='90'> <img     src='G_6.jpg' height='90'> <img     src='G_5.jpg' height='90'> <img     src='G_8.jpg' height='90'> <img  src='G_2.jpg' height='90'> <img      src='G_4.jpg' height='90'> <img src='G_1.jpg' height='90'> <img src='G_3.jpg' height='90'>","null","Animation1","",""
"","","","","","html-keyboard-response","118","457212","0.0-91.0","31","1","2025-02-02 03:52:46","bc01a2b6f61d06f6604adb8657495020","75.203.11.166","Mozilla/5.0 (Windows NT 10.0; Win64; x64) AppleWebKit/537.36 (KHTML, like Gecko) Chrome/132.0.0.0 Safari/537.36","WebKit","Chrome","132.0.0.0","Windows","10.0","https://app.prolific.com/","en-US,en;q=0.9","5d5580165514d80017cd1999","679edb085803f58d6bbd31ca","679eebfd07399d1264e227d4","","null","<img     src='G_7.jpg' height='90'> <img     src='G_6.jpg' height='90'> <img     src='G_5.jpg' height='90'> <img id='selected'     src='G_8.jpg' height='90'> <img  src='G_2.jpg' height='90'> <img      src='G_4.jpg' height='90'> <img src='G_1.jpg' height='90'> <img src='G_3.jpg' height='90'>","null","Animation1","",""
"","","","","","html-keyboard-response","119","457727","0.0-92.0","31","1","2025-02-02 03:52:46","bc01a2b6f61d06f6604adb8657495020","75.203.11.166","Mozilla/5.0 (Windows NT 10.0; Win64; x64) AppleWebKit/537.36 (KHTML, like Gecko) Chrome/132.0.0.0 Safari/537.36","WebKit","Chrome","132.0.0.0","Windows","10.0","https://app.prolific.com/","en-US,en;q=0.9","5d5580165514d80017cd1999","679edb085803f58d6bbd31ca","679eebfd07399d1264e227d4","","null","<img     src='G_7.jpg' height='90'> <img     src='G_6.jpg' height='90'> <img     src='G_5.jpg' height='90'> <img id='selected'     src='G_8.jpg' height='90'> <img id='selected'  src='G_2.jpg' height='90'> <img      src='G_4.jpg' height='90'> <img src='G_1.jpg' height='90'> <img src='G_3.jpg' height='90'>","null","Animation1","",""
"","","","","","html-keyboard-response","120","458239","0.0-93.0","31","1","2025-02-02 03:52:46","bc01a2b6f61d06f6604adb8657495020","75.203.11.166","Mozilla/5.0 (Windows NT 10.0; Win64; x64) AppleWebKit/537.36 (KHTML, like Gecko) Chrome/132.0.0.0 Safari/537.36","WebKit","Chrome","132.0.0.0","Windows","10.0","https://app.prolific.com/","en-US,en;q=0.9","5d5580165514d80017cd1999","679edb085803f58d6bbd31ca","679eebfd07399d1264e227d4","","null","<img     src='G_7.jpg' height='90'> <img     src='G_6.jpg' height='90'> <img     src='G_5.jpg' height='90'> <img id='selected'     src='G_8.jpg' height='90'> <img id='selected'  src='G_2.jpg' height='90'> <img      src='G_4.jpg' height='90'> <img src='G_1.jpg' height='90'> <img src='G_3.jpg' height='90'>","null","Animation1","",""
"","","","","","html-keyboard-response","121","458550","0.0-94.0","31","1","2025-02-02 03:52:46","bc01a2b6f61d06f6604adb8657495020","75.203.11.166","Mozilla/5.0 (Windows NT 10.0; Win64; x64) AppleWebKit/537.36 (KHTML, like Gecko) Chrome/132.0.0.0 Safari/537.36","WebKit","Chrome","132.0.0.0","Windows","10.0","https://app.prolific.com/","en-US,en;q=0.9","5d5580165514d80017cd1999","679edb085803f58d6bbd31ca","679eebfd07399d1264e227d4","","null","<img     src='G_7.jpg' height='90'> <img     src='G_6.jpg' height='90'> <img     src='G_5.jpg' height='90'> <img      src='G_8.jpg' height='90'> <img   src='G_2.jpg' height='90'> <img      src='G_4.jpg' height='90'> <img src='G_1.jpg' height='90'> <img src='G_3.jpg' height='90'>","null","Animation1","",""
"","","","","","html-keyboard-response","122","459078","0.0-95.0","31","1","2025-02-02 03:52:46","bc01a2b6f61d06f6604adb8657495020","75.203.11.166","Mozilla/5.0 (Windows NT 10.0; Win64; x64) AppleWebKit/537.36 (KHTML, like Gecko) Chrome/132.0.0.0 Safari/537.36","WebKit","Chrome","132.0.0.0","Windows","10.0","https://app.prolific.com/","en-US,en;q=0.9","5d5580165514d80017cd1999","679edb085803f58d6bbd31ca","679eebfd07399d1264e227d4","","null","<img     src='G_7.jpg' height='90'> <img     src='G_6.jpg' height='90'> <img     src='G_5.jpg' height='90'> <img      src='G_8.jpg' height='90'> <img   src='G_2.jpg' height='90'> <img id='selected'      src='G_4.jpg' height='90'> <img src='G_1.jpg' height='90'> <img src='G_3.jpg' height='90'>","null","Animation1","",""
"","","","","","html-keyboard-response","123","459592","0.0-96.0","31","1","2025-02-02 03:52:46","bc01a2b6f61d06f6604adb8657495020","75.203.11.166","Mozilla/5.0 (Windows NT 10.0; Win64; x64) AppleWebKit/537.36 (KHTML, like Gecko) Chrome/132.0.0.0 Safari/537.36","WebKit","Chrome","132.0.0.0","Windows","10.0","https://app.prolific.com/","en-US,en;q=0.9","5d5580165514d80017cd1999","679edb085803f58d6bbd31ca","679eebfd07399d1264e227d4","","null","<img     src='G_7.jpg' height='90'> <img     src='G_6.jpg' height='90'> <img     src='G_5.jpg' height='90'> <img      src='G_8.jpg' height='90'> <img   src='G_2.jpg' height='90'> <img id='selected'      src='G_4.jpg' height='90'> <img id='selected' src='G_1.jpg' height='90'> <img src='G_3.jpg' height='90'>","null","Animation1","",""
"","","","","","html-keyboard-response","124","460107","0.0-97.0","31","1","2025-02-02 03:52:46","bc01a2b6f61d06f6604adb8657495020","75.203.11.166","Mozilla/5.0 (Windows NT 10.0; Win64; x64) AppleWebKit/537.36 (KHTML, like Gecko) Chrome/132.0.0.0 Safari/537.36","WebKit","Chrome","132.0.0.0","Windows","10.0","https://app.prolific.com/","en-US,en;q=0.9","5d5580165514d80017cd1999","679edb085803f58d6bbd31ca","679eebfd07399d1264e227d4","","null","<img     src='G_7.jpg' height='90'> <img     src='G_6.jpg' height='90'> <img     src='G_5.jpg' height='90'> <img      src='G_8.jpg' height='90'> <img   src='G_2.jpg' height='90'> <img id='selected'      src='G_4.jpg' height='90'> <img id='selected' src='G_1.jpg' height='90'> <img src='G_3.jpg' height='90'>","null","Animation1","",""
"","","","","","html-keyboard-response","125","460421","0.0-98.0","31","1","2025-02-02 03:52:46","bc01a2b6f61d06f6604adb8657495020","75.203.11.166","Mozilla/5.0 (Windows NT 10.0; Win64; x64) AppleWebKit/537.36 (KHTML, like Gecko) Chrome/132.0.0.0 Safari/537.36","WebKit","Chrome","132.0.0.0","Windows","10.0","https://app.prolific.com/","en-US,en;q=0.9","5d5580165514d80017cd1999","679edb085803f58d6bbd31ca","679eebfd07399d1264e227d4","","null","<img     src='G_7.jpg' height='90'> <img     src='G_6.jpg' height='90'> <img     src='G_5.jpg' height='90'> <img      src='G_8.jpg' height='90'> <img   src='G_2.jpg' height='90'> <img       src='G_4.jpg' height='90'> <img  src='G_1.jpg' height='90'> <img src='G_3.jpg' height='90'>","null","Animation1","",""
"","","","","","html-keyboard-response","126","460935","0.0-99.0","31","1","2025-02-02 03:52:46","bc01a2b6f61d06f6604adb8657495020","75.203.11.166","Mozilla/5.0 (Windows NT 10.0; Win64; x64) AppleWebKit/537.36 (KHTML, like Gecko) Chrome/132.0.0.0 Safari/537.36","WebKit","Chrome","132.0.0.0","Windows","10.0","https://app.prolific.com/","en-US,en;q=0.9","5d5580165514d80017cd1999","679edb085803f58d6bbd31ca","679eebfd07399d1264e227d4","","null","<img     src='G_7.jpg' height='90'> <img     src='G_6.jpg' height='90'> <img     src='G_5.jpg' height='90'> <img      src='G_8.jpg' height='90'> <img   src='G_2.jpg' height='90'> <img       src='G_4.jpg' height='90'> <img id='selected'  src='G_1.jpg' height='90'> <img src='G_3.jpg' height='90'>","null","Animation1","",""
"","","","","","html-keyboard-response","127","461449","0.0-100.0","31","1","2025-02-02 03:52:46","bc01a2b6f61d06f6604adb8657495020","75.203.11.166","Mozilla/5.0 (Windows NT 10.0; Win64; x64) AppleWebKit/537.36 (KHTML, like Gecko) Chrome/132.0.0.0 Safari/537.36","WebKit","Chrome","132.0.0.0","Windows","10.0","https://app.prolific.com/","en-US,en;q=0.9","5d5580165514d80017cd1999","679edb085803f58d6bbd31ca","679eebfd07399d1264e227d4","","null","<img     src='G_7.jpg' height='90'> <img     src='G_6.jpg' height='90'> <img     src='G_5.jpg' height='90'> <img      src='G_8.jpg' height='90'> <img   src='G_2.jpg' height='90'> <img       src='G_4.jpg' height='90'> <img id='selected'  src='G_1.jpg' height='90'> <img id='selected' src='G_3.jpg' height='90'>","null","Animation1","",""
"","","","","","html-keyboard-response","128","461962","0.0-101.0","31","1","2025-02-02 03:52:46","bc01a2b6f61d06f6604adb8657495020","75.203.11.166","Mozilla/5.0 (Windows NT 10.0; Win64; x64) AppleWebKit/537.36 (KHTML, like Gecko) Chrome/132.0.0.0 Safari/537.36","WebKit","Chrome","132.0.0.0","Windows","10.0","https://app.prolific.com/","en-US,en;q=0.9","5d5580165514d80017cd1999","679edb085803f58d6bbd31ca","679eebfd07399d1264e227d4","","null","<img     src='G_7.jpg' height='90'> <img     src='G_6.jpg' height='90'> <img     src='G_5.jpg' height='90'> <img      src='G_8.jpg' height='90'> <img   src='G_2.jpg' height='90'> <img       src='G_4.jpg' height='90'> <img id='swapped' src='G_3.jpg' height='90'> <img id='swapped'  src='G_1.jpg' height='90'>","null","Animation1","",""
"","","","","","html-keyboard-response","129","462274","0.0-102.0","31","1","2025-02-02 03:52:46","bc01a2b6f61d06f6604adb8657495020","75.203.11.166","Mozilla/5.0 (Windows NT 10.0; Win64; x64) AppleWebKit/537.36 (KHTML, like Gecko) Chrome/132.0.0.0 Safari/537.36","WebKit","Chrome","132.0.0.0","Windows","10.0","https://app.prolific.com/","en-US,en;q=0.9","5d5580165514d80017cd1999","679edb085803f58d6bbd31ca","679eebfd07399d1264e227d4","","null","<img     src='G_7.jpg' height='90'> <img     src='G_6.jpg' height='90'> <img     src='G_5.jpg' height='90'> <img      src='G_8.jpg' height='90'> <img   src='G_2.jpg' height='90'> <img       src='G_4.jpg' height='90'> <img  src='G_3.jpg' height='90'> <img   src='G_1.jpg' height='90'>","null","Animation1","",""
"","","","","","html-keyboard-response","130","462788","0.0-103.0","31","1","2025-02-02 03:52:46","bc01a2b6f61d06f6604adb8657495020","75.203.11.166","Mozilla/5.0 (Windows NT 10.0; Win64; x64) AppleWebKit/537.36 (KHTML, like Gecko) Chrome/132.0.0.0 Safari/537.36","WebKit","Chrome","132.0.0.0","Windows","10.0","https://app.prolific.com/","en-US,en;q=0.9","5d5580165514d80017cd1999","679edb085803f58d6bbd31ca","679eebfd07399d1264e227d4","","null","<img     src='G_7.jpg' height='90'> <img     src='G_6.jpg' height='90'> <img     src='G_5.jpg' height='90'> <img      src='G_8.jpg' height='90'> <img   src='G_2.jpg' height='90'> <img id='selected'       src='G_4.jpg' height='90'> <img  src='G_3.jpg' height='90'> <img   src='G_1.jpg' height='90'>","null","Animation1","",""
"","","","","","html-keyboard-response","131","463303","0.0-104.0","31","1","2025-02-02 03:52:46","bc01a2b6f61d06f6604adb8657495020","75.203.11.166","Mozilla/5.0 (Windows NT 10.0; Win64; x64) AppleWebKit/537.36 (KHTML, like Gecko) Chrome/132.0.0.0 Safari/537.36","WebKit","Chrome","132.0.0.0","Windows","10.0","https://app.prolific.com/","en-US,en;q=0.9","5d5580165514d80017cd1999","679edb085803f58d6bbd31ca","679eebfd07399d1264e227d4","","null","<img     src='G_7.jpg' height='90'> <img     src='G_6.jpg' height='90'> <img     src='G_5.jpg' height='90'> <img      src='G_8.jpg' height='90'> <img   src='G_2.jpg' height='90'> <img id='selected'       src='G_4.jpg' height='90'> <img id='selected'  src='G_3.jpg' height='90'> <img   src='G_1.jpg' height='90'>","null","Animation1","",""
"","","","","","html-keyboard-response","132","463817","0.0-105.0","31","1","2025-02-02 03:52:46","bc01a2b6f61d06f6604adb8657495020","75.203.11.166","Mozilla/5.0 (Windows NT 10.0; Win64; x64) AppleWebKit/537.36 (KHTML, like Gecko) Chrome/132.0.0.0 Safari/537.36","WebKit","Chrome","132.0.0.0","Windows","10.0","https://app.prolific.com/","en-US,en;q=0.9","5d5580165514d80017cd1999","679edb085803f58d6bbd31ca","679eebfd07399d1264e227d4","","null","<img     src='G_7.jpg' height='90'> <img     src='G_6.jpg' height='90'> <img     src='G_5.jpg' height='90'> <img      src='G_8.jpg' height='90'> <img   src='G_2.jpg' height='90'> <img id='selected'       src='G_4.jpg' height='90'> <img id='selected'  src='G_3.jpg' height='90'> <img   src='G_1.jpg' height='90'>","null","Animation1","",""
"","","","","","html-keyboard-response","133","464129","0.0-106.0","31","1","2025-02-02 03:52:46","bc01a2b6f61d06f6604adb8657495020","75.203.11.166","Mozilla/5.0 (Windows NT 10.0; Win64; x64) AppleWebKit/537.36 (KHTML, like Gecko) Chrome/132.0.0.0 Safari/537.36","WebKit","Chrome","132.0.0.0","Windows","10.0","https://app.prolific.com/","en-US,en;q=0.9","5d5580165514d80017cd1999","679edb085803f58d6bbd31ca","679eebfd07399d1264e227d4","","null","<img     src='G_7.jpg' height='90'> <img     src='G_6.jpg' height='90'> <img     src='G_5.jpg' height='90'> <img      src='G_8.jpg' height='90'> <img   src='G_2.jpg' height='90'> <img        src='G_4.jpg' height='90'> <img   src='G_3.jpg' height='90'> <img   src='G_1.jpg' height='90'>","null","Animation1","",""
"","","","","","html-keyboard-response","134","465405","0.0-107.0","31","1","2025-02-02 03:52:46","bc01a2b6f61d06f6604adb8657495020","75.203.11.166","Mozilla/5.0 (Windows NT 10.0; Win64; x64) AppleWebKit/537.36 (KHTML, like Gecko) Chrome/132.0.0.0 Safari/537.36","WebKit","Chrome","132.0.0.0","Windows","10.0","https://app.prolific.com/","en-US,en;q=0.9","5d5580165514d80017cd1999","679edb085803f58d6bbd31ca","679eebfd07399d1264e227d4","","1273","[""Did you notice any patterns? <br><br>Press Enter to watch that example again and follow the steps of Omgne Sort.""]","enter","","",""
"","","","","","html-button-response","135","465816","0.0-108.0","31","1","2025-02-02 03:52:46","bc01a2b6f61d06f6604adb8657495020","75.203.11.166","Mozilla/5.0 (Windows NT 10.0; Win64; x64) AppleWebKit/537.36 (KHTML, like Gecko) Chrome/132.0.0.0 Safari/537.36","WebKit","Chrome","132.0.0.0","Windows","10.0","https://app.prolific.com/","en-US,en;q=0.9","5d5580165514d80017cd1999","679edb085803f58d6bbd31ca","679eebfd07399d1264e227d4","","null","<img id='selected' src='G_8.jpg' height='90'> <img src='G_4.jpg' height='90'> <img src='G_5.jpg' height='90'> <img src='G_7.jpg' height='90'> <img src='G_6.jpg' height='90'> <img src='G_2.jpg' height='90'> <img src='G_1.jpg' height='90'> <img src='G_3.jpg' height='90'>","null","Learning example 1","",""
"","","","","","html-button-response","136","466122","0.0-109.0","31","1","2025-02-02 03:52:46","bc01a2b6f61d06f6604adb8657495020","75.203.11.166","Mozilla/5.0 (Windows NT 10.0; Win64; x64) AppleWebKit/537.36 (KHTML, like Gecko) Chrome/132.0.0.0 Safari/537.36","WebKit","Chrome","132.0.0.0","Windows","10.0","https://app.prolific.com/","en-US,en;q=0.9","5d5580165514d80017cd1999","679edb085803f58d6bbd31ca","679eebfd07399d1264e227d4","","null","<img id='selected' src='G_8.jpg' height='90'> <img id='selected' src='G_4.jpg' height='90'> <img src='G_5.jpg' height='90'> <img src='G_7.jpg' height='90'> <img src='G_6.jpg' height='90'> <img src='G_2.jpg' height='90'> <img src='G_1.jpg' height='90'> <img src='G_3.jpg' height='90'>","null","Learning example 1","",""
"","","","","","html-button-response","137","466430","0.0-110.0","31","1","2025-02-02 03:52:46","bc01a2b6f61d06f6604adb8657495020","75.203.11.166","Mozilla/5.0 (Windows NT 10.0; Win64; x64) AppleWebKit/537.36 (KHTML, like Gecko) Chrome/132.0.0.0 Safari/537.36","WebKit","Chrome","132.0.0.0","Windows","10.0","https://app.prolific.com/","en-US,en;q=0.9","5d5580165514d80017cd1999","679edb085803f58d6bbd31ca","679eebfd07399d1264e227d4","","null","<img id='selected' src='G_8.jpg' height='90'> <img id='selected' src='G_4.jpg' height='90'> <img src='G_5.jpg' height='90'> <img src='G_7.jpg' height='90'> <img src='G_6.jpg' height='90'> <img src='G_2.jpg' height='90'> <img src='G_1.jpg' height='90'> <img src='G_3.jpg' height='90'>","null","Learning example 1","",""
"","","","","","html-button-response","138","466873","0.0-111.0-0.0-0.0","31","1","2025-02-02 03:52:46","bc01a2b6f61d06f6604adb8657495020","75.203.11.166","Mozilla/5.0 (Windows NT 10.0; Win64; x64) AppleWebKit/537.36 (KHTML, like Gecko) Chrome/132.0.0.0 Safari/537.36","WebKit","Chrome","132.0.0.0","Windows","10.0","https://app.prolific.com/","en-US,en;q=0.9","5d5580165514d80017cd1999","679edb085803f58d6bbd31ca","679eebfd07399d1264e227d4","","437","<img id='selected' src='G_8.jpg' height='90'> <img id='selected' src='G_4.jpg' height='90'> <img src='G_5.jpg' height='90'> <img src='G_7.jpg' height='90'> <img src='G_6.jpg' height='90'> <img src='G_2.jpg' height='90'> <img src='G_1.jpg' height='90'> <img src='G_3.jpg' height='90'>","0","Learning example 1","",""
"","","","","","html-button-response","139","467394","0.0-111.1-0.1-0.1","31","1","2025-02-02 03:52:46","bc01a2b6f61d06f6604adb8657495020","75.203.11.166","Mozilla/5.0 (Windows NT 10.0; Win64; x64) AppleWebKit/537.36 (KHTML, like Gecko) Chrome/132.0.0.0 Safari/537.36","WebKit","Chrome","132.0.0.0","Windows","10.0","https://app.prolific.com/","en-US,en;q=0.9","5d5580165514d80017cd1999","679edb085803f58d6bbd31ca","679eebfd07399d1264e227d4","","517","<img id='selected' src='G_8.jpg' height='90'> <img id='selected' src='G_4.jpg' height='90'> <img src='G_5.jpg' height='90'> <img src='G_7.jpg' height='90'> <img src='G_6.jpg' height='90'> <img src='G_2.jpg' height='90'> <img src='G_1.jpg' height='90'> <img src='G_3.jpg' height='90'>","1","Learning example 1","",""
"","","","","","html-button-response","140","467606","0.0-112.0","31","1","2025-02-02 03:52:46","bc01a2b6f61d06f6604adb8657495020","75.203.11.166","Mozilla/5.0 (Windows NT 10.0; Win64; x64) AppleWebKit/537.36 (KHTML, like Gecko) Chrome/132.0.0.0 Safari/537.36","WebKit","Chrome","132.0.0.0","Windows","10.0","https://app.prolific.com/","en-US,en;q=0.9","5d5580165514d80017cd1999","679edb085803f58d6bbd31ca","679eebfd07399d1264e227d4","","null","<img  src='G_8.jpg' height='90'> <img  src='G_4.jpg' height='90'> <img src='G_5.jpg' height='90'> <img src='G_7.jpg' height='90'> <img src='G_6.jpg' height='90'> <img src='G_2.jpg' height='90'> <img src='G_1.jpg' height='90'> <img src='G_3.jpg' height='90'>","null","Learning example 1","",""
"","","","","","html-button-response","141","468024","0.0-113.0","31","1","2025-02-02 03:52:46","bc01a2b6f61d06f6604adb8657495020","75.203.11.166","Mozilla/5.0 (Windows NT 10.0; Win64; x64) AppleWebKit/537.36 (KHTML, like Gecko) Chrome/132.0.0.0 Safari/537.36","WebKit","Chrome","132.0.0.0","Windows","10.0","https://app.prolific.com/","en-US,en;q=0.9","5d5580165514d80017cd1999","679edb085803f58d6bbd31ca","679eebfd07399d1264e227d4","","null","<img  src='G_8.jpg' height='90'> <img id='selected'  src='G_4.jpg' height='90'> <img src='G_5.jpg' height='90'> <img src='G_7.jpg' height='90'> <img src='G_6.jpg' height='90'> <img src='G_2.jpg' height='90'> <img src='G_1.jpg' height='90'> <img src='G_3.jpg' height='90'>","null","Learning example 1","",""
"","","","","","html-button-response","142","468351","0.0-114.0","31","1","2025-02-02 03:52:46","bc01a2b6f61d06f6604adb8657495020","75.203.11.166","Mozilla/5.0 (Windows NT 10.0; Win64; x64) AppleWebKit/537.36 (KHTML, like Gecko) Chrome/132.0.0.0 Safari/537.36","WebKit","Chrome","132.0.0.0","Windows","10.0","https://app.prolific.com/","en-US,en;q=0.9","5d5580165514d80017cd1999","679edb085803f58d6bbd31ca","679eebfd07399d1264e227d4","","null","<img  src='G_8.jpg' height='90'> <img id='selected'  src='G_4.jpg' height='90'> <img id='selected' src='G_5.jpg' height='90'> <img src='G_7.jpg' height='90'> <img src='G_6.jpg' height='90'> <img src='G_2.jpg' height='90'> <img src='G_1.jpg' height='90'> <img src='G_3.jpg' height='90'>","null","Learning example 1","",""
"","","","","","html-button-response","143","468505","0.0-115.0","31","1","2025-02-02 03:52:46","bc01a2b6f61d06f6604adb8657495020","75.203.11.166","Mozilla/5.0 (Windows NT 10.0; Win64; x64) AppleWebKit/537.36 (KHTML, like Gecko) Chrome/132.0.0.0 Safari/537.36","WebKit","Chrome","132.0.0.0","Windows","10.0","https://app.prolific.com/","en-US,en;q=0.9","5d5580165514d80017cd1999","679edb085803f58d6bbd31ca","679eebfd07399d1264e227d4","","150","<img  src='G_8.jpg' height='90'> <img id='swapped' src='G_5.jpg' height='90'> <img id='swapped'  src='G_4.jpg' height='90'> <img src='G_7.jpg' height='90'> <img src='G_6.jpg' height='90'> <img src='G_2.jpg' height='90'> <img src='G_1.jpg' height='90'> <img src='G_3.jpg' height='90'>","1","Learning example 1","",""
"","","","","","html-button-response","144","469154","0.0-116.0-0.0-0.0","31","1","2025-02-02 03:52:46","bc01a2b6f61d06f6604adb8657495020","75.203.11.166","Mozilla/5.0 (Windows NT 10.0; Win64; x64) AppleWebKit/537.36 (KHTML, like Gecko) Chrome/132.0.0.0 Safari/537.36","WebKit","Chrome","132.0.0.0","Windows","10.0","https://app.prolific.com/","en-US,en;q=0.9","5d5580165514d80017cd1999","679edb085803f58d6bbd31ca","679eebfd07399d1264e227d4","","645","<img  src='G_8.jpg' height='90'> <img id='swapped' src='G_5.jpg' height='90'> <img id='swapped'  src='G_4.jpg' height='90'> <img src='G_7.jpg' height='90'> <img src='G_6.jpg' height='90'> <img src='G_2.jpg' height='90'> <img src='G_1.jpg' height='90'> <img src='G_3.jpg' height='90'>","2","Learning example 1","",""
"","","","","","html-button-response","145","469370","0.0-117.0","31","1","2025-02-02 03:52:46","bc01a2b6f61d06f6604adb8657495020","75.203.11.166","Mozilla/5.0 (Windows NT 10.0; Win64; x64) AppleWebKit/537.36 (KHTML, like Gecko) Chrome/132.0.0.0 Safari/537.36","WebKit","Chrome","132.0.0.0","Windows","10.0","https://app.prolific.com/","en-US,en;q=0.9","5d5580165514d80017cd1999","679edb085803f58d6bbd31ca","679eebfd07399d1264e227d4","","null","<img  src='G_8.jpg' height='90'> <img  src='G_5.jpg' height='90'> <img   src='G_4.jpg' height='90'> <img src='G_7.jpg' height='90'> <img src='G_6.jpg' height='90'> <img src='G_2.jpg' height='90'> <img src='G_1.jpg' height='90'> <img src='G_3.jpg' height='90'>","null","Learning example 1","",""
"","","","","","html-button-response","146","469787","0.0-118.0","31","1","2025-02-02 03:52:46","bc01a2b6f61d06f6604adb8657495020","75.203.11.166","Mozilla/5.0 (Windows NT 10.0; Win64; x64) AppleWebKit/537.36 (KHTML, like Gecko) Chrome/132.0.0.0 Safari/537.36","WebKit","Chrome","132.0.0.0","Windows","10.0","https://app.prolific.com/","en-US,en;q=0.9","5d5580165514d80017cd1999","679edb085803f58d6bbd31ca","679eebfd07399d1264e227d4","","null","<img id='selected'  src='G_8.jpg' height='90'> <img  src='G_5.jpg' height='90'> <img   src='G_4.jpg' height='90'> <img src='G_7.jpg' height='90'> <img src='G_6.jpg' height='90'> <img src='G_2.jpg' height='90'> <img src='G_1.jpg' height='90'> <img src='G_3.jpg' height='90'>","null","Learning example 1","",""
