"success","timeout","failed_images","failed_audio","failed_video","trial_type","trial_index","time_elapsed","internal_node_id","run_id","condition","recorded_at","source_code_version","ip","user_agent","device","browser","browser_version","platform","platform_version","referer","accept_language","PROLIFIC_PID","STUDY_ID","SESSION_ID","view_history","rt","stimulus","response","phase","question_order","presented_choices"
"true","false","[]","[]","[]","preload","0","1039","0.0-0.0","32","1","2025-02-02 03:52:59","bc01a2b6f61d06f6604adb8657495020","109.166.49.198","Mozilla/5.0 (Windows NT 10.0; Win64; x64) AppleWebKit/537.36 (KHTML, like Gecko) Chrome/132.0.0.0 Safari/537.36","WebKit","Chrome","132.0.0.0","Windows","10.0","https://app.prolific.com/","en-GB,en-US;q=0.9,en;q=0.8","6762c5c001ce66a8d666441a","679edb085803f58d6bbd31ca","679eec104d1f034397408ef1","","","","","","",""
"","","","","","instructions","1","15266","0.0-1.0","32","1","2025-02-02 03:52:59","bc01a2b6f61d06f6604adb8657495020","109.166.49.198","Mozilla/5.0 (Windows NT 10.0; Win64; x64) AppleWebKit/537.36 (KHTML, like Gecko) Chrome/132.0.0.0 Safari/537.36","WebKit","Chrome","132.0.0.0","Windows","10.0","https://app.prolific.com/","en-GB,en-US;q=0.9,en;q=0.8","6762c5c001ce66a8d666441a","679edb085803f58d6bbd31ca","679eec104d1f034397408ef1","[{""page_index"":0,""viewing_time"":14222}]","14223","","","","",""
"","","","","","html-keyboard-response","2","15773","0.0-2.0","32","1","2025-02-02 03:52:59","bc01a2b6f61d06f6604adb8657495020","109.166.49.198","Mozilla/5.0 (Windows NT 10.0; Win64; x64) AppleWebKit/537.36 (KHTML, like Gecko) Chrome/132.0.0.0 Safari/537.36","WebKit","Chrome","132.0.0.0","Windows","10.0","https://app.prolific.com/","en-GB,en-US;q=0.9,en;q=0.8","6762c5c001ce66a8d666441a","679edb085803f58d6bbd31ca","679eec104d1f034397408ef1","","null","<p> + <p/>","null","","",""
"","","","","","instructions","3","208441","0.0-3.0","32","1","2025-02-02 03:52:59","bc01a2b6f61d06f6604adb8657495020","109.166.49.198","Mozilla/5.0 (Windows NT 10.0; Win64; x64) AppleWebKit/537.36 (KHTML, like Gecko) Chrome/132.0.0.0 Safari/537.36","WebKit","Chrome","132.0.0.0","Windows","10.0","https://app.prolific.com/","en-GB,en-US;q=0.9,en;q=0.8","6762c5c001ce66a8d666441a","679edb085803f58d6bbd31ca","679eec104d1f034397408ef1","[{""page_index"":0,""viewing_time"":23239},{""page_index"":1,""viewing_time"":43078},{""page_index"":2,""viewing_time"":72879},{""page_index"":3,""viewing_time"":7693},{""page_index"":4,""viewing_time"":45779}]","192668","","","","",""
"","","","","","html-button-response","4","263315","0.0-4.0-0.0-0.0","32","1","2025-02-02 03:52:59","bc01a2b6f61d06f6604adb8657495020","109.166.49.198","Mozilla/5.0 (Windows NT 10.0; Win64; x64) AppleWebKit/537.36 (KHTML, like Gecko) Chrome/132.0.0.0 Safari/537.36","WebKit","Chrome","132.0.0.0","Windows","10.0","https://app.prolific.com/","en-GB,en-US;q=0.9,en;q=0.8","6762c5c001ce66a8d666441a","679edb085803f58d6bbd31ca","679eec104d1f034397408ef1","","54870","","0","Intro Trial","",""
"","","","","","html-button-response","5","265110","0.0-4.1-0.1-0.1","32","1","2025-02-02 03:52:59","bc01a2b6f61d06f6604adb8657495020","109.166.49.198","Mozilla/5.0 (Windows NT 10.0; Win64; x64) AppleWebKit/537.36 (KHTML, like Gecko) Chrome/132.0.0.0 Safari/537.36","WebKit","Chrome","132.0.0.0","Windows","10.0","https://app.prolific.com/","en-GB,en-US;q=0.9,en;q=0.8","6762c5c001ce66a8d666441a","679edb085803f58d6bbd31ca","679eec104d1f034397408ef1","","1795","","3","Intro Trial","",""
"","","","","","html-button-response","6","275460","0.0-4.2-0.2-0.2","32","1","2025-02-02 03:52:59","bc01a2b6f61d06f6604adb8657495020","109.166.49.198","Mozilla/5.0 (Windows NT 10.0; Win64; x64) AppleWebKit/537.36 (KHTML, like Gecko) Chrome/132.0.0.0 Safari/537.36","WebKit","Chrome","132.0.0.0","Windows","10.0","https://app.prolific.com/","en-GB,en-US;q=0.9,en;q=0.8","6762c5c001ce66a8d666441a","679edb085803f58d6bbd31ca","679eec104d1f034397408ef1","","10350","","5","Intro Trial","",""
"","","","","","html-keyboard-response","7","298174","0.0-5.0","32","1","2025-02-02 03:52:59","bc01a2b6f61d06f6604adb8657495020","109.166.49.198","Mozilla/5.0 (Windows NT 10.0; Win64; x64) AppleWebKit/537.36 (KHTML, like Gecko) Chrome/132.0.0.0 Safari/537.36","WebKit","Chrome","132.0.0.0","Windows","10.0","https://app.prolific.com/","en-GB,en-US;q=0.9,en;q=0.8","6762c5c001ce66a8d666441a","679edb085803f58d6bbd31ca","679eec104d1f034397408ef1","","22714","[""You sorted incorrectly by using the balance 1 times. <br><br> <img src='G_1.jpg' height='90'><img src='G_2.jpg' height='90'><img src='G_3.jpg' height='90'><img src='G_4.jpg' height='90'><img src='G_5.jpg' height='90'><br><br> Your final order is 4,2,3,5,1<br><br><br>Omgne Sort in this game will allow you to sort correctly by using the balance 8 times. Press Enter to learn it!""]","control","","",""
"","","","","","html-keyboard-response","8","298461","0.0-6.0","32","1","2025-02-02 03:52:59","bc01a2b6f61d06f6604adb8657495020","109.166.49.198","Mozilla/5.0 (Windows NT 10.0; Win64; x64) AppleWebKit/537.36 (KHTML, like Gecko) Chrome/132.0.0.0 Safari/537.36","WebKit","Chrome","132.0.0.0","Windows","10.0","https://app.prolific.com/","en-GB,en-US;q=0.9,en;q=0.8","6762c5c001ce66a8d666441a","679edb085803f58d6bbd31ca","679eec104d1f034397408ef1","","286","<p>Welcome to the learning phase! <br><br> You will learn by six examples. The following learning trials will not be used to calculate your performance. <br><br> Press Enter to continue.<p/>","c","","",""
"","","","","","html-keyboard-response","9","306174","0.0-7.0","32","1","2025-02-02 03:52:59","bc01a2b6f61d06f6604adb8657495020","109.166.49.198","Mozilla/5.0 (Windows NT 10.0; Win64; x64) AppleWebKit/537.36 (KHTML, like Gecko) Chrome/132.0.0.0 Safari/537.36","WebKit","Chrome","132.0.0.0","Windows","10.0","https://app.prolific.com/","en-GB,en-US;q=0.9,en;q=0.8","6762c5c001ce66a8d666441a","679edb085803f58d6bbd31ca","679eec104d1f034397408ef1","","7713","[""Example 1<br><br>You will watch Omnge Sort in action. Try to identify any patterns in the comparisons made by this method. <br><br>Press Enter to continue.""]","enter","","",""
"","","","","","html-keyboard-response","10","306677","0.0-8.0","32","1","2025-02-02 03:52:59","bc01a2b6f61d06f6604adb8657495020","109.166.49.198","Mozilla/5.0 (Windows NT 10.0; Win64; x64) AppleWebKit/537.36 (KHTML, like Gecko) Chrome/132.0.0.0 Safari/537.36","WebKit","Chrome","132.0.0.0","Windows","10.0","https://app.prolific.com/","en-GB,en-US;q=0.9,en;q=0.8","6762c5c001ce66a8d666441a","679edb085803f58d6bbd31ca","679eec104d1f034397408ef1","","null","<img id='selected' src='G_7.jpg' height='90'> <img src='G_5.jpg' height='90'> <img src='G_1.jpg' height='90'> <img src='G_9.jpg' height='90'> <img src='G_3.jpg' height='90'>","null","Animation0","",""
"","","","","","html-keyboard-response","11","307179","0.0-9.0","32","1","2025-02-02 03:52:59","bc01a2b6f61d06f6604adb8657495020","109.166.49.198","Mozilla/5.0 (Windows NT 10.0; Win64; x64) AppleWebKit/537.36 (KHTML, like Gecko) Chrome/132.0.0.0 Safari/537.36","WebKit","Chrome","132.0.0.0","Windows","10.0","https://app.prolific.com/","en-GB,en-US;q=0.9,en;q=0.8","6762c5c001ce66a8d666441a","679edb085803f58d6bbd31ca","679eec104d1f034397408ef1","","null","<img id='selected' src='G_7.jpg' height='90'> <img id='selected' src='G_5.jpg' height='90'> <img src='G_1.jpg' height='90'> <img src='G_9.jpg' height='90'> <img src='G_3.jpg' height='90'>","null","Animation0","",""
"","","","","","html-keyboard-response","12","307681","0.0-10.0","32","1","2025-02-02 03:52:59","bc01a2b6f61d06f6604adb8657495020","109.166.49.198","Mozilla/5.0 (Windows NT 10.0; Win64; x64) AppleWebKit/537.36 (KHTML, like Gecko) Chrome/132.0.0.0 Safari/537.36","WebKit","Chrome","132.0.0.0","Windows","10.0","https://app.prolific.com/","en-GB,en-US;q=0.9,en;q=0.8","6762c5c001ce66a8d666441a","679edb085803f58d6bbd31ca","679eec104d1f034397408ef1","","null","<img id='swapped' src='G_5.jpg' height='90'> <img id='swapped' src='G_7.jpg' height='90'> <img src='G_1.jpg' height='90'> <img src='G_9.jpg' height='90'> <img src='G_3.jpg' height='90'>","null","Animation0","",""
"","","","","","html-keyboard-response","13","307984","0.0-11.0","32","1","2025-02-02 03:52:59","bc01a2b6f61d06f6604adb8657495020","109.166.49.198","Mozilla/5.0 (Windows NT 10.0; Win64; x64) AppleWebKit/537.36 (KHTML, like Gecko) Chrome/132.0.0.0 Safari/537.36","WebKit","Chrome","132.0.0.0","Windows","10.0","https://app.prolific.com/","en-GB,en-US;q=0.9,en;q=0.8","6762c5c001ce66a8d666441a","679edb085803f58d6bbd31ca","679eec104d1f034397408ef1","","null","<img  src='G_5.jpg' height='90'> <img  src='G_7.jpg' height='90'> <img src='G_1.jpg' height='90'> <img src='G_9.jpg' height='90'> <img src='G_3.jpg' height='90'>","null","Animation0","",""
"","","","","","html-keyboard-response","14","308485","0.0-12.0","32","1","2025-02-02 03:52:59","bc01a2b6f61d06f6604adb8657495020","109.166.49.198","Mozilla/5.0 (Windows NT 10.0; Win64; x64) AppleWebKit/537.36 (KHTML, like Gecko) Chrome/132.0.0.0 Safari/537.36","WebKit","Chrome","132.0.0.0","Windows","10.0","https://app.prolific.com/","en-GB,en-US;q=0.9,en;q=0.8","6762c5c001ce66a8d666441a","679edb085803f58d6bbd31ca","679eec104d1f034397408ef1","","null","<img  src='G_5.jpg' height='90'> <img id='selected'  src='G_7.jpg' height='90'> <img src='G_1.jpg' height='90'> <img src='G_9.jpg' height='90'> <img src='G_3.jpg' height='90'>","null","Animation0","",""
"","","","","","html-keyboard-response","15","308988","0.0-13.0","32","1","2025-02-02 03:52:59","bc01a2b6f61d06f6604adb8657495020","109.166.49.198","Mozilla/5.0 (Windows NT 10.0; Win64; x64) AppleWebKit/537.36 (KHTML, like Gecko) Chrome/132.0.0.0 Safari/537.36","WebKit","Chrome","132.0.0.0","Windows","10.0","https://app.prolific.com/","en-GB,en-US;q=0.9,en;q=0.8","6762c5c001ce66a8d666441a","679edb085803f58d6bbd31ca","679eec104d1f034397408ef1","","null","<img  src='G_5.jpg' height='90'> <img id='selected'  src='G_7.jpg' height='90'> <img id='selected' src='G_1.jpg' height='90'> <img src='G_9.jpg' height='90'> <img src='G_3.jpg' height='90'>","null","Animation0","",""
"","","","","","html-keyboard-response","16","309491","0.0-14.0","32","1","2025-02-02 03:52:59","bc01a2b6f61d06f6604adb8657495020","109.166.49.198","Mozilla/5.0 (Windows NT 10.0; Win64; x64) AppleWebKit/537.36 (KHTML, like Gecko) Chrome/132.0.0.0 Safari/537.36","WebKit","Chrome","132.0.0.0","Windows","10.0","https://app.prolific.com/","en-GB,en-US;q=0.9,en;q=0.8","6762c5c001ce66a8d666441a","679edb085803f58d6bbd31ca","679eec104d1f034397408ef1","","null","<img  src='G_5.jpg' height='90'> <img id='selected'  src='G_7.jpg' height='90'> <img id='selected' src='G_1.jpg' height='90'> <img src='G_9.jpg' height='90'> <img src='G_3.jpg' height='90'>","null","Animation0","",""
"","","","","","html-keyboard-response","17","309793","0.0-15.0","32","1","2025-02-02 03:52:59","bc01a2b6f61d06f6604adb8657495020","109.166.49.198","Mozilla/5.0 (Windows NT 10.0; Win64; x64) AppleWebKit/537.36 (KHTML, like Gecko) Chrome/132.0.0.0 Safari/537.36","WebKit","Chrome","132.0.0.0","Windows","10.0","https://app.prolific.com/","en-GB,en-US;q=0.9,en;q=0.8","6762c5c001ce66a8d666441a","679edb085803f58d6bbd31ca","679eec104d1f034397408ef1","","null","<img  src='G_5.jpg' height='90'> <img   src='G_7.jpg' height='90'> <img  src='G_1.jpg' height='90'> <img src='G_9.jpg' height='90'> <img src='G_3.jpg' height='90'>","null","Animation0","",""
"","","","","","html-keyboard-response","18","310296","0.0-16.0","32","1","2025-02-02 03:52:59","bc01a2b6f61d06f6604adb8657495020","109.166.49.198","Mozilla/5.0 (Windows NT 10.0; Win64; x64) AppleWebKit/537.36 (KHTML, like Gecko) Chrome/132.0.0.0 Safari/537.36","WebKit","Chrome","132.0.0.0","Windows","10.0","https://app.prolific.com/","en-GB,en-US;q=0.9,en;q=0.8","6762c5c001ce66a8d666441a","679edb085803f58d6bbd31ca","679eec104d1f034397408ef1","","null","<img  src='G_5.jpg' height='90'> <img   src='G_7.jpg' height='90'> <img id='selected'  src='G_1.jpg' height='90'> <img src='G_9.jpg' height='90'> <img src='G_3.jpg' height='90'>","null","Animation0","",""
"","","","","","html-keyboard-response","19","310797","0.0-17.0","32","1","2025-02-02 03:52:59","bc01a2b6f61d06f6604adb8657495020","109.166.49.198","Mozilla/5.0 (Windows NT 10.0; Win64; x64) AppleWebKit/537.36 (KHTML, like Gecko) Chrome/132.0.0.0 Safari/537.36","WebKit","Chrome","132.0.0.0","Windows","10.0","https://app.prolific.com/","en-GB,en-US;q=0.9,en;q=0.8","6762c5c001ce66a8d666441a","679edb085803f58d6bbd31ca","679eec104d1f034397408ef1","","null","<img  src='G_5.jpg' height='90'> <img   src='G_7.jpg' height='90'> <img id='selected'  src='G_1.jpg' height='90'> <img id='selected' src='G_9.jpg' height='90'> <img src='G_3.jpg' height='90'>","null","Animation0","",""
"","","","","","html-keyboard-response","20","311307","0.0-18.0","32","1","2025-02-02 03:52:59","bc01a2b6f61d06f6604adb8657495020","109.166.49.198","Mozilla/5.0 (Windows NT 10.0; Win64; x64) AppleWebKit/537.36 (KHTML, like Gecko) Chrome/132.0.0.0 Safari/537.36","WebKit","Chrome","132.0.0.0","Windows","10.0","https://app.prolific.com/","en-GB,en-US;q=0.9,en;q=0.8","6762c5c001ce66a8d666441a","679edb085803f58d6bbd31ca","679eec104d1f034397408ef1","","null","<img  src='G_5.jpg' height='90'> <img   src='G_7.jpg' height='90'> <img id='selected'  src='G_1.jpg' height='90'> <img id='selected' src='G_9.jpg' height='90'> <img src='G_3.jpg' height='90'>","null","Animation0","",""
"","","","","","html-keyboard-response","21","311610","0.0-19.0","32","1","2025-02-02 03:52:59","bc01a2b6f61d06f6604adb8657495020","109.166.49.198","Mozilla/5.0 (Windows NT 10.0; Win64; x64) AppleWebKit/537.36 (KHTML, like Gecko) Chrome/132.0.0.0 Safari/537.36","WebKit","Chrome","132.0.0.0","Windows","10.0","https://app.prolific.com/","en-GB,en-US;q=0.9,en;q=0.8","6762c5c001ce66a8d666441a","679edb085803f58d6bbd31ca","679eec104d1f034397408ef1","","null","<img  src='G_5.jpg' height='90'> <img   src='G_7.jpg' height='90'> <img   src='G_1.jpg' height='90'> <img  src='G_9.jpg' height='90'> <img src='G_3.jpg' height='90'>","null","Animation0","",""
"","","","","","html-keyboard-response","22","312113","0.0-20.0","32","1","2025-02-02 03:52:59","bc01a2b6f61d06f6604adb8657495020","109.166.49.198","Mozilla/5.0 (Windows NT 10.0; Win64; x64) AppleWebKit/537.36 (KHTML, like Gecko) Chrome/132.0.0.0 Safari/537.36","WebKit","Chrome","132.0.0.0","Windows","10.0","https://app.prolific.com/","en-GB,en-US;q=0.9,en;q=0.8","6762c5c001ce66a8d666441a","679edb085803f58d6bbd31ca","679eec104d1f034397408ef1","","null","<img  src='G_5.jpg' height='90'> <img   src='G_7.jpg' height='90'> <img   src='G_1.jpg' height='90'> <img id='selected'  src='G_9.jpg' height='90'> <img src='G_3.jpg' height='90'>","null","Animation0","",""
"","","","","","html-keyboard-response","23","312622","0.0-21.0","32","1","2025-02-02 03:52:59","bc01a2b6f61d06f6604adb8657495020","109.166.49.198","Mozilla/5.0 (Windows NT 10.0; Win64; x64) AppleWebKit/537.36 (KHTML, like Gecko) Chrome/132.0.0.0 Safari/537.36","WebKit","Chrome","132.0.0.0","Windows","10.0","https://app.prolific.com/","en-GB,en-US;q=0.9,en;q=0.8","6762c5c001ce66a8d666441a","679edb085803f58d6bbd31ca","679eec104d1f034397408ef1","","null","<img  src='G_5.jpg' height='90'> <img   src='G_7.jpg' height='90'> <img   src='G_1.jpg' height='90'> <img id='selected'  src='G_9.jpg' height='90'> <img id='selected' src='G_3.jpg' height='90'>","null","Animation0","",""
"","","","","","html-keyboard-response","24","313122","0.0-22.0","32","1","2025-02-02 03:52:59","bc01a2b6f61d06f6604adb8657495020","109.166.49.198","Mozilla/5.0 (Windows NT 10.0; Win64; x64) AppleWebKit/537.36 (KHTML, like Gecko) Chrome/132.0.0.0 Safari/537.36","WebKit","Chrome","132.0.0.0","Windows","10.0","https://app.prolific.com/","en-GB,en-US;q=0.9,en;q=0.8","6762c5c001ce66a8d666441a","679edb085803f58d6bbd31ca","679eec104d1f034397408ef1","","null","<img  src='G_5.jpg' height='90'> <img   src='G_7.jpg' height='90'> <img   src='G_1.jpg' height='90'> <img id='selected'  src='G_9.jpg' height='90'> <img id='selected' src='G_3.jpg' height='90'>","null","Animation0","",""
"","","","","","html-keyboard-response","25","313423","0.0-23.0","32","1","2025-02-02 03:52:59","bc01a2b6f61d06f6604adb8657495020","109.166.49.198","Mozilla/5.0 (Windows NT 10.0; Win64; x64) AppleWebKit/537.36 (KHTML, like Gecko) Chrome/132.0.0.0 Safari/537.36","WebKit","Chrome","132.0.0.0","Windows","10.0","https://app.prolific.com/","en-GB,en-US;q=0.9,en;q=0.8","6762c5c001ce66a8d666441a","679edb085803f58d6bbd31ca","679eec104d1f034397408ef1","","null","<img  src='G_5.jpg' height='90'> <img   src='G_7.jpg' height='90'> <img   src='G_1.jpg' height='90'> <img   src='G_9.jpg' height='90'> <img  src='G_3.jpg' height='90'>","null","Animation0","",""
"","","","","","html-keyboard-response","26","319759","0.0-24.0","32","1","2025-02-02 03:52:59","bc01a2b6f61d06f6604adb8657495020","109.166.49.198","Mozilla/5.0 (Windows NT 10.0; Win64; x64) AppleWebKit/537.36 (KHTML, like Gecko) Chrome/132.0.0.0 Safari/537.36","WebKit","Chrome","132.0.0.0","Windows","10.0","https://app.prolific.com/","en-GB,en-US;q=0.9,en;q=0.8","6762c5c001ce66a8d666441a","679edb085803f58d6bbd31ca","679eec104d1f034397408ef1","","6333","[""Did you notice any patterns? <br><br>Press Enter to watch that example again and follow the steps of Omgne Sort.""]","enter","","",""
"","","","","","html-button-response","27","320165","0.0-25.0","32","1","2025-02-02 03:52:59","bc01a2b6f61d06f6604adb8657495020","109.166.49.198","Mozilla/5.0 (Windows NT 10.0; Win64; x64) AppleWebKit/537.36 (KHTML, like Gecko) Chrome/132.0.0.0 Safari/537.36","WebKit","Chrome","132.0.0.0","Windows","10.0","https://app.prolific.com/","en-GB,en-US;q=0.9,en;q=0.8","6762c5c001ce66a8d666441a","679edb085803f58d6bbd31ca","679eec104d1f034397408ef1","","null","<img id='selected' src='G_7.jpg' height='90'> <img src='G_5.jpg' height='90'> <img src='G_1.jpg' height='90'> <img src='G_9.jpg' height='90'> <img src='G_3.jpg' height='90'>","null","Learning example 0","",""
"","","","","","html-button-response","28","320482","0.0-26.0","32","1","2025-02-02 03:52:59","bc01a2b6f61d06f6604adb8657495020","109.166.49.198","Mozilla/5.0 (Windows NT 10.0; Win64; x64) AppleWebKit/537.36 (KHTML, like Gecko) Chrome/132.0.0.0 Safari/537.36","WebKit","Chrome","132.0.0.0","Windows","10.0","https://app.prolific.com/","en-GB,en-US;q=0.9,en;q=0.8","6762c5c001ce66a8d666441a","679edb085803f58d6bbd31ca","679eec104d1f034397408ef1","","null","<img id='selected' src='G_7.jpg' height='90'> <img id='selected' src='G_5.jpg' height='90'> <img src='G_1.jpg' height='90'> <img src='G_9.jpg' height='90'> <img src='G_3.jpg' height='90'>","null","Learning example 0","",""
"","","","","","html-button-response","29","320797","0.0-27.0","32","1","2025-02-02 03:52:59","bc01a2b6f61d06f6604adb8657495020","109.166.49.198","Mozilla/5.0 (Windows NT 10.0; Win64; x64) AppleWebKit/537.36 (KHTML, like Gecko) Chrome/132.0.0.0 Safari/537.36","WebKit","Chrome","132.0.0.0","Windows","10.0","https://app.prolific.com/","en-GB,en-US;q=0.9,en;q=0.8","6762c5c001ce66a8d666441a","679edb085803f58d6bbd31ca","679eec104d1f034397408ef1","","null","<img id='swapped' src='G_5.jpg' height='90'> <img id='swapped' src='G_7.jpg' height='90'> <img src='G_1.jpg' height='90'> <img src='G_9.jpg' height='90'> <img src='G_3.jpg' height='90'>","null","Learning example 0","",""
"","","","","","html-button-response","30","375589","0.0-28.0-0.0-0.0","32","1","2025-02-02 03:52:59","bc01a2b6f61d06f6604adb8657495020","109.166.49.198","Mozilla/5.0 (Windows NT 10.0; Win64; x64) AppleWebKit/537.36 (KHTML, like Gecko) Chrome/132.0.0.0 Safari/537.36","WebKit","Chrome","132.0.0.0","Windows","10.0","https://app.prolific.com/","en-GB,en-US;q=0.9,en;q=0.8","6762c5c001ce66a8d666441a","679edb085803f58d6bbd31ca","679eec104d1f034397408ef1","","54788","<img id='swapped' src='G_5.jpg' height='90'> <img id='swapped' src='G_7.jpg' height='90'> <img src='G_1.jpg' height='90'> <img src='G_9.jpg' height='90'> <img src='G_3.jpg' height='90'>","2","Learning example 0","",""
"","","","","","html-button-response","31","379181","0.0-28.1-0.1-0.1","32","1","2025-02-02 03:52:59","bc01a2b6f61d06f6604adb8657495020","109.166.49.198","Mozilla/5.0 (Windows NT 10.0; Win64; x64) AppleWebKit/537.36 (KHTML, like Gecko) Chrome/132.0.0.0 Safari/537.36","WebKit","Chrome","132.0.0.0","Windows","10.0","https://app.prolific.com/","en-GB,en-US;q=0.9,en;q=0.8","6762c5c001ce66a8d666441a","679edb085803f58d6bbd31ca","679eec104d1f034397408ef1","","3574","<img id='swapped' src='G_5.jpg' height='90'> <img id='swapped' src='G_7.jpg' height='90'> <img src='G_1.jpg' height='90'> <img src='G_9.jpg' height='90'> <img src='G_3.jpg' height='90'>","3","Learning example 0","",""
"","","","","","html-button-response","32","382624","0.0-28.2-0.2-0.2","32","1","2025-02-02 03:52:59","bc01a2b6f61d06f6604adb8657495020","109.166.49.198","Mozilla/5.0 (Windows NT 10.0; Win64; x64) AppleWebKit/537.36 (KHTML, like Gecko) Chrome/132.0.0.0 Safari/537.36","WebKit","Chrome","132.0.0.0","Windows","10.0","https://app.prolific.com/","en-GB,en-US;q=0.9,en;q=0.8","6762c5c001ce66a8d666441a","679edb085803f58d6bbd31ca","679eec104d1f034397408ef1","","3441","<img id='swapped' src='G_5.jpg' height='90'> <img id='swapped' src='G_7.jpg' height='90'> <img src='G_1.jpg' height='90'> <img src='G_9.jpg' height='90'> <img src='G_3.jpg' height='90'>","4","Learning example 0","",""
"","","","","","html-button-response","33","390271","0.0-28.3-0.3-0.3","32","1","2025-02-02 03:52:59","bc01a2b6f61d06f6604adb8657495020","109.166.49.198","Mozilla/5.0 (Windows NT 10.0; Win64; x64) AppleWebKit/537.36 (KHTML, like Gecko) Chrome/132.0.0.0 Safari/537.36","WebKit","Chrome","132.0.0.0","Windows","10.0","https://app.prolific.com/","en-GB,en-US;q=0.9,en;q=0.8","6762c5c001ce66a8d666441a","679edb085803f58d6bbd31ca","679eec104d1f034397408ef1","","7634","<img id='swapped' src='G_5.jpg' height='90'> <img id='swapped' src='G_7.jpg' height='90'> <img src='G_1.jpg' height='90'> <img src='G_9.jpg' height='90'> <img src='G_3.jpg' height='90'>","2","Learning example 0","",""
"","","","","","html-button-response","34","399971","0.0-28.4-0.4-0.4","32","1","2025-02-02 03:52:59","bc01a2b6f61d06f6604adb8657495020","109.166.49.198","Mozilla/5.0 (Windows NT 10.0; Win64; x64) AppleWebKit/537.36 (KHTML, like Gecko) Chrome/132.0.0.0 Safari/537.36","WebKit","Chrome","132.0.0.0","Windows","10.0","https://app.prolific.com/","en-GB,en-US;q=0.9,en;q=0.8","6762c5c001ce66a8d666441a","679edb085803f58d6bbd31ca","679eec104d1f034397408ef1","","9693","<img id='swapped' src='G_5.jpg' height='90'> <img id='swapped' src='G_7.jpg' height='90'> <img src='G_1.jpg' height='90'> <img src='G_9.jpg' height='90'> <img src='G_3.jpg' height='90'>","2","Learning example 0","",""
"","","","","","html-button-response","35","400489","0.0-28.5-0.5-0.5","32","1","2025-02-02 03:52:59","bc01a2b6f61d06f6604adb8657495020","109.166.49.198","Mozilla/5.0 (Windows NT 10.0; Win64; x64) AppleWebKit/537.36 (KHTML, like Gecko) Chrome/132.0.0.0 Safari/537.36","WebKit","Chrome","132.0.0.0","Windows","10.0","https://app.prolific.com/","en-GB,en-US;q=0.9,en;q=0.8","6762c5c001ce66a8d666441a","679edb085803f58d6bbd31ca","679eec104d1f034397408ef1","","518","<img id='swapped' src='G_5.jpg' height='90'> <img id='swapped' src='G_7.jpg' height='90'> <img src='G_1.jpg' height='90'> <img src='G_9.jpg' height='90'> <img src='G_3.jpg' height='90'>","3","Learning example 0","",""
"","","","","","html-button-response","36","403154","0.0-28.6-0.6-0.6","32","1","2025-02-02 03:52:59","bc01a2b6f61d06f6604adb8657495020","109.166.49.198","Mozilla/5.0 (Windows NT 10.0; Win64; x64) AppleWebKit/537.36 (KHTML, like Gecko) Chrome/132.0.0.0 Safari/537.36","WebKit","Chrome","132.0.0.0","Windows","10.0","https://app.prolific.com/","en-GB,en-US;q=0.9,en;q=0.8","6762c5c001ce66a8d666441a","679edb085803f58d6bbd31ca","679eec104d1f034397408ef1","","2649","<img id='swapped' src='G_5.jpg' height='90'> <img id='swapped' src='G_7.jpg' height='90'> <img src='G_1.jpg' height='90'> <img src='G_9.jpg' height='90'> <img src='G_3.jpg' height='90'>","0","Learning example 0","",""
"","","","","","html-button-response","37","404009","0.0-28.7-0.7-0.7","32","1","2025-02-02 03:52:59","bc01a2b6f61d06f6604adb8657495020","109.166.49.198","Mozilla/5.0 (Windows NT 10.0; Win64; x64) AppleWebKit/537.36 (KHTML, like Gecko) Chrome/132.0.0.0 Safari/537.36","WebKit","Chrome","132.0.0.0","Windows","10.0","https://app.prolific.com/","en-GB,en-US;q=0.9,en;q=0.8","6762c5c001ce66a8d666441a","679edb085803f58d6bbd31ca","679eec104d1f034397408ef1","","855","<img id='swapped' src='G_5.jpg' height='90'> <img id='swapped' src='G_7.jpg' height='90'> <img src='G_1.jpg' height='90'> <img src='G_9.jpg' height='90'> <img src='G_3.jpg' height='90'>","1","Learning example 0","",""
"","","","","","html-button-response","38","404219","0.0-29.0","32","1","2025-02-02 03:52:59","bc01a2b6f61d06f6604adb8657495020","109.166.49.198","Mozilla/5.0 (Windows NT 10.0; Win64; x64) AppleWebKit/537.36 (KHTML, like Gecko) Chrome/132.0.0.0 Safari/537.36","WebKit","Chrome","132.0.0.0","Windows","10.0","https://app.prolific.com/","en-GB,en-US;q=0.9,en;q=0.8","6762c5c001ce66a8d666441a","679edb085803f58d6bbd31ca","679eec104d1f034397408ef1","","null","<img  src='G_5.jpg' height='90'> <img  src='G_7.jpg' height='90'> <img src='G_1.jpg' height='90'> <img src='G_9.jpg' height='90'> <img src='G_3.jpg' height='90'>","null","Learning example 0","",""
"","","","","","html-button-response","39","404623","0.0-30.0","32","1","2025-02-02 03:52:59","bc01a2b6f61d06f6604adb8657495020","109.166.49.198","Mozilla/5.0 (Windows NT 10.0; Win64; x64) AppleWebKit/537.36 (KHTML, like Gecko) Chrome/132.0.0.0 Safari/537.36","WebKit","Chrome","132.0.0.0","Windows","10.0","https://app.prolific.com/","en-GB,en-US;q=0.9,en;q=0.8","6762c5c001ce66a8d666441a","679edb085803f58d6bbd31ca","679eec104d1f034397408ef1","","null","<img  src='G_5.jpg' height='90'> <img id='selected'  src='G_7.jpg' height='90'> <img src='G_1.jpg' height='90'> <img src='G_9.jpg' height='90'> <img src='G_3.jpg' height='90'>","null","Learning example 0","",""
"","","","","","html-button-response","40","404937","0.0-31.0","32","1","2025-02-02 03:52:59","bc01a2b6f61d06f6604adb8657495020","109.166.49.198","Mozilla/5.0 (Windows NT 10.0; Win64; x64) AppleWebKit/537.36 (KHTML, like Gecko) Chrome/132.0.0.0 Safari/537.36","WebKit","Chrome","132.0.0.0","Windows","10.0","https://app.prolific.com/","en-GB,en-US;q=0.9,en;q=0.8","6762c5c001ce66a8d666441a","679edb085803f58d6bbd31ca","679eec104d1f034397408ef1","","null","<img  src='G_5.jpg' height='90'> <img id='selected'  src='G_7.jpg' height='90'> <img id='selected' src='G_1.jpg' height='90'> <img src='G_9.jpg' height='90'> <img src='G_3.jpg' height='90'>","null","Learning example 0","",""
"","","","","","html-button-response","41","405250","0.0-32.0","32","1","2025-02-02 03:52:59","bc01a2b6f61d06f6604adb8657495020","109.166.49.198","Mozilla/5.0 (Windows NT 10.0; Win64; x64) AppleWebKit/537.36 (KHTML, like Gecko) Chrome/132.0.0.0 Safari/537.36","WebKit","Chrome","132.0.0.0","Windows","10.0","https://app.prolific.com/","en-GB,en-US;q=0.9,en;q=0.8","6762c5c001ce66a8d666441a","679edb085803f58d6bbd31ca","679eec104d1f034397408ef1","","null","<img  src='G_5.jpg' height='90'> <img id='selected'  src='G_7.jpg' height='90'> <img id='selected' src='G_1.jpg' height='90'> <img src='G_9.jpg' height='90'> <img src='G_3.jpg' height='90'>","null","Learning example 0","",""
"","","","","","html-button-response","42","407938","0.0-33.0-0.0-0.0","32","1","2025-02-02 03:52:59","bc01a2b6f61d06f6604adb8657495020","109.166.49.198","Mozilla/5.0 (Windows NT 10.0; Win64; x64) AppleWebKit/537.36 (KHTML, like Gecko) Chrome/132.0.0.0 Safari/537.36","WebKit","Chrome","132.0.0.0","Windows","10.0","https://app.prolific.com/","en-GB,en-US;q=0.9,en;q=0.8","6762c5c001ce66a8d666441a","679edb085803f58d6bbd31ca","679eec104d1f034397408ef1","","2688","<img  src='G_5.jpg' height='90'> <img id='selected'  src='G_7.jpg' height='90'> <img id='selected' src='G_1.jpg' height='90'> <img src='G_9.jpg' height='90'> <img src='G_3.jpg' height='90'>","0","Learning example 0","",""
"","","","","","html-button-response","43","408372","0.0-33.1-0.1-0.1","32","1","2025-02-02 03:52:59","bc01a2b6f61d06f6604adb8657495020","109.166.49.198","Mozilla/5.0 (Windows NT 10.0; Win64; x64) AppleWebKit/537.36 (KHTML, like Gecko) Chrome/132.0.0.0 Safari/537.36","WebKit","Chrome","132.0.0.0","Windows","10.0","https://app.prolific.com/","en-GB,en-US;q=0.9,en;q=0.8","6762c5c001ce66a8d666441a","679edb085803f58d6bbd31ca","679eec104d1f034397408ef1","","405","<img  src='G_5.jpg' height='90'> <img id='selected'  src='G_7.jpg' height='90'> <img id='selected' src='G_1.jpg' height='90'> <img src='G_9.jpg' height='90'> <img src='G_3.jpg' height='90'>","1","Learning example 0","",""
"","","","","","html-button-response","44","412894","0.0-33.2-0.2-0.2","32","1","2025-02-02 03:52:59","bc01a2b6f61d06f6604adb8657495020","109.166.49.198","Mozilla/5.0 (Windows NT 10.0; Win64; x64) AppleWebKit/537.36 (KHTML, like Gecko) Chrome/132.0.0.0 Safari/537.36","WebKit","Chrome","132.0.0.0","Windows","10.0","https://app.prolific.com/","en-GB,en-US;q=0.9,en;q=0.8","6762c5c001ce66a8d666441a","679edb085803f58d6bbd31ca","679eec104d1f034397408ef1","","4512","<img  src='G_5.jpg' height='90'> <img id='selected'  src='G_7.jpg' height='90'> <img id='selected' src='G_1.jpg' height='90'> <img src='G_9.jpg' height='90'> <img src='G_3.jpg' height='90'>","1","Learning example 0","",""
"","","","","","html-button-response","45","413340","0.0-33.3-0.3-0.3","32","1","2025-02-02 03:52:59","bc01a2b6f61d06f6604adb8657495020","109.166.49.198","Mozilla/5.0 (Windows NT 10.0; Win64; x64) AppleWebKit/537.36 (KHTML, like Gecko) Chrome/132.0.0.0 Safari/537.36","WebKit","Chrome","132.0.0.0","Windows","10.0","https://app.prolific.com/","en-GB,en-US;q=0.9,en;q=0.8","6762c5c001ce66a8d666441a","679edb085803f58d6bbd31ca","679eec104d1f034397408ef1","","441","<img  src='G_5.jpg' height='90'> <img id='selected'  src='G_7.jpg' height='90'> <img id='selected' src='G_1.jpg' height='90'> <img src='G_9.jpg' height='90'> <img src='G_3.jpg' height='90'>","2","Learning example 0","",""
"","","","","","html-button-response","46","413568","0.0-34.0","32","1","2025-02-02 03:52:59","bc01a2b6f61d06f6604adb8657495020","109.166.49.198","Mozilla/5.0 (Windows NT 10.0; Win64; x64) AppleWebKit/537.36 (KHTML, like Gecko) Chrome/132.0.0.0 Safari/537.36","WebKit","Chrome","132.0.0.0","Windows","10.0","https://app.prolific.com/","en-GB,en-US;q=0.9,en;q=0.8","6762c5c001ce66a8d666441a","679edb085803f58d6bbd31ca","679eec104d1f034397408ef1","","null","<img  src='G_5.jpg' height='90'> <img   src='G_7.jpg' height='90'> <img  src='G_1.jpg' height='90'> <img src='G_9.jpg' height='90'> <img src='G_3.jpg' height='90'>","null","Learning example 0","",""
"","","","","","html-button-response","47","413982","0.0-35.0","32","1","2025-02-02 03:52:59","bc01a2b6f61d06f6604adb8657495020","109.166.49.198","Mozilla/5.0 (Windows NT 10.0; Win64; x64) AppleWebKit/537.36 (KHTML, like Gecko) Chrome/132.0.0.0 Safari/537.36","WebKit","Chrome","132.0.0.0","Windows","10.0","https://app.prolific.com/","en-GB,en-US;q=0.9,en;q=0.8","6762c5c001ce66a8d666441a","679edb085803f58d6bbd31ca","679eec104d1f034397408ef1","","null","<img  src='G_5.jpg' height='90'> <img   src='G_7.jpg' height='90'> <img id='selected'  src='G_1.jpg' height='90'> <img src='G_9.jpg' height='90'> <img src='G_3.jpg' height='90'>","null","Learning example 0","",""
"","","","","","html-button-response","48","414287","0.0-36.0","32","1","2025-02-02 03:52:59","bc01a2b6f61d06f6604adb8657495020","109.166.49.198","Mozilla/5.0 (Windows NT 10.0; Win64; x64) AppleWebKit/537.36 (KHTML, like Gecko) Chrome/132.0.0.0 Safari/537.36","WebKit","Chrome","132.0.0.0","Windows","10.0","https://app.prolific.com/","en-GB,en-US;q=0.9,en;q=0.8","6762c5c001ce66a8d666441a","679edb085803f58d6bbd31ca","679eec104d1f034397408ef1","","null","<img  src='G_5.jpg' height='90'> <img   src='G_7.jpg' height='90'> <img id='selected'  src='G_1.jpg' height='90'> <img id='selected' src='G_9.jpg' height='90'> <img src='G_3.jpg' height='90'>","null","Learning example 0","",""
"","","","","","html-button-response","49","414595","0.0-37.0","32","1","2025-02-02 03:52:59","bc01a2b6f61d06f6604adb8657495020","109.166.49.198","Mozilla/5.0 (Windows NT 10.0; Win64; x64) AppleWebKit/537.36 (KHTML, like Gecko) Chrome/132.0.0.0 Safari/537.36","WebKit","Chrome","132.0.0.0","Windows","10.0","https://app.prolific.com/","en-GB,en-US;q=0.9,en;q=0.8","6762c5c001ce66a8d666441a","679edb085803f58d6bbd31ca","679eec104d1f034397408ef1","","null","<img  src='G_5.jpg' height='90'> <img   src='G_7.jpg' height='90'> <img id='selected'  src='G_1.jpg' height='90'> <img id='selected' src='G_9.jpg' height='90'> <img src='G_3.jpg' height='90'>","null","Learning example 0","",""
"","","","","","html-button-response","50","415740","0.0-38.0-0.0-0.0","32","1","2025-02-02 03:52:59","bc01a2b6f61d06f6604adb8657495020","109.166.49.198","Mozilla/5.0 (Windows NT 10.0; Win64; x64) AppleWebKit/537.36 (KHTML, like Gecko) Chrome/132.0.0.0 Safari/537.36","WebKit","Chrome","132.0.0.0","Windows","10.0","https://app.prolific.com/","en-GB,en-US;q=0.9,en;q=0.8","6762c5c001ce66a8d666441a","679edb085803f58d6bbd31ca","679eec104d1f034397408ef1","","1141","<img  src='G_5.jpg' height='90'> <img   src='G_7.jpg' height='90'> <img id='selected'  src='G_1.jpg' height='90'> <img id='selected' src='G_9.jpg' height='90'> <img src='G_3.jpg' height='90'>","2","Learning example 0","",""
"","","","","","html-button-response","51","416194","0.0-38.1-0.1-0.1","32","1","2025-02-02 03:52:59","bc01a2b6f61d06f6604adb8657495020","109.166.49.198","Mozilla/5.0 (Windows NT 10.0; Win64; x64) AppleWebKit/537.36 (KHTML, like Gecko) Chrome/132.0.0.0 Safari/537.36","WebKit","Chrome","132.0.0.0","Windows","10.0","https://app.prolific.com/","en-GB,en-US;q=0.9,en;q=0.8","6762c5c001ce66a8d666441a","679edb085803f58d6bbd31ca","679eec104d1f034397408ef1","","436","<img  src='G_5.jpg' height='90'> <img   src='G_7.jpg' height='90'> <img id='selected'  src='G_1.jpg' height='90'> <img id='selected' src='G_9.jpg' height='90'> <img src='G_3.jpg' height='90'>","3","Learning example 0","",""
"","","","","","html-button-response","52","416402","0.0-39.0","32","1","2025-02-02 03:52:59","bc01a2b6f61d06f6604adb8657495020","109.166.49.198","Mozilla/5.0 (Windows NT 10.0; Win64; x64) AppleWebKit/537.36 (KHTML, like Gecko) Chrome/132.0.0.0 Safari/537.36","WebKit","Chrome","132.0.0.0","Windows","10.0","https://app.prolific.com/","en-GB,en-US;q=0.9,en;q=0.8","6762c5c001ce66a8d666441a","679edb085803f58d6bbd31ca","679eec104d1f034397408ef1","","null","<img  src='G_5.jpg' height='90'> <img   src='G_7.jpg' height='90'> <img   src='G_1.jpg' height='90'> <img  src='G_9.jpg' height='90'> <img src='G_3.jpg' height='90'>","null","Learning example 0","",""
"","","","","","html-button-response","53","416821","0.0-40.0","32","1","2025-02-02 03:52:59","bc01a2b6f61d06f6604adb8657495020","109.166.49.198","Mozilla/5.0 (Windows NT 10.0; Win64; x64) AppleWebKit/537.36 (KHTML, like Gecko) Chrome/132.0.0.0 Safari/537.36","WebKit","Chrome","132.0.0.0","Windows","10.0","https://app.prolific.com/","en-GB,en-US;q=0.9,en;q=0.8","6762c5c001ce66a8d666441a","679edb085803f58d6bbd31ca","679eec104d1f034397408ef1","","null","<img  src='G_5.jpg' height='90'> <img   src='G_7.jpg' height='90'> <img   src='G_1.jpg' height='90'> <img id='selected'  src='G_9.jpg' height='90'> <img src='G_3.jpg' height='90'>","null","Learning example 0","",""
"","","","","","html-button-response","54","417125","0.0-41.0","32","1","2025-02-02 03:52:59","bc01a2b6f61d06f6604adb8657495020","109.166.49.198","Mozilla/5.0 (Windows NT 10.0; Win64; x64) AppleWebKit/537.36 (KHTML, like Gecko) Chrome/132.0.0.0 Safari/537.36","WebKit","Chrome","132.0.0.0","Windows","10.0","https://app.prolific.com/","en-GB,en-US;q=0.9,en;q=0.8","6762c5c001ce66a8d666441a","679edb085803f58d6bbd31ca","679eec104d1f034397408ef1","","null","<img  src='G_5.jpg' height='90'> <img   src='G_7.jpg' height='90'> <img   src='G_1.jpg' height='90'> <img id='selected'  src='G_9.jpg' height='90'> <img id='selected' src='G_3.jpg' height='90'>","null","Learning example 0","",""
"","","","","","html-button-response","55","417433","0.0-42.0","32","1","2025-02-02 03:52:59","bc01a2b6f61d06f6604adb8657495020","109.166.49.198","Mozilla/5.0 (Windows NT 10.0; Win64; x64) AppleWebKit/537.36 (KHTML, like Gecko) Chrome/132.0.0.0 Safari/537.36","WebKit","Chrome","132.0.0.0","Windows","10.0","https://app.prolific.com/","en-GB,en-US;q=0.9,en;q=0.8","6762c5c001ce66a8d666441a","679edb085803f58d6bbd31ca","679eec104d1f034397408ef1","","null","<img  src='G_5.jpg' height='90'> <img   src='G_7.jpg' height='90'> <img   src='G_1.jpg' height='90'> <img id='selected'  src='G_9.jpg' height='90'> <img id='selected' src='G_3.jpg' height='90'>","null","Learning example 0","",""
"","","","","","html-button-response","56","418438","0.0-43.0-0.0-0.0","32","1","2025-02-02 03:52:59","bc01a2b6f61d06f6604adb8657495020","109.166.49.198","Mozilla/5.0 (Windows NT 10.0; Win64; x64) AppleWebKit/537.36 (KHTML, like Gecko) Chrome/132.0.0.0 Safari/537.36","WebKit","Chrome","132.0.0.0","Windows","10.0","https://app.prolific.com/","en-GB,en-US;q=0.9,en;q=0.8","6762c5c001ce66a8d666441a","679edb085803f58d6bbd31ca","679eec104d1f034397408ef1","","1002","<img  src='G_5.jpg' height='90'> <img   src='G_7.jpg' height='90'> <img   src='G_1.jpg' height='90'> <img id='selected'  src='G_9.jpg' height='90'> <img id='selected' src='G_3.jpg' height='90'>","3","Learning example 0","",""
"","","","","","html-button-response","57","418873","0.0-43.1-0.1-0.1","32","1","2025-02-02 03:52:59","bc01a2b6f61d06f6604adb8657495020","109.166.49.198","Mozilla/5.0 (Windows NT 10.0; Win64; x64) AppleWebKit/537.36 (KHTML, like Gecko) Chrome/132.0.0.0 Safari/537.36","WebKit","Chrome","132.0.0.0","Windows","10.0","https://app.prolific.com/","en-GB,en-US;q=0.9,en;q=0.8","6762c5c001ce66a8d666441a","679edb085803f58d6bbd31ca","679eec104d1f034397408ef1","","435","<img  src='G_5.jpg' height='90'> <img   src='G_7.jpg' height='90'> <img   src='G_1.jpg' height='90'> <img id='selected'  src='G_9.jpg' height='90'> <img id='selected' src='G_3.jpg' height='90'>","4","Learning example 0","",""
"","","","","","html-button-response","58","419073","0.0-44.0","32","1","2025-02-02 03:52:59","bc01a2b6f61d06f6604adb8657495020","109.166.49.198","Mozilla/5.0 (Windows NT 10.0; Win64; x64) AppleWebKit/537.36 (KHTML, like Gecko) Chrome/132.0.0.0 Safari/537.36","WebKit","Chrome","132.0.0.0","Windows","10.0","https://app.prolific.com/","en-GB,en-US;q=0.9,en;q=0.8","6762c5c001ce66a8d666441a","679edb085803f58d6bbd31ca","679eec104d1f034397408ef1","","null","<img  src='G_5.jpg' height='90'> <img   src='G_7.jpg' height='90'> <img   src='G_1.jpg' height='90'> <img   src='G_9.jpg' height='90'> <img  src='G_3.jpg' height='90'>","null","Learning example 0","",""
"","","","","","html-keyboard-response","59","424869","0.0-45.0","32","1","2025-02-02 03:52:59","bc01a2b6f61d06f6604adb8657495020","109.166.49.198","Mozilla/5.0 (Windows NT 10.0; Win64; x64) AppleWebKit/537.36 (KHTML, like Gecko) Chrome/132.0.0.0 Safari/537.36","WebKit","Chrome","132.0.0.0","Windows","10.0","https://app.prolific.com/","en-GB,en-US;q=0.9,en;q=0.8","6762c5c001ce66a8d666441a","679edb085803f58d6bbd31ca","679eec104d1f034397408ef1","","5793","[""Final order was 1,2,3,4,5. The initial order was 2,1,3,4,5.<br>It took 1 swaps to sort it correctly with Omgne Sort. <br><br>Press Enter to continue.""]","enter","","",""
"","","","","","html-keyboard-response","60","428841","0.0-46.0","32","1","2025-02-02 03:52:59","bc01a2b6f61d06f6604adb8657495020","109.166.49.198","Mozilla/5.0 (Windows NT 10.0; Win64; x64) AppleWebKit/537.36 (KHTML, like Gecko) Chrome/132.0.0.0 Safari/537.36","WebKit","Chrome","132.0.0.0","Windows","10.0","https://app.prolific.com/","en-GB,en-US;q=0.9,en;q=0.8","6762c5c001ce66a8d666441a","679edb085803f58d6bbd31ca","679eec104d1f034397408ef1","","3956","[""Example 2<br><br>You will watch Omnge Sort in action. Try to identify any patterns in the comparisons made by this method. <br><br>Press Enter to continue.""]","enter","","",""
"","","","","","html-keyboard-response","61","429342","0.0-47.0","32","1","2025-02-02 03:52:59","bc01a2b6f61d06f6604adb8657495020","109.166.49.198","Mozilla/5.0 (Windows NT 10.0; Win64; x64) AppleWebKit/537.36 (KHTML, like Gecko) Chrome/132.0.0.0 Safari/537.36","WebKit","Chrome","132.0.0.0","Windows","10.0","https://app.prolific.com/","en-GB,en-US;q=0.9,en;q=0.8","6762c5c001ce66a8d666441a","679edb085803f58d6bbd31ca","679eec104d1f034397408ef1","","null","<img id='selected' src='G_6.jpg' height='90'> <img src='G_1.jpg' height='90'> <img src='G_8.jpg' height='90'> <img src='G_4.jpg' height='90'> <img src='G_7.jpg' height='90'> <img src='G_3.jpg' height='90'> <img src='G_2.jpg' height='90'> <img src='G_5.jpg' height='90'>","null","Animation1","",""
"","","","","","html-keyboard-response","62","429853","0.0-48.0","32","1","2025-02-02 03:52:59","bc01a2b6f61d06f6604adb8657495020","109.166.49.198","Mozilla/5.0 (Windows NT 10.0; Win64; x64) AppleWebKit/537.36 (KHTML, like Gecko) Chrome/132.0.0.0 Safari/537.36","WebKit","Chrome","132.0.0.0","Windows","10.0","https://app.prolific.com/","en-GB,en-US;q=0.9,en;q=0.8","6762c5c001ce66a8d666441a","679edb085803f58d6bbd31ca","679eec104d1f034397408ef1","","null","<img id='selected' src='G_6.jpg' height='90'> <img id='selected' src='G_1.jpg' height='90'> <img src='G_8.jpg' height='90'> <img src='G_4.jpg' height='90'> <img src='G_7.jpg' height='90'> <img src='G_3.jpg' height='90'> <img src='G_2.jpg' height='90'> <img src='G_5.jpg' height='90'>","null","Animation1","",""
"","","","","","html-keyboard-response","63","430356","0.0-49.0","32","1","2025-02-02 03:52:59","bc01a2b6f61d06f6604adb8657495020","109.166.49.198","Mozilla/5.0 (Windows NT 10.0; Win64; x64) AppleWebKit/537.36 (KHTML, like Gecko) Chrome/132.0.0.0 Safari/537.36","WebKit","Chrome","132.0.0.0","Windows","10.0","https://app.prolific.com/","en-GB,en-US;q=0.9,en;q=0.8","6762c5c001ce66a8d666441a","679edb085803f58d6bbd31ca","679eec104d1f034397408ef1","","null","<img id='selected' src='G_6.jpg' height='90'> <img id='selected' src='G_1.jpg' height='90'> <img src='G_8.jpg' height='90'> <img src='G_4.jpg' height='90'> <img src='G_7.jpg' height='90'> <img src='G_3.jpg' height='90'> <img src='G_2.jpg' height='90'> <img src='G_5.jpg' height='90'>","null","Animation1","",""
"","","","","","html-keyboard-response","64","430660","0.0-50.0","32","1","2025-02-02 03:52:59","bc01a2b6f61d06f6604adb8657495020","109.166.49.198","Mozilla/5.0 (Windows NT 10.0; Win64; x64) AppleWebKit/537.36 (KHTML, like Gecko) Chrome/132.0.0.0 Safari/537.36","WebKit","Chrome","132.0.0.0","Windows","10.0","https://app.prolific.com/","en-GB,en-US;q=0.9,en;q=0.8","6762c5c001ce66a8d666441a","679edb085803f58d6bbd31ca","679eec104d1f034397408ef1","","null","<img  src='G_6.jpg' height='90'> <img  src='G_1.jpg' height='90'> <img src='G_8.jpg' height='90'> <img src='G_4.jpg' height='90'> <img src='G_7.jpg' height='90'> <img src='G_3.jpg' height='90'> <img src='G_2.jpg' height='90'> <img src='G_5.jpg' height='90'>","null","Animation1","",""
"","","","","","html-keyboard-response","65","431165","0.0-51.0","32","1","2025-02-02 03:52:59","bc01a2b6f61d06f6604adb8657495020","109.166.49.198","Mozilla/5.0 (Windows NT 10.0; Win64; x64) AppleWebKit/537.36 (KHTML, like Gecko) Chrome/132.0.0.0 Safari/537.36","WebKit","Chrome","132.0.0.0","Windows","10.0","https://app.prolific.com/","en-GB,en-US;q=0.9,en;q=0.8","6762c5c001ce66a8d666441a","679edb085803f58d6bbd31ca","679eec104d1f034397408ef1","","null","<img  src='G_6.jpg' height='90'> <img id='selected'  src='G_1.jpg' height='90'> <img src='G_8.jpg' height='90'> <img src='G_4.jpg' height='90'> <img src='G_7.jpg' height='90'> <img src='G_3.jpg' height='90'> <img src='G_2.jpg' height='90'> <img src='G_5.jpg' height='90'>","null","Animation1","",""
"","","","","","html-keyboard-response","66","431673","0.0-52.0","32","1","2025-02-02 03:52:59","bc01a2b6f61d06f6604adb8657495020","109.166.49.198","Mozilla/5.0 (Windows NT 10.0; Win64; x64) AppleWebKit/537.36 (KHTML, like Gecko) Chrome/132.0.0.0 Safari/537.36","WebKit","Chrome","132.0.0.0","Windows","10.0","https://app.prolific.com/","en-GB,en-US;q=0.9,en;q=0.8","6762c5c001ce66a8d666441a","679edb085803f58d6bbd31ca","679eec104d1f034397408ef1","","null","<img  src='G_6.jpg' height='90'> <img id='selected'  src='G_1.jpg' height='90'> <img id='selected' src='G_8.jpg' height='90'> <img src='G_4.jpg' height='90'> <img src='G_7.jpg' height='90'> <img src='G_3.jpg' height='90'> <img src='G_2.jpg' height='90'> <img src='G_5.jpg' height='90'>","null","Animation1","",""
"","","","","","html-keyboard-response","67","432173","0.0-53.0","32","1","2025-02-02 03:52:59","bc01a2b6f61d06f6604adb8657495020","109.166.49.198","Mozilla/5.0 (Windows NT 10.0; Win64; x64) AppleWebKit/537.36 (KHTML, like Gecko) Chrome/132.0.0.0 Safari/537.36","WebKit","Chrome","132.0.0.0","Windows","10.0","https://app.prolific.com/","en-GB,en-US;q=0.9,en;q=0.8","6762c5c001ce66a8d666441a","679edb085803f58d6bbd31ca","679eec104d1f034397408ef1","","null","<img  src='G_6.jpg' height='90'> <img id='swapped' src='G_8.jpg' height='90'> <img id='swapped'  src='G_1.jpg' height='90'> <img src='G_4.jpg' height='90'> <img src='G_7.jpg' height='90'> <img src='G_3.jpg' height='90'> <img src='G_2.jpg' height='90'> <img src='G_5.jpg' height='90'>","null","Animation1","",""
"","","","","","html-keyboard-response","68","432482","0.0-54.0","32","1","2025-02-02 03:52:59","bc01a2b6f61d06f6604adb8657495020","109.166.49.198","Mozilla/5.0 (Windows NT 10.0; Win64; x64) AppleWebKit/537.36 (KHTML, like Gecko) Chrome/132.0.0.0 Safari/537.36","WebKit","Chrome","132.0.0.0","Windows","10.0","https://app.prolific.com/","en-GB,en-US;q=0.9,en;q=0.8","6762c5c001ce66a8d666441a","679edb085803f58d6bbd31ca","679eec104d1f034397408ef1","","null","<img  src='G_6.jpg' height='90'> <img  src='G_8.jpg' height='90'> <img   src='G_1.jpg' height='90'> <img src='G_4.jpg' height='90'> <img src='G_7.jpg' height='90'> <img src='G_3.jpg' height='90'> <img src='G_2.jpg' height='90'> <img src='G_5.jpg' height='90'>","null","Animation1","",""
"","","","","","html-keyboard-response","69","432989","0.0-55.0","32","1","2025-02-02 03:52:59","bc01a2b6f61d06f6604adb8657495020","109.166.49.198","Mozilla/5.0 (Windows NT 10.0; Win64; x64) AppleWebKit/537.36 (KHTML, like Gecko) Chrome/132.0.0.0 Safari/537.36","WebKit","Chrome","132.0.0.0","Windows","10.0","https://app.prolific.com/","en-GB,en-US;q=0.9,en;q=0.8","6762c5c001ce66a8d666441a","679edb085803f58d6bbd31ca","679eec104d1f034397408ef1","","null","<img id='selected'  src='G_6.jpg' height='90'> <img  src='G_8.jpg' height='90'> <img   src='G_1.jpg' height='90'> <img src='G_4.jpg' height='90'> <img src='G_7.jpg' height='90'> <img src='G_3.jpg' height='90'> <img src='G_2.jpg' height='90'> <img src='G_5.jpg' height='90'>","null","Animation1","",""
"","","","","","html-keyboard-response","70","433497","0.0-56.0","32","1","2025-02-02 03:52:59","bc01a2b6f61d06f6604adb8657495020","109.166.49.198","Mozilla/5.0 (Windows NT 10.0; Win64; x64) AppleWebKit/537.36 (KHTML, like Gecko) Chrome/132.0.0.0 Safari/537.36","WebKit","Chrome","132.0.0.0","Windows","10.0","https://app.prolific.com/","en-GB,en-US;q=0.9,en;q=0.8","6762c5c001ce66a8d666441a","679edb085803f58d6bbd31ca","679eec104d1f034397408ef1","","null","<img id='selected'  src='G_6.jpg' height='90'> <img id='selected'  src='G_8.jpg' height='90'> <img   src='G_1.jpg' height='90'> <img src='G_4.jpg' height='90'> <img src='G_7.jpg' height='90'> <img src='G_3.jpg' height='90'> <img src='G_2.jpg' height='90'> <img src='G_5.jpg' height='90'>","null","Animation1","",""
"","","","","","html-keyboard-response","71","434013","0.0-57.0","32","1","2025-02-02 03:52:59","bc01a2b6f61d06f6604adb8657495020","109.166.49.198","Mozilla/5.0 (Windows NT 10.0; Win64; x64) AppleWebKit/537.36 (KHTML, like Gecko) Chrome/132.0.0.0 Safari/537.36","WebKit","Chrome","132.0.0.0","Windows","10.0","https://app.prolific.com/","en-GB,en-US;q=0.9,en;q=0.8","6762c5c001ce66a8d666441a","679edb085803f58d6bbd31ca","679eec104d1f034397408ef1","","null","<img id='swapped'  src='G_8.jpg' height='90'> <img id='swapped'  src='G_6.jpg' height='90'> <img   src='G_1.jpg' height='90'> <img src='G_4.jpg' height='90'> <img src='G_7.jpg' height='90'> <img src='G_3.jpg' height='90'> <img src='G_2.jpg' height='90'> <img src='G_5.jpg' height='90'>","null","Animation1","",""
"","","","","","html-keyboard-response","72","434328","0.0-58.0","32","1","2025-02-02 03:52:59","bc01a2b6f61d06f6604adb8657495020","109.166.49.198","Mozilla/5.0 (Windows NT 10.0; Win64; x64) AppleWebKit/537.36 (KHTML, like Gecko) Chrome/132.0.0.0 Safari/537.36","WebKit","Chrome","132.0.0.0","Windows","10.0","https://app.prolific.com/","en-GB,en-US;q=0.9,en;q=0.8","6762c5c001ce66a8d666441a","679edb085803f58d6bbd31ca","679eec104d1f034397408ef1","","null","<img   src='G_8.jpg' height='90'> <img   src='G_6.jpg' height='90'> <img   src='G_1.jpg' height='90'> <img src='G_4.jpg' height='90'> <img src='G_7.jpg' height='90'> <img src='G_3.jpg' height='90'> <img src='G_2.jpg' height='90'> <img src='G_5.jpg' height='90'>","null","Animation1","",""
"","","","","","html-keyboard-response","73","434846","0.0-59.0","32","1","2025-02-02 03:52:59","bc01a2b6f61d06f6604adb8657495020","109.166.49.198","Mozilla/5.0 (Windows NT 10.0; Win64; x64) AppleWebKit/537.36 (KHTML, like Gecko) Chrome/132.0.0.0 Safari/537.36","WebKit","Chrome","132.0.0.0","Windows","10.0","https://app.prolific.com/","en-GB,en-US;q=0.9,en;q=0.8","6762c5c001ce66a8d666441a","679edb085803f58d6bbd31ca","679eec104d1f034397408ef1","","null","<img   src='G_8.jpg' height='90'> <img   src='G_6.jpg' height='90'> <img id='selected'   src='G_1.jpg' height='90'> <img src='G_4.jpg' height='90'> <img src='G_7.jpg' height='90'> <img src='G_3.jpg' height='90'> <img src='G_2.jpg' height='90'> <img src='G_5.jpg' height='90'>","null","Animation1","",""
"","","","","","html-keyboard-response","74","435352","0.0-60.0","32","1","2025-02-02 03:52:59","bc01a2b6f61d06f6604adb8657495020","109.166.49.198","Mozilla/5.0 (Windows NT 10.0; Win64; x64) AppleWebKit/537.36 (KHTML, like Gecko) Chrome/132.0.0.0 Safari/537.36","WebKit","Chrome","132.0.0.0","Windows","10.0","https://app.prolific.com/","en-GB,en-US;q=0.9,en;q=0.8","6762c5c001ce66a8d666441a","679edb085803f58d6bbd31ca","679eec104d1f034397408ef1","","null","<img   src='G_8.jpg' height='90'> <img   src='G_6.jpg' height='90'> <img id='selected'   src='G_1.jpg' height='90'> <img id='selected' src='G_4.jpg' height='90'> <img src='G_7.jpg' height='90'> <img src='G_3.jpg' height='90'> <img src='G_2.jpg' height='90'> <img src='G_5.jpg' height='90'>","null","Animation1","",""
"","","","","","html-keyboard-response","75","435858","0.0-61.0","32","1","2025-02-02 03:52:59","bc01a2b6f61d06f6604adb8657495020","109.166.49.198","Mozilla/5.0 (Windows NT 10.0; Win64; x64) AppleWebKit/537.36 (KHTML, like Gecko) Chrome/132.0.0.0 Safari/537.36","WebKit","Chrome","132.0.0.0","Windows","10.0","https://app.prolific.com/","en-GB,en-US;q=0.9,en;q=0.8","6762c5c001ce66a8d666441a","679edb085803f58d6bbd31ca","679eec104d1f034397408ef1","","null","<img   src='G_8.jpg' height='90'> <img   src='G_6.jpg' height='90'> <img id='swapped' src='G_4.jpg' height='90'> <img id='swapped'   src='G_1.jpg' height='90'> <img src='G_7.jpg' height='90'> <img src='G_3.jpg' height='90'> <img src='G_2.jpg' height='90'> <img src='G_5.jpg' height='90'>","null","Animation1","",""
"","","","","","html-keyboard-response","76","436176","0.0-62.0","32","1","2025-02-02 03:52:59","bc01a2b6f61d06f6604adb8657495020","109.166.49.198","Mozilla/5.0 (Windows NT 10.0; Win64; x64) AppleWebKit/537.36 (KHTML, like Gecko) Chrome/132.0.0.0 Safari/537.36","WebKit","Chrome","132.0.0.0","Windows","10.0","https://app.prolific.com/","en-GB,en-US;q=0.9,en;q=0.8","6762c5c001ce66a8d666441a","679edb085803f58d6bbd31ca","679eec104d1f034397408ef1","","null","<img   src='G_8.jpg' height='90'> <img   src='G_6.jpg' height='90'> <img  src='G_4.jpg' height='90'> <img    src='G_1.jpg' height='90'> <img src='G_7.jpg' height='90'> <img src='G_3.jpg' height='90'> <img src='G_2.jpg' height='90'> <img src='G_5.jpg' height='90'>","null","Animation1","",""
"","","","","","html-keyboard-response","77","436691","0.0-63.0","32","1","2025-02-02 03:52:59","bc01a2b6f61d06f6604adb8657495020","109.166.49.198","Mozilla/5.0 (Windows NT 10.0; Win64; x64) AppleWebKit/537.36 (KHTML, like Gecko) Chrome/132.0.0.0 Safari/537.36","WebKit","Chrome","132.0.0.0","Windows","10.0","https://app.prolific.com/","en-GB,en-US;q=0.9,en;q=0.8","6762c5c001ce66a8d666441a","679edb085803f58d6bbd31ca","679eec104d1f034397408ef1","","null","<img   src='G_8.jpg' height='90'> <img id='selected'   src='G_6.jpg' height='90'> <img  src='G_4.jpg' height='90'> <img    src='G_1.jpg' height='90'> <img src='G_7.jpg' height='90'> <img src='G_3.jpg' height='90'> <img src='G_2.jpg' height='90'> <img src='G_5.jpg' height='90'>","null","Animation1","",""
"","","","","","html-keyboard-response","78","437199","0.0-64.0","32","1","2025-02-02 03:52:59","bc01a2b6f61d06f6604adb8657495020","109.166.49.198","Mozilla/5.0 (Windows NT 10.0; Win64; x64) AppleWebKit/537.36 (KHTML, like Gecko) Chrome/132.0.0.0 Safari/537.36","WebKit","Chrome","132.0.0.0","Windows","10.0","https://app.prolific.com/","en-GB,en-US;q=0.9,en;q=0.8","6762c5c001ce66a8d666441a","679edb085803f58d6bbd31ca","679eec104d1f034397408ef1","","null","<img   src='G_8.jpg' height='90'> <img id='selected'   src='G_6.jpg' height='90'> <img id='selected'  src='G_4.jpg' height='90'> <img    src='G_1.jpg' height='90'> <img src='G_7.jpg' height='90'> <img src='G_3.jpg' height='90'> <img src='G_2.jpg' height='90'> <img src='G_5.jpg' height='90'>","null","Animation1","",""
"","","","","","html-keyboard-response","79","437706","0.0-65.0","32","1","2025-02-02 03:52:59","bc01a2b6f61d06f6604adb8657495020","109.166.49.198","Mozilla/5.0 (Windows NT 10.0; Win64; x64) AppleWebKit/537.36 (KHTML, like Gecko) Chrome/132.0.0.0 Safari/537.36","WebKit","Chrome","132.0.0.0","Windows","10.0","https://app.prolific.com/","en-GB,en-US;q=0.9,en;q=0.8","6762c5c001ce66a8d666441a","679edb085803f58d6bbd31ca","679eec104d1f034397408ef1","","null","<img   src='G_8.jpg' height='90'> <img id='swapped'  src='G_4.jpg' height='90'> <img id='swapped'   src='G_6.jpg' height='90'> <img    src='G_1.jpg' height='90'> <img src='G_7.jpg' height='90'> <img src='G_3.jpg' height='90'> <img src='G_2.jpg' height='90'> <img src='G_5.jpg' height='90'>","null","Animation1","",""
"","","","","","html-keyboard-response","80","438024","0.0-66.0","32","1","2025-02-02 03:52:59","bc01a2b6f61d06f6604adb8657495020","109.166.49.198","Mozilla/5.0 (Windows NT 10.0; Win64; x64) AppleWebKit/537.36 (KHTML, like Gecko) Chrome/132.0.0.0 Safari/537.36","WebKit","Chrome","132.0.0.0","Windows","10.0","https://app.prolific.com/","en-GB,en-US;q=0.9,en;q=0.8","6762c5c001ce66a8d666441a","679edb085803f58d6bbd31ca","679eec104d1f034397408ef1","","null","<img   src='G_8.jpg' height='90'> <img   src='G_4.jpg' height='90'> <img    src='G_6.jpg' height='90'> <img    src='G_1.jpg' height='90'> <img src='G_7.jpg' height='90'> <img src='G_3.jpg' height='90'> <img src='G_2.jpg' height='90'> <img src='G_5.jpg' height='90'>","null","Animation1","",""
"","","","","","html-keyboard-response","81","438545","0.0-67.0","32","1","2025-02-02 03:52:59","bc01a2b6f61d06f6604adb8657495020","109.166.49.198","Mozilla/5.0 (Windows NT 10.0; Win64; x64) AppleWebKit/537.36 (KHTML, like Gecko) Chrome/132.0.0.0 Safari/537.36","WebKit","Chrome","132.0.0.0","Windows","10.0","https://app.prolific.com/","en-GB,en-US;q=0.9,en;q=0.8","6762c5c001ce66a8d666441a","679edb085803f58d6bbd31ca","679eec104d1f034397408ef1","","null","<img id='selected'   src='G_8.jpg' height='90'> <img   src='G_4.jpg' height='90'> <img    src='G_6.jpg' height='90'> <img    src='G_1.jpg' height='90'> <img src='G_7.jpg' height='90'> <img src='G_3.jpg' height='90'> <img src='G_2.jpg' height='90'> <img src='G_5.jpg' height='90'>","null","Animation1","",""
"","","","","","html-keyboard-response","82","439063","0.0-68.0","32","1","2025-02-02 03:52:59","bc01a2b6f61d06f6604adb8657495020","109.166.49.198","Mozilla/5.0 (Windows NT 10.0; Win64; x64) AppleWebKit/537.36 (KHTML, like Gecko) Chrome/132.0.0.0 Safari/537.36","WebKit","Chrome","132.0.0.0","Windows","10.0","https://app.prolific.com/","en-GB,en-US;q=0.9,en;q=0.8","6762c5c001ce66a8d666441a","679edb085803f58d6bbd31ca","679eec104d1f034397408ef1","","null","<img id='selected'   src='G_8.jpg' height='90'> <img id='selected'   src='G_4.jpg' height='90'> <img    src='G_6.jpg' height='90'> <img    src='G_1.jpg' height='90'> <img src='G_7.jpg' height='90'> <img src='G_3.jpg' height='90'> <img src='G_2.jpg' height='90'> <img src='G_5.jpg' height='90'>","null","Animation1","",""
"","","","","","html-keyboard-response","83","439580","0.0-69.0","32","1","2025-02-02 03:52:59","bc01a2b6f61d06f6604adb8657495020","109.166.49.198","Mozilla/5.0 (Windows NT 10.0; Win64; x64) AppleWebKit/537.36 (KHTML, like Gecko) Chrome/132.0.0.0 Safari/537.36","WebKit","Chrome","132.0.0.0","Windows","10.0","https://app.prolific.com/","en-GB,en-US;q=0.9,en;q=0.8","6762c5c001ce66a8d666441a","679edb085803f58d6bbd31ca","679eec104d1f034397408ef1","","null","<img id='swapped'   src='G_4.jpg' height='90'> <img id='swapped'   src='G_8.jpg' height='90'> <img    src='G_6.jpg' height='90'> <img    src='G_1.jpg' height='90'> <img src='G_7.jpg' height='90'> <img src='G_3.jpg' height='90'> <img src='G_2.jpg' height='90'> <img src='G_5.jpg' height='90'>","null","Animation1","",""
"","","","","","html-keyboard-response","84","439884","0.0-70.0","32","1","2025-02-02 03:52:59","bc01a2b6f61d06f6604adb8657495020","109.166.49.198","Mozilla/5.0 (Windows NT 10.0; Win64; x64) AppleWebKit/537.36 (KHTML, like Gecko) Chrome/132.0.0.0 Safari/537.36","WebKit","Chrome","132.0.0.0","Windows","10.0","https://app.prolific.com/","en-GB,en-US;q=0.9,en;q=0.8","6762c5c001ce66a8d666441a","679edb085803f58d6bbd31ca","679eec104d1f034397408ef1","","null","<img    src='G_4.jpg' height='90'> <img    src='G_8.jpg' height='90'> <img    src='G_6.jpg' height='90'> <img    src='G_1.jpg' height='90'> <img src='G_7.jpg' height='90'> <img src='G_3.jpg' height='90'> <img src='G_2.jpg' height='90'> <img src='G_5.jpg' height='90'>","null","Animation1","",""
"","","","","","html-keyboard-response","85","440391","0.0-71.0","32","1","2025-02-02 03:52:59","bc01a2b6f61d06f6604adb8657495020","109.166.49.198","Mozilla/5.0 (Windows NT 10.0; Win64; x64) AppleWebKit/537.36 (KHTML, like Gecko) Chrome/132.0.0.0 Safari/537.36","WebKit","Chrome","132.0.0.0","Windows","10.0","https://app.prolific.com/","en-GB,en-US;q=0.9,en;q=0.8","6762c5c001ce66a8d666441a","679edb085803f58d6bbd31ca","679eec104d1f034397408ef1","","null","<img    src='G_4.jpg' height='90'> <img    src='G_8.jpg' height='90'> <img    src='G_6.jpg' height='90'> <img id='selected'    src='G_1.jpg' height='90'> <img src='G_7.jpg' height='90'> <img src='G_3.jpg' height='90'> <img src='G_2.jpg' height='90'> <img src='G_5.jpg' height='90'>","null","Animation1","",""
"","","","","","html-keyboard-response","86","440896","0.0-72.0","32","1","2025-02-02 03:52:59","bc01a2b6f61d06f6604adb8657495020","109.166.49.198","Mozilla/5.0 (Windows NT 10.0; Win64; x64) AppleWebKit/537.36 (KHTML, like Gecko) Chrome/132.0.0.0 Safari/537.36","WebKit","Chrome","132.0.0.0","Windows","10.0","https://app.prolific.com/","en-GB,en-US;q=0.9,en;q=0.8","6762c5c001ce66a8d666441a","679edb085803f58d6bbd31ca","679eec104d1f034397408ef1","","null","<img    src='G_4.jpg' height='90'> <img    src='G_8.jpg' height='90'> <img    src='G_6.jpg' height='90'> <img id='selected'    src='G_1.jpg' height='90'> <img id='selected' src='G_7.jpg' height='90'> <img src='G_3.jpg' height='90'> <img src='G_2.jpg' height='90'> <img src='G_5.jpg' height='90'>","null","Animation1","",""
"","","","","","html-keyboard-response","87","441417","0.0-73.0","32","1","2025-02-02 03:52:59","bc01a2b6f61d06f6604adb8657495020","109.166.49.198","Mozilla/5.0 (Windows NT 10.0; Win64; x64) AppleWebKit/537.36 (KHTML, like Gecko) Chrome/132.0.0.0 Safari/537.36","WebKit","Chrome","132.0.0.0","Windows","10.0","https://app.prolific.com/","en-GB,en-US;q=0.9,en;q=0.8","6762c5c001ce66a8d666441a","679edb085803f58d6bbd31ca","679eec104d1f034397408ef1","","null","<img    src='G_4.jpg' height='90'> <img    src='G_8.jpg' height='90'> <img    src='G_6.jpg' height='90'> <img id='swapped' src='G_7.jpg' height='90'> <img id='swapped'    src='G_1.jpg' height='90'> <img src='G_3.jpg' height='90'> <img src='G_2.jpg' height='90'> <img src='G_5.jpg' height='90'>","null","Animation1","",""
"","","","","","html-keyboard-response","88","441764","0.0-74.0","32","1","2025-02-02 03:52:59","bc01a2b6f61d06f6604adb8657495020","109.166.49.198","Mozilla/5.0 (Windows NT 10.0; Win64; x64) AppleWebKit/537.36 (KHTML, like Gecko) Chrome/132.0.0.0 Safari/537.36","WebKit","Chrome","132.0.0.0","Windows","10.0","https://app.prolific.com/","en-GB,en-US;q=0.9,en;q=0.8","6762c5c001ce66a8d666441a","679edb085803f58d6bbd31ca","679eec104d1f034397408ef1","","null","<img    src='G_4.jpg' height='90'> <img    src='G_8.jpg' height='90'> <img    src='G_6.jpg' height='90'> <img  src='G_7.jpg' height='90'> <img     src='G_1.jpg' height='90'> <img src='G_3.jpg' height='90'> <img src='G_2.jpg' height='90'> <img src='G_5.jpg' height='90'>","null","Animation1","",""
"","","","","","html-keyboard-response","89","442268","0.0-75.0","32","1","2025-02-02 03:52:59","bc01a2b6f61d06f6604adb8657495020","109.166.49.198","Mozilla/5.0 (Windows NT 10.0; Win64; x64) AppleWebKit/537.36 (KHTML, like Gecko) Chrome/132.0.0.0 Safari/537.36","WebKit","Chrome","132.0.0.0","Windows","10.0","https://app.prolific.com/","en-GB,en-US;q=0.9,en;q=0.8","6762c5c001ce66a8d666441a","679edb085803f58d6bbd31ca","679eec104d1f034397408ef1","","null","<img    src='G_4.jpg' height='90'> <img    src='G_8.jpg' height='90'> <img id='selected'    src='G_6.jpg' height='90'> <img  src='G_7.jpg' height='90'> <img     src='G_1.jpg' height='90'> <img src='G_3.jpg' height='90'> <img src='G_2.jpg' height='90'> <img src='G_5.jpg' height='90'>","null","Animation1","",""
"","","","","","html-keyboard-response","90","442774","0.0-76.0","32","1","2025-02-02 03:52:59","bc01a2b6f61d06f6604adb8657495020","109.166.49.198","Mozilla/5.0 (Windows NT 10.0; Win64; x64) AppleWebKit/537.36 (KHTML, like Gecko) Chrome/132.0.0.0 Safari/537.36","WebKit","Chrome","132.0.0.0","Windows","10.0","https://app.prolific.com/","en-GB,en-US;q=0.9,en;q=0.8","6762c5c001ce66a8d666441a","679edb085803f58d6bbd31ca","679eec104d1f034397408ef1","","null","<img    src='G_4.jpg' height='90'> <img    src='G_8.jpg' height='90'> <img id='selected'    src='G_6.jpg' height='90'> <img id='selected'  src='G_7.jpg' height='90'> <img     src='G_1.jpg' height='90'> <img src='G_3.jpg' height='90'> <img src='G_2.jpg' height='90'> <img src='G_5.jpg' height='90'>","null","Animation1","",""
"","","","","","html-keyboard-response","91","443276","0.0-77.0","32","1","2025-02-02 03:52:59","bc01a2b6f61d06f6604adb8657495020","109.166.49.198","Mozilla/5.0 (Windows NT 10.0; Win64; x64) AppleWebKit/537.36 (KHTML, like Gecko) Chrome/132.0.0.0 Safari/537.36","WebKit","Chrome","132.0.0.0","Windows","10.0","https://app.prolific.com/","en-GB,en-US;q=0.9,en;q=0.8","6762c5c001ce66a8d666441a","679edb085803f58d6bbd31ca","679eec104d1f034397408ef1","","null","<img    src='G_4.jpg' height='90'> <img    src='G_8.jpg' height='90'> <img id='swapped'  src='G_7.jpg' height='90'> <img id='swapped'    src='G_6.jpg' height='90'> <img     src='G_1.jpg' height='90'> <img src='G_3.jpg' height='90'> <img src='G_2.jpg' height='90'> <img src='G_5.jpg' height='90'>","null","Animation1","",""
"","","","","","html-keyboard-response","92","443593","0.0-78.0","32","1","2025-02-02 03:52:59","bc01a2b6f61d06f6604adb8657495020","109.166.49.198","Mozilla/5.0 (Windows NT 10.0; Win64; x64) AppleWebKit/537.36 (KHTML, like Gecko) Chrome/132.0.0.0 Safari/537.36","WebKit","Chrome","132.0.0.0","Windows","10.0","https://app.prolific.com/","en-GB,en-US;q=0.9,en;q=0.8","6762c5c001ce66a8d666441a","679edb085803f58d6bbd31ca","679eec104d1f034397408ef1","","null","<img    src='G_4.jpg' height='90'> <img    src='G_8.jpg' height='90'> <img   src='G_7.jpg' height='90'> <img     src='G_6.jpg' height='90'> <img     src='G_1.jpg' height='90'> <img src='G_3.jpg' height='90'> <img src='G_2.jpg' height='90'> <img src='G_5.jpg' height='90'>","null","Animation1","",""
"","","","","","html-keyboard-response","93","444102","0.0-79.0","32","1","2025-02-02 03:52:59","bc01a2b6f61d06f6604adb8657495020","109.166.49.198","Mozilla/5.0 (Windows NT 10.0; Win64; x64) AppleWebKit/537.36 (KHTML, like Gecko) Chrome/132.0.0.0 Safari/537.36","WebKit","Chrome","132.0.0.0","Windows","10.0","https://app.prolific.com/","en-GB,en-US;q=0.9,en;q=0.8","6762c5c001ce66a8d666441a","679edb085803f58d6bbd31ca","679eec104d1f034397408ef1","","null","<img    src='G_4.jpg' height='90'> <img id='selected'    src='G_8.jpg' height='90'> <img   src='G_7.jpg' height='90'> <img     src='G_6.jpg' height='90'> <img     src='G_1.jpg' height='90'> <img src='G_3.jpg' height='90'> <img src='G_2.jpg' height='90'> <img src='G_5.jpg' height='90'>","null","Animation1","",""
"","","","","","html-keyboard-response","94","444606","0.0-80.0","32","1","2025-02-02 03:52:59","bc01a2b6f61d06f6604adb8657495020","109.166.49.198","Mozilla/5.0 (Windows NT 10.0; Win64; x64) AppleWebKit/537.36 (KHTML, like Gecko) Chrome/132.0.0.0 Safari/537.36","WebKit","Chrome","132.0.0.0","Windows","10.0","https://app.prolific.com/","en-GB,en-US;q=0.9,en;q=0.8","6762c5c001ce66a8d666441a","679edb085803f58d6bbd31ca","679eec104d1f034397408ef1","","null","<img    src='G_4.jpg' height='90'> <img id='selected'    src='G_8.jpg' height='90'> <img id='selected'   src='G_7.jpg' height='90'> <img     src='G_6.jpg' height='90'> <img     src='G_1.jpg' height='90'> <img src='G_3.jpg' height='90'> <img src='G_2.jpg' height='90'> <img src='G_5.jpg' height='90'>","null","Animation1","",""
"","","","","","html-keyboard-response","95","445120","0.0-81.0","32","1","2025-02-02 03:52:59","bc01a2b6f61d06f6604adb8657495020","109.166.49.198","Mozilla/5.0 (Windows NT 10.0; Win64; x64) AppleWebKit/537.36 (KHTML, like Gecko) Chrome/132.0.0.0 Safari/537.36","WebKit","Chrome","132.0.0.0","Windows","10.0","https://app.prolific.com/","en-GB,en-US;q=0.9,en;q=0.8","6762c5c001ce66a8d666441a","679edb085803f58d6bbd31ca","679eec104d1f034397408ef1","","null","<img    src='G_4.jpg' height='90'> <img id='swapped'   src='G_7.jpg' height='90'> <img id='swapped'    src='G_8.jpg' height='90'> <img     src='G_6.jpg' height='90'> <img     src='G_1.jpg' height='90'> <img src='G_3.jpg' height='90'> <img src='G_2.jpg' height='90'> <img src='G_5.jpg' height='90'>","null","Animation1","",""
"","","","","","html-keyboard-response","96","445427","0.0-82.0","32","1","2025-02-02 03:52:59","bc01a2b6f61d06f6604adb8657495020","109.166.49.198","Mozilla/5.0 (Windows NT 10.0; Win64; x64) AppleWebKit/537.36 (KHTML, like Gecko) Chrome/132.0.0.0 Safari/537.36","WebKit","Chrome","132.0.0.0","Windows","10.0","https://app.prolific.com/","en-GB,en-US;q=0.9,en;q=0.8","6762c5c001ce66a8d666441a","679edb085803f58d6bbd31ca","679eec104d1f034397408ef1","","null","<img    src='G_4.jpg' height='90'> <img    src='G_7.jpg' height='90'> <img     src='G_8.jpg' height='90'> <img     src='G_6.jpg' height='90'> <img     src='G_1.jpg' height='90'> <img src='G_3.jpg' height='90'> <img src='G_2.jpg' height='90'> <img src='G_5.jpg' height='90'>","null","Animation1","",""
"","","","","","html-keyboard-response","97","445932","0.0-83.0","32","1","2025-02-02 03:52:59","bc01a2b6f61d06f6604adb8657495020","109.166.49.198","Mozilla/5.0 (Windows NT 10.0; Win64; x64) AppleWebKit/537.36 (KHTML, like Gecko) Chrome/132.0.0.0 Safari/537.36","WebKit","Chrome","132.0.0.0","Windows","10.0","https://app.prolific.com/","en-GB,en-US;q=0.9,en;q=0.8","6762c5c001ce66a8d666441a","679edb085803f58d6bbd31ca","679eec104d1f034397408ef1","","null","<img id='selected'    src='G_4.jpg' height='90'> <img    src='G_7.jpg' height='90'> <img     src='G_8.jpg' height='90'> <img     src='G_6.jpg' height='90'> <img     src='G_1.jpg' height='90'> <img src='G_3.jpg' height='90'> <img src='G_2.jpg' height='90'> <img src='G_5.jpg' height='90'>","null","Animation1","",""
"","","","","","html-keyboard-response","98","446439","0.0-84.0","32","1","2025-02-02 03:52:59","bc01a2b6f61d06f6604adb8657495020","109.166.49.198","Mozilla/5.0 (Windows NT 10.0; Win64; x64) AppleWebKit/537.36 (KHTML, like Gecko) Chrome/132.0.0.0 Safari/537.36","WebKit","Chrome","132.0.0.0","Windows","10.0","https://app.prolific.com/","en-GB,en-US;q=0.9,en;q=0.8","6762c5c001ce66a8d666441a","679edb085803f58d6bbd31ca","679eec104d1f034397408ef1","","null","<img id='selected'    src='G_4.jpg' height='90'> <img id='selected'    src='G_7.jpg' height='90'> <img     src='G_8.jpg' height='90'> <img     src='G_6.jpg' height='90'> <img     src='G_1.jpg' height='90'> <img src='G_3.jpg' height='90'> <img src='G_2.jpg' height='90'> <img src='G_5.jpg' height='90'>","null","Animation1","",""
"","","","","","html-keyboard-response","99","446940","0.0-85.0","32","1","2025-02-02 03:52:59","bc01a2b6f61d06f6604adb8657495020","109.166.49.198","Mozilla/5.0 (Windows NT 10.0; Win64; x64) AppleWebKit/537.36 (KHTML, like Gecko) Chrome/132.0.0.0 Safari/537.36","WebKit","Chrome","132.0.0.0","Windows","10.0","https://app.prolific.com/","en-GB,en-US;q=0.9,en;q=0.8","6762c5c001ce66a8d666441a","679edb085803f58d6bbd31ca","679eec104d1f034397408ef1","","null","<img id='selected'    src='G_4.jpg' height='90'> <img id='selected'    src='G_7.jpg' height='90'> <img     src='G_8.jpg' height='90'> <img     src='G_6.jpg' height='90'> <img     src='G_1.jpg' height='90'> <img src='G_3.jpg' height='90'> <img src='G_2.jpg' height='90'> <img src='G_5.jpg' height='90'>","null","Animation1","",""
"","","","","","html-keyboard-response","100","447247","0.0-86.0","32","1","2025-02-02 03:52:59","bc01a2b6f61d06f6604adb8657495020","109.166.49.198","Mozilla/5.0 (Windows NT 10.0; Win64; x64) AppleWebKit/537.36 (KHTML, like Gecko) Chrome/132.0.0.0 Safari/537.36","WebKit","Chrome","132.0.0.0","Windows","10.0","https://app.prolific.com/","en-GB,en-US;q=0.9,en;q=0.8","6762c5c001ce66a8d666441a","679edb085803f58d6bbd31ca","679eec104d1f034397408ef1","","null","<img     src='G_4.jpg' height='90'> <img     src='G_7.jpg' height='90'> <img     src='G_8.jpg' height='90'> <img     src='G_6.jpg' height='90'> <img     src='G_1.jpg' height='90'> <img src='G_3.jpg' height='90'> <img src='G_2.jpg' height='90'> <img src='G_5.jpg' height='90'>","null","Animation1","",""
"","","","","","html-keyboard-response","101","447764","0.0-87.0","32","1","2025-02-02 03:52:59","bc01a2b6f61d06f6604adb8657495020","109.166.49.198","Mozilla/5.0 (Windows NT 10.0; Win64; x64) AppleWebKit/537.36 (KHTML, like Gecko) Chrome/132.0.0.0 Safari/537.36","WebKit","Chrome","132.0.0.0","Windows","10.0","https://app.prolific.com/","en-GB,en-US;q=0.9,en;q=0.8","6762c5c001ce66a8d666441a","679edb085803f58d6bbd31ca","679eec104d1f034397408ef1","","null","<img     src='G_4.jpg' height='90'> <img     src='G_7.jpg' height='90'> <img     src='G_8.jpg' height='90'> <img     src='G_6.jpg' height='90'> <img id='selected'     src='G_1.jpg' height='90'> <img src='G_3.jpg' height='90'> <img src='G_2.jpg' height='90'> <img src='G_5.jpg' height='90'>","null","Animation1","",""
"","","","","","html-keyboard-response","102","448266","0.0-88.0","32","1","2025-02-02 03:52:59","bc01a2b6f61d06f6604adb8657495020","109.166.49.198","Mozilla/5.0 (Windows NT 10.0; Win64; x64) AppleWebKit/537.36 (KHTML, like Gecko) Chrome/132.0.0.0 Safari/537.36","WebKit","Chrome","132.0.0.0","Windows","10.0","https://app.prolific.com/","en-GB,en-US;q=0.9,en;q=0.8","6762c5c001ce66a8d666441a","679edb085803f58d6bbd31ca","679eec104d1f034397408ef1","","null","<img     src='G_4.jpg' height='90'> <img     src='G_7.jpg' height='90'> <img     src='G_8.jpg' height='90'> <img     src='G_6.jpg' height='90'> <img id='selected'     src='G_1.jpg' height='90'> <img id='selected' src='G_3.jpg' height='90'> <img src='G_2.jpg' height='90'> <img src='G_5.jpg' height='90'>","null","Animation1","",""
"","","","","","html-keyboard-response","103","448781","0.0-89.0","32","1","2025-02-02 03:52:59","bc01a2b6f61d06f6604adb8657495020","109.166.49.198","Mozilla/5.0 (Windows NT 10.0; Win64; x64) AppleWebKit/537.36 (KHTML, like Gecko) Chrome/132.0.0.0 Safari/537.36","WebKit","Chrome","132.0.0.0","Windows","10.0","https://app.prolific.com/","en-GB,en-US;q=0.9,en;q=0.8","6762c5c001ce66a8d666441a","679edb085803f58d6bbd31ca","679eec104d1f034397408ef1","","null","<img     src='G_4.jpg' height='90'> <img     src='G_7.jpg' height='90'> <img     src='G_8.jpg' height='90'> <img     src='G_6.jpg' height='90'> <img id='swapped' src='G_3.jpg' height='90'> <img id='swapped'     src='G_1.jpg' height='90'> <img src='G_2.jpg' height='90'> <img src='G_5.jpg' height='90'>","null","Animation1","",""
"","","","","","html-keyboard-response","104","449094","0.0-90.0","32","1","2025-02-02 03:52:59","bc01a2b6f61d06f6604adb8657495020","109.166.49.198","Mozilla/5.0 (Windows NT 10.0; Win64; x64) AppleWebKit/537.36 (KHTML, like Gecko) Chrome/132.0.0.0 Safari/537.36","WebKit","Chrome","132.0.0.0","Windows","10.0","https://app.prolific.com/","en-GB,en-US;q=0.9,en;q=0.8","6762c5c001ce66a8d666441a","679edb085803f58d6bbd31ca","679eec104d1f034397408ef1","","null","<img     src='G_4.jpg' height='90'> <img     src='G_7.jpg' height='90'> <img     src='G_8.jpg' height='90'> <img     src='G_6.jpg' height='90'> <img  src='G_3.jpg' height='90'> <img      src='G_1.jpg' height='90'> <img src='G_2.jpg' height='90'> <img src='G_5.jpg' height='90'>","null","Animation1","",""
"","","","","","html-keyboard-response","105","449606","0.0-91.0","32","1","2025-02-02 03:52:59","bc01a2b6f61d06f6604adb8657495020","109.166.49.198","Mozilla/5.0 (Windows NT 10.0; Win64; x64) AppleWebKit/537.36 (KHTML, like Gecko) Chrome/132.0.0.0 Safari/537.36","WebKit","Chrome","132.0.0.0","Windows","10.0","https://app.prolific.com/","en-GB,en-US;q=0.9,en;q=0.8","6762c5c001ce66a8d666441a","679edb085803f58d6bbd31ca","679eec104d1f034397408ef1","","null","<img     src='G_4.jpg' height='90'> <img     src='G_7.jpg' height='90'> <img     src='G_8.jpg' height='90'> <img id='selected'     src='G_6.jpg' height='90'> <img  src='G_3.jpg' height='90'> <img      src='G_1.jpg' height='90'> <img src='G_2.jpg' height='90'> <img src='G_5.jpg' height='90'>","null","Animation1","",""
"","","","","","html-keyboard-response","106","450114","0.0-92.0","32","1","2025-02-02 03:52:59","bc01a2b6f61d06f6604adb8657495020","109.166.49.198","Mozilla/5.0 (Windows NT 10.0; Win64; x64) AppleWebKit/537.36 (KHTML, like Gecko) Chrome/132.0.0.0 Safari/537.36","WebKit","Chrome","132.0.0.0","Windows","10.0","https://app.prolific.com/","en-GB,en-US;q=0.9,en;q=0.8","6762c5c001ce66a8d666441a","679edb085803f58d6bbd31ca","679eec104d1f034397408ef1","","null","<img     src='G_4.jpg' height='90'> <img     src='G_7.jpg' height='90'> <img     src='G_8.jpg' height='90'> <img id='selected'     src='G_6.jpg' height='90'> <img id='selected'  src='G_3.jpg' height='90'> <img      src='G_1.jpg' height='90'> <img src='G_2.jpg' height='90'> <img src='G_5.jpg' height='90'>","null","Animation1","",""
"","","","","","html-keyboard-response","107","450620","0.0-93.0","32","1","2025-02-02 03:52:59","bc01a2b6f61d06f6604adb8657495020","109.166.49.198","Mozilla/5.0 (Windows NT 10.0; Win64; x64) AppleWebKit/537.36 (KHTML, like Gecko) Chrome/132.0.0.0 Safari/537.36","WebKit","Chrome","132.0.0.0","Windows","10.0","https://app.prolific.com/","en-GB,en-US;q=0.9,en;q=0.8","6762c5c001ce66a8d666441a","679edb085803f58d6bbd31ca","679eec104d1f034397408ef1","","null","<img     src='G_4.jpg' height='90'> <img     src='G_7.jpg' height='90'> <img     src='G_8.jpg' height='90'> <img id='selected'     src='G_6.jpg' height='90'> <img id='selected'  src='G_3.jpg' height='90'> <img      src='G_1.jpg' height='90'> <img src='G_2.jpg' height='90'> <img src='G_5.jpg' height='90'>","null","Animation1","",""
"","","","","","html-keyboard-response","108","450931","0.0-94.0","32","1","2025-02-02 03:52:59","bc01a2b6f61d06f6604adb8657495020","109.166.49.198","Mozilla/5.0 (Windows NT 10.0; Win64; x64) AppleWebKit/537.36 (KHTML, like Gecko) Chrome/132.0.0.0 Safari/537.36","WebKit","Chrome","132.0.0.0","Windows","10.0","https://app.prolific.com/","en-GB,en-US;q=0.9,en;q=0.8","6762c5c001ce66a8d666441a","679edb085803f58d6bbd31ca","679eec104d1f034397408ef1","","null","<img     src='G_4.jpg' height='90'> <img     src='G_7.jpg' height='90'> <img     src='G_8.jpg' height='90'> <img      src='G_6.jpg' height='90'> <img   src='G_3.jpg' height='90'> <img      src='G_1.jpg' height='90'> <img src='G_2.jpg' height='90'> <img src='G_5.jpg' height='90'>","null","Animation1","",""
"","","","","","html-keyboard-response","109","451438","0.0-95.0","32","1","2025-02-02 03:52:59","bc01a2b6f61d06f6604adb8657495020","109.166.49.198","Mozilla/5.0 (Windows NT 10.0; Win64; x64) AppleWebKit/537.36 (KHTML, like Gecko) Chrome/132.0.0.0 Safari/537.36","WebKit","Chrome","132.0.0.0","Windows","10.0","https://app.prolific.com/","en-GB,en-US;q=0.9,en;q=0.8","6762c5c001ce66a8d666441a","679edb085803f58d6bbd31ca","679eec104d1f034397408ef1","","null","<img     src='G_4.jpg' height='90'> <img     src='G_7.jpg' height='90'> <img     src='G_8.jpg' height='90'> <img      src='G_6.jpg' height='90'> <img   src='G_3.jpg' height='90'> <img id='selected'      src='G_1.jpg' height='90'> <img src='G_2.jpg' height='90'> <img src='G_5.jpg' height='90'>","null","Animation1","",""
"","","","","","html-keyboard-response","110","451944","0.0-96.0","32","1","2025-02-02 03:52:59","bc01a2b6f61d06f6604adb8657495020","109.166.49.198","Mozilla/5.0 (Windows NT 10.0; Win64; x64) AppleWebKit/537.36 (KHTML, like Gecko) Chrome/132.0.0.0 Safari/537.36","WebKit","Chrome","132.0.0.0","Windows","10.0","https://app.prolific.com/","en-GB,en-US;q=0.9,en;q=0.8","6762c5c001ce66a8d666441a","679edb085803f58d6bbd31ca","679eec104d1f034397408ef1","","null","<img     src='G_4.jpg' height='90'> <img     src='G_7.jpg' height='90'> <img     src='G_8.jpg' height='90'> <img      src='G_6.jpg' height='90'> <img   src='G_3.jpg' height='90'> <img id='selected'      src='G_1.jpg' height='90'> <img id='selected' src='G_2.jpg' height='90'> <img src='G_5.jpg' height='90'>","null","Animation1","",""
"","","","","","html-keyboard-response","111","452454","0.0-97.0","32","1","2025-02-02 03:52:59","bc01a2b6f61d06f6604adb8657495020","109.166.49.198","Mozilla/5.0 (Windows NT 10.0; Win64; x64) AppleWebKit/537.36 (KHTML, like Gecko) Chrome/132.0.0.0 Safari/537.36","WebKit","Chrome","132.0.0.0","Windows","10.0","https://app.prolific.com/","en-GB,en-US;q=0.9,en;q=0.8","6762c5c001ce66a8d666441a","679edb085803f58d6bbd31ca","679eec104d1f034397408ef1","","null","<img     src='G_4.jpg' height='90'> <img     src='G_7.jpg' height='90'> <img     src='G_8.jpg' height='90'> <img      src='G_6.jpg' height='90'> <img   src='G_3.jpg' height='90'> <img id='selected'      src='G_1.jpg' height='90'> <img id='selected' src='G_2.jpg' height='90'> <img src='G_5.jpg' height='90'>","null","Animation1","",""
"","","","","","html-keyboard-response","112","452759","0.0-98.0","32","1","2025-02-02 03:52:59","bc01a2b6f61d06f6604adb8657495020","109.166.49.198","Mozilla/5.0 (Windows NT 10.0; Win64; x64) AppleWebKit/537.36 (KHTML, like Gecko) Chrome/132.0.0.0 Safari/537.36","WebKit","Chrome","132.0.0.0","Windows","10.0","https://app.prolific.com/","en-GB,en-US;q=0.9,en;q=0.8","6762c5c001ce66a8d666441a","679edb085803f58d6bbd31ca","679eec104d1f034397408ef1","","null","<img     src='G_4.jpg' height='90'> <img     src='G_7.jpg' height='90'> <img     src='G_8.jpg' height='90'> <img      src='G_6.jpg' height='90'> <img   src='G_3.jpg' height='90'> <img       src='G_1.jpg' height='90'> <img  src='G_2.jpg' height='90'> <img src='G_5.jpg' height='90'>","null","Animation1","",""
"","","","","","html-keyboard-response","113","453264","0.0-99.0","32","1","2025-02-02 03:52:59","bc01a2b6f61d06f6604adb8657495020","109.166.49.198","Mozilla/5.0 (Windows NT 10.0; Win64; x64) AppleWebKit/537.36 (KHTML, like Gecko) Chrome/132.0.0.0 Safari/537.36","WebKit","Chrome","132.0.0.0","Windows","10.0","https://app.prolific.com/","en-GB,en-US;q=0.9,en;q=0.8","6762c5c001ce66a8d666441a","679edb085803f58d6bbd31ca","679eec104d1f034397408ef1","","null","<img     src='G_4.jpg' height='90'> <img     src='G_7.jpg' height='90'> <img     src='G_8.jpg' height='90'> <img      src='G_6.jpg' height='90'> <img   src='G_3.jpg' height='90'> <img       src='G_1.jpg' height='90'> <img id='selected'  src='G_2.jpg' height='90'> <img src='G_5.jpg' height='90'>","null","Animation1","",""
"","","","","","html-keyboard-response","114","453773","0.0-100.0","32","1","2025-02-02 03:52:59","bc01a2b6f61d06f6604adb8657495020","109.166.49.198","Mozilla/5.0 (Windows NT 10.0; Win64; x64) AppleWebKit/537.36 (KHTML, like Gecko) Chrome/132.0.0.0 Safari/537.36","WebKit","Chrome","132.0.0.0","Windows","10.0","https://app.prolific.com/","en-GB,en-US;q=0.9,en;q=0.8","6762c5c001ce66a8d666441a","679edb085803f58d6bbd31ca","679eec104d1f034397408ef1","","null","<img     src='G_4.jpg' height='90'> <img     src='G_7.jpg' height='90'> <img     src='G_8.jpg' height='90'> <img      src='G_6.jpg' height='90'> <img   src='G_3.jpg' height='90'> <img       src='G_1.jpg' height='90'> <img id='selected'  src='G_2.jpg' height='90'> <img id='selected' src='G_5.jpg' height='90'>","null","Animation1","",""
"","","","","","html-keyboard-response","115","454280","0.0-101.0","32","1","2025-02-02 03:52:59","bc01a2b6f61d06f6604adb8657495020","109.166.49.198","Mozilla/5.0 (Windows NT 10.0; Win64; x64) AppleWebKit/537.36 (KHTML, like Gecko) Chrome/132.0.0.0 Safari/537.36","WebKit","Chrome","132.0.0.0","Windows","10.0","https://app.prolific.com/","en-GB,en-US;q=0.9,en;q=0.8","6762c5c001ce66a8d666441a","679edb085803f58d6bbd31ca","679eec104d1f034397408ef1","","null","<img     src='G_4.jpg' height='90'> <img     src='G_7.jpg' height='90'> <img     src='G_8.jpg' height='90'> <img      src='G_6.jpg' height='90'> <img   src='G_3.jpg' height='90'> <img       src='G_1.jpg' height='90'> <img id='swapped' src='G_5.jpg' height='90'> <img id='swapped'  src='G_2.jpg' height='90'>","null","Animation1","",""
"","","","","","html-keyboard-response","116","454589","0.0-102.0","32","1","2025-02-02 03:52:59","bc01a2b6f61d06f6604adb8657495020","109.166.49.198","Mozilla/5.0 (Windows NT 10.0; Win64; x64) AppleWebKit/537.36 (KHTML, like Gecko) Chrome/132.0.0.0 Safari/537.36","WebKit","Chrome","132.0.0.0","Windows","10.0","https://app.prolific.com/","en-GB,en-US;q=0.9,en;q=0.8","6762c5c001ce66a8d666441a","679edb085803f58d6bbd31ca","679eec104d1f034397408ef1","","null","<img     src='G_4.jpg' height='90'> <img     src='G_7.jpg' height='90'> <img     src='G_8.jpg' height='90'> <img      src='G_6.jpg' height='90'> <img   src='G_3.jpg' height='90'> <img       src='G_1.jpg' height='90'> <img  src='G_5.jpg' height='90'> <img   src='G_2.jpg' height='90'>","null","Animation1","",""
"","","","","","html-keyboard-response","117","455096","0.0-103.0","32","1","2025-02-02 03:52:59","bc01a2b6f61d06f6604adb8657495020","109.166.49.198","Mozilla/5.0 (Windows NT 10.0; Win64; x64) AppleWebKit/537.36 (KHTML, like Gecko) Chrome/132.0.0.0 Safari/537.36","WebKit","Chrome","132.0.0.0","Windows","10.0","https://app.prolific.com/","en-GB,en-US;q=0.9,en;q=0.8","6762c5c001ce66a8d666441a","679edb085803f58d6bbd31ca","679eec104d1f034397408ef1","","null","<img     src='G_4.jpg' height='90'> <img     src='G_7.jpg' height='90'> <img     src='G_8.jpg' height='90'> <img      src='G_6.jpg' height='90'> <img   src='G_3.jpg' height='90'> <img id='selected'       src='G_1.jpg' height='90'> <img  src='G_5.jpg' height='90'> <img   src='G_2.jpg' height='90'>","null","Animation1","",""
"","","","","","html-keyboard-response","118","455608","0.0-104.0","32","1","2025-02-02 03:52:59","bc01a2b6f61d06f6604adb8657495020","109.166.49.198","Mozilla/5.0 (Windows NT 10.0; Win64; x64) AppleWebKit/537.36 (KHTML, like Gecko) Chrome/132.0.0.0 Safari/537.36","WebKit","Chrome","132.0.0.0","Windows","10.0","https://app.prolific.com/","en-GB,en-US;q=0.9,en;q=0.8","6762c5c001ce66a8d666441a","679edb085803f58d6bbd31ca","679eec104d1f034397408ef1","","null","<img     src='G_4.jpg' height='90'> <img     src='G_7.jpg' height='90'> <img     src='G_8.jpg' height='90'> <img      src='G_6.jpg' height='90'> <img   src='G_3.jpg' height='90'> <img id='selected'       src='G_1.jpg' height='90'> <img id='selected'  src='G_5.jpg' height='90'> <img   src='G_2.jpg' height='90'>","null","Animation1","",""
"","","","","","html-keyboard-response","119","456115","0.0-105.0","32","1","2025-02-02 03:52:59","bc01a2b6f61d06f6604adb8657495020","109.166.49.198","Mozilla/5.0 (Windows NT 10.0; Win64; x64) AppleWebKit/537.36 (KHTML, like Gecko) Chrome/132.0.0.0 Safari/537.36","WebKit","Chrome","132.0.0.0","Windows","10.0","https://app.prolific.com/","en-GB,en-US;q=0.9,en;q=0.8","6762c5c001ce66a8d666441a","679edb085803f58d6bbd31ca","679eec104d1f034397408ef1","","null","<img     src='G_4.jpg' height='90'> <img     src='G_7.jpg' height='90'> <img     src='G_8.jpg' height='90'> <img      src='G_6.jpg' height='90'> <img   src='G_3.jpg' height='90'> <img id='selected'       src='G_1.jpg' height='90'> <img id='selected'  src='G_5.jpg' height='90'> <img   src='G_2.jpg' height='90'>","null","Animation1","",""
"","","","","","html-keyboard-response","120","456433","0.0-106.0","32","1","2025-02-02 03:52:59","bc01a2b6f61d06f6604adb8657495020","109.166.49.198","Mozilla/5.0 (Windows NT 10.0; Win64; x64) AppleWebKit/537.36 (KHTML, like Gecko) Chrome/132.0.0.0 Safari/537.36","WebKit","Chrome","132.0.0.0","Windows","10.0","https://app.prolific.com/","en-GB,en-US;q=0.9,en;q=0.8","6762c5c001ce66a8d666441a","679edb085803f58d6bbd31ca","679eec104d1f034397408ef1","","null","<img     src='G_4.jpg' height='90'> <img     src='G_7.jpg' height='90'> <img     src='G_8.jpg' height='90'> <img      src='G_6.jpg' height='90'> <img   src='G_3.jpg' height='90'> <img        src='G_1.jpg' height='90'> <img   src='G_5.jpg' height='90'> <img   src='G_2.jpg' height='90'>","null","Animation1","",""
"","","","","","html-keyboard-response","121","462251","0.0-107.0","32","1","2025-02-02 03:52:59","bc01a2b6f61d06f6604adb8657495020","109.166.49.198","Mozilla/5.0 (Windows NT 10.0; Win64; x64) AppleWebKit/537.36 (KHTML, like Gecko) Chrome/132.0.0.0 Safari/537.36","WebKit","Chrome","132.0.0.0","Windows","10.0","https://app.prolific.com/","en-GB,en-US;q=0.9,en;q=0.8","6762c5c001ce66a8d666441a","679edb085803f58d6bbd31ca","679eec104d1f034397408ef1","","5812","[""Did you notice any patterns? <br><br>Press Enter to watch that example again and follow the steps of Omgne Sort.""]","enter","","",""
"","","","","","html-button-response","122","462652","0.0-108.0","32","1","2025-02-02 03:52:59","bc01a2b6f61d06f6604adb8657495020","109.166.49.198","Mozilla/5.0 (Windows NT 10.0; Win64; x64) AppleWebKit/537.36 (KHTML, like Gecko) Chrome/132.0.0.0 Safari/537.36","WebKit","Chrome","132.0.0.0","Windows","10.0","https://app.prolific.com/","en-GB,en-US;q=0.9,en;q=0.8","6762c5c001ce66a8d666441a","679edb085803f58d6bbd31ca","679eec104d1f034397408ef1","","null","<img id='selected' src='G_6.jpg' height='90'> <img src='G_1.jpg' height='90'> <img src='G_8.jpg' height='90'> <img src='G_4.jpg' height='90'> <img src='G_7.jpg' height='90'> <img src='G_3.jpg' height='90'> <img src='G_2.jpg' height='90'> <img src='G_5.jpg' height='90'>","null","Learning example 1","",""
"","","","","","html-button-response","123","462970","0.0-109.0","32","1","2025-02-02 03:52:59","bc01a2b6f61d06f6604adb8657495020","109.166.49.198","Mozilla/5.0 (Windows NT 10.0; Win64; x64) AppleWebKit/537.36 (KHTML, like Gecko) Chrome/132.0.0.0 Safari/537.36","WebKit","Chrome","132.0.0.0","Windows","10.0","https://app.prolific.com/","en-GB,en-US;q=0.9,en;q=0.8","6762c5c001ce66a8d666441a","679edb085803f58d6bbd31ca","679eec104d1f034397408ef1","","null","<img id='selected' src='G_6.jpg' height='90'> <img id='selected' src='G_1.jpg' height='90'> <img src='G_8.jpg' height='90'> <img src='G_4.jpg' height='90'> <img src='G_7.jpg' height='90'> <img src='G_3.jpg' height='90'> <img src='G_2.jpg' height='90'> <img src='G_5.jpg' height='90'>","null","Learning example 1","",""
"","","","","","html-button-response","124","463293","0.0-110.0","32","1","2025-02-02 03:52:59","bc01a2b6f61d06f6604adb8657495020","109.166.49.198","Mozilla/5.0 (Windows NT 10.0; Win64; x64) AppleWebKit/537.36 (KHTML, like Gecko) Chrome/132.0.0.0 Safari/537.36","WebKit","Chrome","132.0.0.0","Windows","10.0","https://app.prolific.com/","en-GB,en-US;q=0.9,en;q=0.8","6762c5c001ce66a8d666441a","679edb085803f58d6bbd31ca","679eec104d1f034397408ef1","","null","<img id='selected' src='G_6.jpg' height='90'> <img id='selected' src='G_1.jpg' height='90'> <img src='G_8.jpg' height='90'> <img src='G_4.jpg' height='90'> <img src='G_7.jpg' height='90'> <img src='G_3.jpg' height='90'> <img src='G_2.jpg' height='90'> <img src='G_5.jpg' height='90'>","null","Learning example 1","",""
"","","","","","html-button-response","125","480488","0.0-111.0-0.0-0.0","32","1","2025-02-02 03:52:59","bc01a2b6f61d06f6604adb8657495020","109.166.49.198","Mozilla/5.0 (Windows NT 10.0; Win64; x64) AppleWebKit/537.36 (KHTML, like Gecko) Chrome/132.0.0.0 Safari/537.36","WebKit","Chrome","132.0.0.0","Windows","10.0","https://app.prolific.com/","en-GB,en-US;q=0.9,en;q=0.8","6762c5c001ce66a8d666441a","679edb085803f58d6bbd31ca","679eec104d1f034397408ef1","","17189","<img id='selected' src='G_6.jpg' height='90'> <img id='selected' src='G_1.jpg' height='90'> <img src='G_8.jpg' height='90'> <img src='G_4.jpg' height='90'> <img src='G_7.jpg' height='90'> <img src='G_3.jpg' height='90'> <img src='G_2.jpg' height='90'> <img src='G_5.jpg' height='90'>","0","Learning example 1","",""
"","","","","","html-button-response","126","481119","0.0-111.1-0.1-0.1","32","1","2025-02-02 03:52:59","bc01a2b6f61d06f6604adb8657495020","109.166.49.198","Mozilla/5.0 (Windows NT 10.0; Win64; x64) AppleWebKit/537.36 (KHTML, like Gecko) Chrome/132.0.0.0 Safari/537.36","WebKit","Chrome","132.0.0.0","Windows","10.0","https://app.prolific.com/","en-GB,en-US;q=0.9,en;q=0.8","6762c5c001ce66a8d666441a","679edb085803f58d6bbd31ca","679eec104d1f034397408ef1","","631","<img id='selected' src='G_6.jpg' height='90'> <img id='selected' src='G_1.jpg' height='90'> <img src='G_8.jpg' height='90'> <img src='G_4.jpg' height='90'> <img src='G_7.jpg' height='90'> <img src='G_3.jpg' height='90'> <img src='G_2.jpg' height='90'> <img src='G_5.jpg' height='90'>","1","Learning example 1","",""
"","","","","","html-button-response","127","481335","0.0-112.0","32","1","2025-02-02 03:52:59","bc01a2b6f61d06f6604adb8657495020","109.166.49.198","Mozilla/5.0 (Windows NT 10.0; Win64; x64) AppleWebKit/537.36 (KHTML, like Gecko) Chrome/132.0.0.0 Safari/537.36","WebKit","Chrome","132.0.0.0","Windows","10.0","https://app.prolific.com/","en-GB,en-US;q=0.9,en;q=0.8","6762c5c001ce66a8d666441a","679edb085803f58d6bbd31ca","679eec104d1f034397408ef1","","null","<img  src='G_6.jpg' height='90'> <img  src='G_1.jpg' height='90'> <img src='G_8.jpg' height='90'> <img src='G_4.jpg' height='90'> <img src='G_7.jpg' height='90'> <img src='G_3.jpg' height='90'> <img src='G_2.jpg' height='90'> <img src='G_5.jpg' height='90'>","null","Learning example 1","",""
"","","","","","html-button-response","128","481746","0.0-113.0","32","1","2025-02-02 03:52:59","bc01a2b6f61d06f6604adb8657495020","109.166.49.198","Mozilla/5.0 (Windows NT 10.0; Win64; x64) AppleWebKit/537.36 (KHTML, like Gecko) Chrome/132.0.0.0 Safari/537.36","WebKit","Chrome","132.0.0.0","Windows","10.0","https://app.prolific.com/","en-GB,en-US;q=0.9,en;q=0.8","6762c5c001ce66a8d666441a","679edb085803f58d6bbd31ca","679eec104d1f034397408ef1","","null","<img  src='G_6.jpg' height='90'> <img id='selected'  src='G_1.jpg' height='90'> <img src='G_8.jpg' height='90'> <img src='G_4.jpg' height='90'> <img src='G_7.jpg' height='90'> <img src='G_3.jpg' height='90'> <img src='G_2.jpg' height='90'> <img src='G_5.jpg' height='90'>","null","Learning example 1","",""
"","","","","","html-button-response","129","482061","0.0-114.0","32","1","2025-02-02 03:52:59","bc01a2b6f61d06f6604adb8657495020","109.166.49.198","Mozilla/5.0 (Windows NT 10.0; Win64; x64) AppleWebKit/537.36 (KHTML, like Gecko) Chrome/132.0.0.0 Safari/537.36","WebKit","Chrome","132.0.0.0","Windows","10.0","https://app.prolific.com/","en-GB,en-US;q=0.9,en;q=0.8","6762c5c001ce66a8d666441a","679edb085803f58d6bbd31ca","679eec104d1f034397408ef1","","null","<img  src='G_6.jpg' height='90'> <img id='selected'  src='G_1.jpg' height='90'> <img id='selected' src='G_8.jpg' height='90'> <img src='G_4.jpg' height='90'> <img src='G_7.jpg' height='90'> <img src='G_3.jpg' height='90'> <img src='G_2.jpg' height='90'> <img src='G_5.jpg' height='90'>","null","Learning example 1","",""
"","","","","","html-button-response","130","482372","0.0-115.0","32","1","2025-02-02 03:52:59","bc01a2b6f61d06f6604adb8657495020","109.166.49.198","Mozilla/5.0 (Windows NT 10.0; Win64; x64) AppleWebKit/537.36 (KHTML, like Gecko) Chrome/132.0.0.0 Safari/537.36","WebKit","Chrome","132.0.0.0","Windows","10.0","https://app.prolific.com/","en-GB,en-US;q=0.9,en;q=0.8","6762c5c001ce66a8d666441a","679edb085803f58d6bbd31ca","679eec104d1f034397408ef1","","null","<img  src='G_6.jpg' height='90'> <img id='swapped' src='G_8.jpg' height='90'> <img id='swapped'  src='G_1.jpg' height='90'> <img src='G_4.jpg' height='90'> <img src='G_7.jpg' height='90'> <img src='G_3.jpg' height='90'> <img src='G_2.jpg' height='90'> <img src='G_5.jpg' height='90'>","null","Learning example 1","",""
"","","","","","html-button-response","131","483724","0.0-116.0-0.0-0.0","32","1","2025-02-02 03:52:59","bc01a2b6f61d06f6604adb8657495020","109.166.49.198","Mozilla/5.0 (Windows NT 10.0; Win64; x64) AppleWebKit/537.36 (KHTML, like Gecko) Chrome/132.0.0.0 Safari/537.36","WebKit","Chrome","132.0.0.0","Windows","10.0","https://app.prolific.com/","en-GB,en-US;q=0.9,en;q=0.8","6762c5c001ce66a8d666441a","679edb085803f58d6bbd31ca","679eec104d1f034397408ef1","","1344","<img  src='G_6.jpg' height='90'> <img id='swapped' src='G_8.jpg' height='90'> <img id='swapped'  src='G_1.jpg' height='90'> <img src='G_4.jpg' height='90'> <img src='G_7.jpg' height='90'> <img src='G_3.jpg' height='90'> <img src='G_2.jpg' height='90'> <img src='G_5.jpg' height='90'>","2","Learning example 1","",""
"","","","","","html-button-response","132","484576","0.0-116.1-0.1-0.1","32","1","2025-02-02 03:52:59","bc01a2b6f61d06f6604adb8657495020","109.166.49.198","Mozilla/5.0 (Windows NT 10.0; Win64; x64) AppleWebKit/537.36 (KHTML, like Gecko) Chrome/132.0.0.0 Safari/537.36","WebKit","Chrome","132.0.0.0","Windows","10.0","https://app.prolific.com/","en-GB,en-US;q=0.9,en;q=0.8","6762c5c001ce66a8d666441a","679edb085803f58d6bbd31ca","679eec104d1f034397408ef1","","835","<img  src='G_6.jpg' height='90'> <img id='swapped' src='G_8.jpg' height='90'> <img id='swapped'  src='G_1.jpg' height='90'> <img src='G_4.jpg' height='90'> <img src='G_7.jpg' height='90'> <img src='G_3.jpg' height='90'> <img src='G_2.jpg' height='90'> <img src='G_5.jpg' height='90'>","1","Learning example 1","",""
"","","","","","html-button-response","133","484790","0.0-117.0","32","1","2025-02-02 03:52:59","bc01a2b6f61d06f6604adb8657495020","109.166.49.198","Mozilla/5.0 (Windows NT 10.0; Win64; x64) AppleWebKit/537.36 (KHTML, like Gecko) Chrome/132.0.0.0 Safari/537.36","WebKit","Chrome","132.0.0.0","Windows","10.0","https://app.prolific.com/","en-GB,en-US;q=0.9,en;q=0.8","6762c5c001ce66a8d666441a","679edb085803f58d6bbd31ca","679eec104d1f034397408ef1","","null","<img  src='G_6.jpg' height='90'> <img  src='G_8.jpg' height='90'> <img   src='G_1.jpg' height='90'> <img src='G_4.jpg' height='90'> <img src='G_7.jpg' height='90'> <img src='G_3.jpg' height='90'> <img src='G_2.jpg' height='90'> <img src='G_5.jpg' height='90'>","null","Learning example 1","",""
"","","","","","html-button-response","134","485200","0.0-118.0","32","1","2025-02-02 03:52:59","bc01a2b6f61d06f6604adb8657495020","109.166.49.198","Mozilla/5.0 (Windows NT 10.0; Win64; x64) AppleWebKit/537.36 (KHTML, like Gecko) Chrome/132.0.0.0 Safari/537.36","WebKit","Chrome","132.0.0.0","Windows","10.0","https://app.prolific.com/","en-GB,en-US;q=0.9,en;q=0.8","6762c5c001ce66a8d666441a","679edb085803f58d6bbd31ca","679eec104d1f034397408ef1","","null","<img id='selected'  src='G_6.jpg' height='90'> <img  src='G_8.jpg' height='90'> <img   src='G_1.jpg' height='90'> <img src='G_4.jpg' height='90'> <img src='G_7.jpg' height='90'> <img src='G_3.jpg' height='90'> <img src='G_2.jpg' height='90'> <img src='G_5.jpg' height='90'>","null","Learning example 1","",""
"","","","","","html-button-response","135","485523","0.0-119.0","32","1","2025-02-02 03:52:59","bc01a2b6f61d06f6604adb8657495020","109.166.49.198","Mozilla/5.0 (Windows NT 10.0; Win64; x64) AppleWebKit/537.36 (KHTML, like Gecko) Chrome/132.0.0.0 Safari/537.36","WebKit","Chrome","132.0.0.0","Windows","10.0","https://app.prolific.com/","en-GB,en-US;q=0.9,en;q=0.8","6762c5c001ce66a8d666441a","679edb085803f58d6bbd31ca","679eec104d1f034397408ef1","","null","<img id='selected'  src='G_6.jpg' height='90'> <img id='selected'  src='G_8.jpg' height='90'> <img   src='G_1.jpg' height='90'> <img src='G_4.jpg' height='90'> <img src='G_7.jpg' height='90'> <img src='G_3.jpg' height='90'> <img src='G_2.jpg' height='90'> <img src='G_5.jpg' height='90'>","null","Learning example 1","",""
"","","","","","html-button-response","136","485833","0.0-120.0","32","1","2025-02-02 03:52:59","bc01a2b6f61d06f6604adb8657495020","109.166.49.198","Mozilla/5.0 (Windows NT 10.0; Win64; x64) AppleWebKit/537.36 (KHTML, like Gecko) Chrome/132.0.0.0 Safari/537.36","WebKit","Chrome","132.0.0.0","Windows","10.0","https://app.prolific.com/","en-GB,en-US;q=0.9,en;q=0.8","6762c5c001ce66a8d666441a","679edb085803f58d6bbd31ca","679eec104d1f034397408ef1","","null","<img id='swapped'  src='G_8.jpg' height='90'> <img id='swapped'  src='G_6.jpg' height='90'> <img   src='G_1.jpg' height='90'> <img src='G_4.jpg' height='90'> <img src='G_7.jpg' height='90'> <img src='G_3.jpg' height='90'> <img src='G_2.jpg' height='90'> <img src='G_5.jpg' height='90'>","null","Learning example 1","",""
"","","","","","html-button-response","137","486853","0.0-121.0-0.0-0.0","32","1","2025-02-02 03:52:59","bc01a2b6f61d06f6604adb8657495020","109.166.49.198","Mozilla/5.0 (Windows NT 10.0; Win64; x64) AppleWebKit/537.36 (KHTML, like Gecko) Chrome/132.0.0.0 Safari/537.36","WebKit","Chrome","132.0.0.0","Windows","10.0","https://app.prolific.com/","en-GB,en-US;q=0.9,en;q=0.8","6762c5c001ce66a8d666441a","679edb085803f58d6bbd31ca","679eec104d1f034397408ef1","","995","<img id='swapped'  src='G_8.jpg' height='90'> <img id='swapped'  src='G_6.jpg' height='90'> <img   src='G_1.jpg' height='90'> <img src='G_4.jpg' height='90'> <img src='G_7.jpg' height='90'> <img src='G_3.jpg' height='90'> <img src='G_2.jpg' height='90'> <img src='G_5.jpg' height='90'>","0","Learning example 1","",""
