"success","timeout","failed_images","failed_audio","failed_video","trial_type","trial_index","time_elapsed","internal_node_id","run_id","condition","recorded_at","source_code_version","ip","user_agent","device","browser","browser_version","platform","platform_version","referer","accept_language","PROLIFIC_PID","STUDY_ID","SESSION_ID","view_history","rt","stimulus","response","phase","question_order","presented_choices"
"true","false","[]","[]","[]","preload","0","272","0.0-0.0","33","1","2025-02-02 04:03:40","bc01a2b6f61d06f6604adb8657495020","73.207.88.221","Mozilla/5.0 (Windows NT 10.0; Win64; x64; rv:134.0) Gecko/20100101 Firefox/134.0","","Firefox","134.0","Windows","10.0","https://app.prolific.com/","en-US,en;q=0.5","656fc7d36afa7a7199fe7c75","679edb085803f58d6bbd31ca","679eee745803f58d6bbd346e","","","","","","",""
"","","","","","instructions","1","38544","0.0-1.0","33","1","2025-02-02 04:03:40","bc01a2b6f61d06f6604adb8657495020","73.207.88.221","Mozilla/5.0 (Windows NT 10.0; Win64; x64; rv:134.0) Gecko/20100101 Firefox/134.0","","Firefox","134.0","Windows","10.0","https://app.prolific.com/","en-US,en;q=0.5","656fc7d36afa7a7199fe7c75","679edb085803f58d6bbd31ca","679eee745803f58d6bbd346e","[{""page_index"":0,""viewing_time"":38269}]","38269","","","","",""
"","","","","","html-keyboard-response","2","39055","0.0-2.0","33","1","2025-02-02 04:03:40","bc01a2b6f61d06f6604adb8657495020","73.207.88.221","Mozilla/5.0 (Windows NT 10.0; Win64; x64; rv:134.0) Gecko/20100101 Firefox/134.0","","Firefox","134.0","Windows","10.0","https://app.prolific.com/","en-US,en;q=0.5","656fc7d36afa7a7199fe7c75","679edb085803f58d6bbd31ca","679eee745803f58d6bbd346e","","null","<p> + <p/>","null","","",""
"","","","","","instructions","3","139021","0.0-3.0","33","1","2025-02-02 04:03:40","bc01a2b6f61d06f6604adb8657495020","73.207.88.221","Mozilla/5.0 (Windows NT 10.0; Win64; x64; rv:134.0) Gecko/20100101 Firefox/134.0","","Firefox","134.0","Windows","10.0","https://app.prolific.com/","en-US,en;q=0.5","656fc7d36afa7a7199fe7c75","679edb085803f58d6bbd31ca","679eee745803f58d6bbd346e","[{""page_index"":0,""viewing_time"":3775},{""page_index"":1,""viewing_time"":41160},{""page_index"":2,""viewing_time"":5754},{""page_index"":3,""viewing_time"":38455},{""page_index"":4,""viewing_time"":10821}]","99965","","","","",""
"","","","","","html-button-response","4","145384","0.0-4.0-0.0-0.0","33","1","2025-02-02 04:03:40","bc01a2b6f61d06f6604adb8657495020","73.207.88.221","Mozilla/5.0 (Windows NT 10.0; Win64; x64; rv:134.0) Gecko/20100101 Firefox/134.0","","Firefox","134.0","Windows","10.0","https://app.prolific.com/","en-US,en;q=0.5","656fc7d36afa7a7199fe7c75","679edb085803f58d6bbd31ca","679eee745803f58d6bbd346e","","6361","","0","Intro Trial","",""
"","","","","","html-button-response","5","146393","0.0-4.1-0.1-0.1","33","1","2025-02-02 04:03:40","bc01a2b6f61d06f6604adb8657495020","73.207.88.221","Mozilla/5.0 (Windows NT 10.0; Win64; x64; rv:134.0) Gecko/20100101 Firefox/134.0","","Firefox","134.0","Windows","10.0","https://app.prolific.com/","en-US,en;q=0.5","656fc7d36afa7a7199fe7c75","679edb085803f58d6bbd31ca","679eee745803f58d6bbd346e","","1002","","3","Intro Trial","",""
"","","","","","html-button-response","6","148057","0.0-4.2-0.2-0.2","33","1","2025-02-02 04:03:40","bc01a2b6f61d06f6604adb8657495020","73.207.88.221","Mozilla/5.0 (Windows NT 10.0; Win64; x64; rv:134.0) Gecko/20100101 Firefox/134.0","","Firefox","134.0","Windows","10.0","https://app.prolific.com/","en-US,en;q=0.5","656fc7d36afa7a7199fe7c75","679edb085803f58d6bbd31ca","679eee745803f58d6bbd346e","","1660","","0","Intro Trial","",""
"","","","","","html-button-response","7","152561","0.0-4.3-0.3-0.3","33","1","2025-02-02 04:03:40","bc01a2b6f61d06f6604adb8657495020","73.207.88.221","Mozilla/5.0 (Windows NT 10.0; Win64; x64; rv:134.0) Gecko/20100101 Firefox/134.0","","Firefox","134.0","Windows","10.0","https://app.prolific.com/","en-US,en;q=0.5","656fc7d36afa7a7199fe7c75","679edb085803f58d6bbd31ca","679eee745803f58d6bbd346e","","4498","","3","Intro Trial","",""
"","","","","","html-button-response","8","153726","0.0-4.4-0.4-0.4","33","1","2025-02-02 04:03:40","bc01a2b6f61d06f6604adb8657495020","73.207.88.221","Mozilla/5.0 (Windows NT 10.0; Win64; x64; rv:134.0) Gecko/20100101 Firefox/134.0","","Firefox","134.0","Windows","10.0","https://app.prolific.com/","en-US,en;q=0.5","656fc7d36afa7a7199fe7c75","679edb085803f58d6bbd31ca","679eee745803f58d6bbd346e","","1162","","3","Intro Trial","",""
"","","","","","html-button-response","9","155077","0.0-4.5-0.5-0.5","33","1","2025-02-02 04:03:40","bc01a2b6f61d06f6604adb8657495020","73.207.88.221","Mozilla/5.0 (Windows NT 10.0; Win64; x64; rv:134.0) Gecko/20100101 Firefox/134.0","","Firefox","134.0","Windows","10.0","https://app.prolific.com/","en-US,en;q=0.5","656fc7d36afa7a7199fe7c75","679edb085803f58d6bbd31ca","679eee745803f58d6bbd346e","","1350","","0","Intro Trial","",""
"","","","","","html-button-response","10","155786","0.0-4.6-0.6-0.6","33","1","2025-02-02 04:03:40","bc01a2b6f61d06f6604adb8657495020","73.207.88.221","Mozilla/5.0 (Windows NT 10.0; Win64; x64; rv:134.0) Gecko/20100101 Firefox/134.0","","Firefox","134.0","Windows","10.0","https://app.prolific.com/","en-US,en;q=0.5","656fc7d36afa7a7199fe7c75","679edb085803f58d6bbd31ca","679eee745803f58d6bbd346e","","706","","0","Intro Trial","",""
"","","","","","html-button-response","11","169600","0.0-4.7-0.7-0.7","33","1","2025-02-02 04:03:40","bc01a2b6f61d06f6604adb8657495020","73.207.88.221","Mozilla/5.0 (Windows NT 10.0; Win64; x64; rv:134.0) Gecko/20100101 Firefox/134.0","","Firefox","134.0","Windows","10.0","https://app.prolific.com/","en-US,en;q=0.5","656fc7d36afa7a7199fe7c75","679edb085803f58d6bbd31ca","679eee745803f58d6bbd346e","","13810","","2","Intro Trial","",""
"","","","","","html-button-response","12","174366","0.0-4.8-0.8-0.8","33","1","2025-02-02 04:03:40","bc01a2b6f61d06f6604adb8657495020","73.207.88.221","Mozilla/5.0 (Windows NT 10.0; Win64; x64; rv:134.0) Gecko/20100101 Firefox/134.0","","Firefox","134.0","Windows","10.0","https://app.prolific.com/","en-US,en;q=0.5","656fc7d36afa7a7199fe7c75","679edb085803f58d6bbd31ca","679eee745803f58d6bbd346e","","4760","","3","Intro Trial","",""
"","","","","","html-button-response","13","175512","0.0-4.9-0.9-0.9","33","1","2025-02-02 04:03:40","bc01a2b6f61d06f6604adb8657495020","73.207.88.221","Mozilla/5.0 (Windows NT 10.0; Win64; x64; rv:134.0) Gecko/20100101 Firefox/134.0","","Firefox","134.0","Windows","10.0","https://app.prolific.com/","en-US,en;q=0.5","656fc7d36afa7a7199fe7c75","679edb085803f58d6bbd31ca","679eee745803f58d6bbd346e","","1145","","2","Intro Trial","",""
"","","","","","html-button-response","14","178185","0.0-4.10-0.10-0.10","33","1","2025-02-02 04:03:40","bc01a2b6f61d06f6604adb8657495020","73.207.88.221","Mozilla/5.0 (Windows NT 10.0; Win64; x64; rv:134.0) Gecko/20100101 Firefox/134.0","","Firefox","134.0","Windows","10.0","https://app.prolific.com/","en-US,en;q=0.5","656fc7d36afa7a7199fe7c75","679edb085803f58d6bbd31ca","679eee745803f58d6bbd346e","","2667","","1","Intro Trial","",""
"","","","","","html-button-response","15","181313","0.0-4.11-0.11-0.11","33","1","2025-02-02 04:03:40","bc01a2b6f61d06f6604adb8657495020","73.207.88.221","Mozilla/5.0 (Windows NT 10.0; Win64; x64; rv:134.0) Gecko/20100101 Firefox/134.0","","Firefox","134.0","Windows","10.0","https://app.prolific.com/","en-US,en;q=0.5","656fc7d36afa7a7199fe7c75","679edb085803f58d6bbd31ca","679eee745803f58d6bbd346e","","3123","","3","Intro Trial","",""
"","","","","","html-button-response","16","182789","0.0-4.12-0.12-0.12","33","1","2025-02-02 04:03:40","bc01a2b6f61d06f6604adb8657495020","73.207.88.221","Mozilla/5.0 (Windows NT 10.0; Win64; x64; rv:134.0) Gecko/20100101 Firefox/134.0","","Firefox","134.0","Windows","10.0","https://app.prolific.com/","en-US,en;q=0.5","656fc7d36afa7a7199fe7c75","679edb085803f58d6bbd31ca","679eee745803f58d6bbd346e","","1473","","4","Intro Trial","",""
"","","","","","html-button-response","17","189678","0.0-4.13-0.13-0.13","33","1","2025-02-02 04:03:40","bc01a2b6f61d06f6604adb8657495020","73.207.88.221","Mozilla/5.0 (Windows NT 10.0; Win64; x64; rv:134.0) Gecko/20100101 Firefox/134.0","","Firefox","134.0","Windows","10.0","https://app.prolific.com/","en-US,en;q=0.5","656fc7d36afa7a7199fe7c75","679edb085803f58d6bbd31ca","679eee745803f58d6bbd346e","","6889","","1","Intro Trial","",""
"","","","","","html-button-response","18","195997","0.0-4.14-0.14-0.14","33","1","2025-02-02 04:03:40","bc01a2b6f61d06f6604adb8657495020","73.207.88.221","Mozilla/5.0 (Windows NT 10.0; Win64; x64; rv:134.0) Gecko/20100101 Firefox/134.0","","Firefox","134.0","Windows","10.0","https://app.prolific.com/","en-US,en;q=0.5","656fc7d36afa7a7199fe7c75","679edb085803f58d6bbd31ca","679eee745803f58d6bbd346e","","6317","","5","Intro Trial","",""
"","","","","","html-keyboard-response","19","217048","0.0-5.0","33","1","2025-02-02 04:03:40","bc01a2b6f61d06f6604adb8657495020","73.207.88.221","Mozilla/5.0 (Windows NT 10.0; Win64; x64; rv:134.0) Gecko/20100101 Firefox/134.0","","Firefox","134.0","Windows","10.0","https://app.prolific.com/","en-US,en;q=0.5","656fc7d36afa7a7199fe7c75","679edb085803f58d6bbd31ca","679eee745803f58d6bbd346e","","21049","[""You sorted incorrectly by using the balance 7 times. <br><br> <img src='G_3.jpg' height='90'><img src='G_5.jpg' height='90'><img src='G_1.jpg' height='90'><img src='G_4.jpg' height='90'><img src='G_2.jpg' height='90'><br><br> Your final order is 3,1,4,5,2<br><br><br>Omgne Sort in this game will allow you to sort correctly by using the balance 8 times. Press Enter to learn it!""]","enter","","",""
"","","","","","html-keyboard-response","20","240789","0.0-6.0","33","1","2025-02-02 04:03:40","bc01a2b6f61d06f6604adb8657495020","73.207.88.221","Mozilla/5.0 (Windows NT 10.0; Win64; x64; rv:134.0) Gecko/20100101 Firefox/134.0","","Firefox","134.0","Windows","10.0","https://app.prolific.com/","en-US,en;q=0.5","656fc7d36afa7a7199fe7c75","679edb085803f58d6bbd31ca","679eee745803f58d6bbd346e","","23738","<p>Welcome to the learning phase! <br><br> You will learn by six examples. The following learning trials will not be used to calculate your performance. <br><br> Press Enter to continue.<p/>","enter","","",""
"","","","","","html-keyboard-response","21","262344","0.0-7.0","33","1","2025-02-02 04:03:40","bc01a2b6f61d06f6604adb8657495020","73.207.88.221","Mozilla/5.0 (Windows NT 10.0; Win64; x64; rv:134.0) Gecko/20100101 Firefox/134.0","","Firefox","134.0","Windows","10.0","https://app.prolific.com/","en-US,en;q=0.5","656fc7d36afa7a7199fe7c75","679edb085803f58d6bbd31ca","679eee745803f58d6bbd346e","","21554","[""Example 1<br><br>You will watch Omnge Sort in action. Try to identify any patterns in the comparisons made by this method. <br><br>Press Enter to continue.""]","enter","","",""
"","","","","","html-keyboard-response","22","262860","0.0-8.0","33","1","2025-02-02 04:03:40","bc01a2b6f61d06f6604adb8657495020","73.207.88.221","Mozilla/5.0 (Windows NT 10.0; Win64; x64; rv:134.0) Gecko/20100101 Firefox/134.0","","Firefox","134.0","Windows","10.0","https://app.prolific.com/","en-US,en;q=0.5","656fc7d36afa7a7199fe7c75","679edb085803f58d6bbd31ca","679eee745803f58d6bbd346e","","null","<img id='selected' src='G_9.jpg' height='90'> <img src='G_7.jpg' height='90'> <img src='G_5.jpg' height='90'> <img src='G_3.jpg' height='90'> <img src='G_1.jpg' height='90'>","null","Animation0","",""
"","","","","","html-keyboard-response","23","263365","0.0-9.0","33","1","2025-02-02 04:03:40","bc01a2b6f61d06f6604adb8657495020","73.207.88.221","Mozilla/5.0 (Windows NT 10.0; Win64; x64; rv:134.0) Gecko/20100101 Firefox/134.0","","Firefox","134.0","Windows","10.0","https://app.prolific.com/","en-US,en;q=0.5","656fc7d36afa7a7199fe7c75","679edb085803f58d6bbd31ca","679eee745803f58d6bbd346e","","null","<img id='selected' src='G_9.jpg' height='90'> <img id='selected' src='G_7.jpg' height='90'> <img src='G_5.jpg' height='90'> <img src='G_3.jpg' height='90'> <img src='G_1.jpg' height='90'>","null","Animation0","",""
"","","","","","html-keyboard-response","24","263871","0.0-10.0","33","1","2025-02-02 04:03:40","bc01a2b6f61d06f6604adb8657495020","73.207.88.221","Mozilla/5.0 (Windows NT 10.0; Win64; x64; rv:134.0) Gecko/20100101 Firefox/134.0","","Firefox","134.0","Windows","10.0","https://app.prolific.com/","en-US,en;q=0.5","656fc7d36afa7a7199fe7c75","679edb085803f58d6bbd31ca","679eee745803f58d6bbd346e","","null","<img id='swapped' src='G_7.jpg' height='90'> <img id='swapped' src='G_9.jpg' height='90'> <img src='G_5.jpg' height='90'> <img src='G_3.jpg' height='90'> <img src='G_1.jpg' height='90'>","null","Animation0","",""
"","","","","","html-keyboard-response","25","264182","0.0-11.0","33","1","2025-02-02 04:03:40","bc01a2b6f61d06f6604adb8657495020","73.207.88.221","Mozilla/5.0 (Windows NT 10.0; Win64; x64; rv:134.0) Gecko/20100101 Firefox/134.0","","Firefox","134.0","Windows","10.0","https://app.prolific.com/","en-US,en;q=0.5","656fc7d36afa7a7199fe7c75","679edb085803f58d6bbd31ca","679eee745803f58d6bbd346e","","null","<img  src='G_7.jpg' height='90'> <img  src='G_9.jpg' height='90'> <img src='G_5.jpg' height='90'> <img src='G_3.jpg' height='90'> <img src='G_1.jpg' height='90'>","null","Animation0","",""
"","","","","","html-keyboard-response","26","264696","0.0-12.0","33","1","2025-02-02 04:03:40","bc01a2b6f61d06f6604adb8657495020","73.207.88.221","Mozilla/5.0 (Windows NT 10.0; Win64; x64; rv:134.0) Gecko/20100101 Firefox/134.0","","Firefox","134.0","Windows","10.0","https://app.prolific.com/","en-US,en;q=0.5","656fc7d36afa7a7199fe7c75","679edb085803f58d6bbd31ca","679eee745803f58d6bbd346e","","null","<img  src='G_7.jpg' height='90'> <img id='selected'  src='G_9.jpg' height='90'> <img src='G_5.jpg' height='90'> <img src='G_3.jpg' height='90'> <img src='G_1.jpg' height='90'>","null","Animation0","",""
"","","","","","html-keyboard-response","27","265208","0.0-13.0","33","1","2025-02-02 04:03:40","bc01a2b6f61d06f6604adb8657495020","73.207.88.221","Mozilla/5.0 (Windows NT 10.0; Win64; x64; rv:134.0) Gecko/20100101 Firefox/134.0","","Firefox","134.0","Windows","10.0","https://app.prolific.com/","en-US,en;q=0.5","656fc7d36afa7a7199fe7c75","679edb085803f58d6bbd31ca","679eee745803f58d6bbd346e","","null","<img  src='G_7.jpg' height='90'> <img id='selected'  src='G_9.jpg' height='90'> <img id='selected' src='G_5.jpg' height='90'> <img src='G_3.jpg' height='90'> <img src='G_1.jpg' height='90'>","null","Animation0","",""
"","","","","","html-keyboard-response","28","265713","0.0-14.0","33","1","2025-02-02 04:03:40","bc01a2b6f61d06f6604adb8657495020","73.207.88.221","Mozilla/5.0 (Windows NT 10.0; Win64; x64; rv:134.0) Gecko/20100101 Firefox/134.0","","Firefox","134.0","Windows","10.0","https://app.prolific.com/","en-US,en;q=0.5","656fc7d36afa7a7199fe7c75","679edb085803f58d6bbd31ca","679eee745803f58d6bbd346e","","null","<img  src='G_7.jpg' height='90'> <img id='selected'  src='G_9.jpg' height='90'> <img id='selected' src='G_5.jpg' height='90'> <img src='G_3.jpg' height='90'> <img src='G_1.jpg' height='90'>","null","Animation0","",""
"","","","","","html-keyboard-response","29","266026","0.0-15.0","33","1","2025-02-02 04:03:40","bc01a2b6f61d06f6604adb8657495020","73.207.88.221","Mozilla/5.0 (Windows NT 10.0; Win64; x64; rv:134.0) Gecko/20100101 Firefox/134.0","","Firefox","134.0","Windows","10.0","https://app.prolific.com/","en-US,en;q=0.5","656fc7d36afa7a7199fe7c75","679edb085803f58d6bbd31ca","679eee745803f58d6bbd346e","","null","<img  src='G_7.jpg' height='90'> <img   src='G_9.jpg' height='90'> <img  src='G_5.jpg' height='90'> <img src='G_3.jpg' height='90'> <img src='G_1.jpg' height='90'>","null","Animation0","",""
"","","","","","html-keyboard-response","30","266528","0.0-16.0","33","1","2025-02-02 04:03:40","bc01a2b6f61d06f6604adb8657495020","73.207.88.221","Mozilla/5.0 (Windows NT 10.0; Win64; x64; rv:134.0) Gecko/20100101 Firefox/134.0","","Firefox","134.0","Windows","10.0","https://app.prolific.com/","en-US,en;q=0.5","656fc7d36afa7a7199fe7c75","679edb085803f58d6bbd31ca","679eee745803f58d6bbd346e","","null","<img  src='G_7.jpg' height='90'> <img   src='G_9.jpg' height='90'> <img id='selected'  src='G_5.jpg' height='90'> <img src='G_3.jpg' height='90'> <img src='G_1.jpg' height='90'>","null","Animation0","",""
"","","","","","html-keyboard-response","31","267034","0.0-17.0","33","1","2025-02-02 04:03:40","bc01a2b6f61d06f6604adb8657495020","73.207.88.221","Mozilla/5.0 (Windows NT 10.0; Win64; x64; rv:134.0) Gecko/20100101 Firefox/134.0","","Firefox","134.0","Windows","10.0","https://app.prolific.com/","en-US,en;q=0.5","656fc7d36afa7a7199fe7c75","679edb085803f58d6bbd31ca","679eee745803f58d6bbd346e","","null","<img  src='G_7.jpg' height='90'> <img   src='G_9.jpg' height='90'> <img id='selected'  src='G_5.jpg' height='90'> <img id='selected' src='G_3.jpg' height='90'> <img src='G_1.jpg' height='90'>","null","Animation0","",""
"","","","","","html-keyboard-response","32","267551","0.0-18.0","33","1","2025-02-02 04:03:40","bc01a2b6f61d06f6604adb8657495020","73.207.88.221","Mozilla/5.0 (Windows NT 10.0; Win64; x64; rv:134.0) Gecko/20100101 Firefox/134.0","","Firefox","134.0","Windows","10.0","https://app.prolific.com/","en-US,en;q=0.5","656fc7d36afa7a7199fe7c75","679edb085803f58d6bbd31ca","679eee745803f58d6bbd346e","","null","<img  src='G_7.jpg' height='90'> <img   src='G_9.jpg' height='90'> <img id='selected'  src='G_5.jpg' height='90'> <img id='selected' src='G_3.jpg' height='90'> <img src='G_1.jpg' height='90'>","null","Animation0","",""
"","","","","","html-keyboard-response","33","267863","0.0-19.0","33","1","2025-02-02 04:03:40","bc01a2b6f61d06f6604adb8657495020","73.207.88.221","Mozilla/5.0 (Windows NT 10.0; Win64; x64; rv:134.0) Gecko/20100101 Firefox/134.0","","Firefox","134.0","Windows","10.0","https://app.prolific.com/","en-US,en;q=0.5","656fc7d36afa7a7199fe7c75","679edb085803f58d6bbd31ca","679eee745803f58d6bbd346e","","null","<img  src='G_7.jpg' height='90'> <img   src='G_9.jpg' height='90'> <img   src='G_5.jpg' height='90'> <img  src='G_3.jpg' height='90'> <img src='G_1.jpg' height='90'>","null","Animation0","",""
"","","","","","html-keyboard-response","34","268372","0.0-20.0","33","1","2025-02-02 04:03:40","bc01a2b6f61d06f6604adb8657495020","73.207.88.221","Mozilla/5.0 (Windows NT 10.0; Win64; x64; rv:134.0) Gecko/20100101 Firefox/134.0","","Firefox","134.0","Windows","10.0","https://app.prolific.com/","en-US,en;q=0.5","656fc7d36afa7a7199fe7c75","679edb085803f58d6bbd31ca","679eee745803f58d6bbd346e","","null","<img  src='G_7.jpg' height='90'> <img   src='G_9.jpg' height='90'> <img   src='G_5.jpg' height='90'> <img id='selected'  src='G_3.jpg' height='90'> <img src='G_1.jpg' height='90'>","null","Animation0","",""
"","","","","","html-keyboard-response","35","268877","0.0-21.0","33","1","2025-02-02 04:03:40","bc01a2b6f61d06f6604adb8657495020","73.207.88.221","Mozilla/5.0 (Windows NT 10.0; Win64; x64; rv:134.0) Gecko/20100101 Firefox/134.0","","Firefox","134.0","Windows","10.0","https://app.prolific.com/","en-US,en;q=0.5","656fc7d36afa7a7199fe7c75","679edb085803f58d6bbd31ca","679eee745803f58d6bbd346e","","null","<img  src='G_7.jpg' height='90'> <img   src='G_9.jpg' height='90'> <img   src='G_5.jpg' height='90'> <img id='selected'  src='G_3.jpg' height='90'> <img id='selected' src='G_1.jpg' height='90'>","null","Animation0","",""
"","","","","","html-keyboard-response","36","269394","0.0-22.0","33","1","2025-02-02 04:03:40","bc01a2b6f61d06f6604adb8657495020","73.207.88.221","Mozilla/5.0 (Windows NT 10.0; Win64; x64; rv:134.0) Gecko/20100101 Firefox/134.0","","Firefox","134.0","Windows","10.0","https://app.prolific.com/","en-US,en;q=0.5","656fc7d36afa7a7199fe7c75","679edb085803f58d6bbd31ca","679eee745803f58d6bbd346e","","null","<img  src='G_7.jpg' height='90'> <img   src='G_9.jpg' height='90'> <img   src='G_5.jpg' height='90'> <img id='selected'  src='G_3.jpg' height='90'> <img id='selected' src='G_1.jpg' height='90'>","null","Animation0","",""
"","","","","","html-keyboard-response","37","269709","0.0-23.0","33","1","2025-02-02 04:03:40","bc01a2b6f61d06f6604adb8657495020","73.207.88.221","Mozilla/5.0 (Windows NT 10.0; Win64; x64; rv:134.0) Gecko/20100101 Firefox/134.0","","Firefox","134.0","Windows","10.0","https://app.prolific.com/","en-US,en;q=0.5","656fc7d36afa7a7199fe7c75","679edb085803f58d6bbd31ca","679eee745803f58d6bbd346e","","null","<img  src='G_7.jpg' height='90'> <img   src='G_9.jpg' height='90'> <img   src='G_5.jpg' height='90'> <img   src='G_3.jpg' height='90'> <img  src='G_1.jpg' height='90'>","null","Animation0","",""
"","","","","","html-keyboard-response","38","274669","0.0-24.0","33","1","2025-02-02 04:03:40","bc01a2b6f61d06f6604adb8657495020","73.207.88.221","Mozilla/5.0 (Windows NT 10.0; Win64; x64; rv:134.0) Gecko/20100101 Firefox/134.0","","Firefox","134.0","Windows","10.0","https://app.prolific.com/","en-US,en;q=0.5","656fc7d36afa7a7199fe7c75","679edb085803f58d6bbd31ca","679eee745803f58d6bbd346e","","4957","[""Did you notice any patterns? <br><br>Press Enter to watch that example again and follow the steps of Omgne Sort.""]","enter","","",""
"","","","","","html-button-response","39","275076","0.0-25.0","33","1","2025-02-02 04:03:40","bc01a2b6f61d06f6604adb8657495020","73.207.88.221","Mozilla/5.0 (Windows NT 10.0; Win64; x64; rv:134.0) Gecko/20100101 Firefox/134.0","","Firefox","134.0","Windows","10.0","https://app.prolific.com/","en-US,en;q=0.5","656fc7d36afa7a7199fe7c75","679edb085803f58d6bbd31ca","679eee745803f58d6bbd346e","","null","<img id='selected' src='G_9.jpg' height='90'> <img src='G_7.jpg' height='90'> <img src='G_5.jpg' height='90'> <img src='G_3.jpg' height='90'> <img src='G_1.jpg' height='90'>","null","Learning example 0","",""
"","","","","","html-button-response","40","275387","0.0-26.0","33","1","2025-02-02 04:03:40","bc01a2b6f61d06f6604adb8657495020","73.207.88.221","Mozilla/5.0 (Windows NT 10.0; Win64; x64; rv:134.0) Gecko/20100101 Firefox/134.0","","Firefox","134.0","Windows","10.0","https://app.prolific.com/","en-US,en;q=0.5","656fc7d36afa7a7199fe7c75","679edb085803f58d6bbd31ca","679eee745803f58d6bbd346e","","null","<img id='selected' src='G_9.jpg' height='90'> <img id='selected' src='G_7.jpg' height='90'> <img src='G_5.jpg' height='90'> <img src='G_3.jpg' height='90'> <img src='G_1.jpg' height='90'>","null","Learning example 0","",""
"","","","","","html-button-response","41","275700","0.0-27.0","33","1","2025-02-02 04:03:40","bc01a2b6f61d06f6604adb8657495020","73.207.88.221","Mozilla/5.0 (Windows NT 10.0; Win64; x64; rv:134.0) Gecko/20100101 Firefox/134.0","","Firefox","134.0","Windows","10.0","https://app.prolific.com/","en-US,en;q=0.5","656fc7d36afa7a7199fe7c75","679edb085803f58d6bbd31ca","679eee745803f58d6bbd346e","","null","<img id='swapped' src='G_7.jpg' height='90'> <img id='swapped' src='G_9.jpg' height='90'> <img src='G_5.jpg' height='90'> <img src='G_3.jpg' height='90'> <img src='G_1.jpg' height='90'>","null","Learning example 0","",""
"","","","","","html-button-response","42","294071","0.0-28.0-0.0-0.0","33","1","2025-02-02 04:03:40","bc01a2b6f61d06f6604adb8657495020","73.207.88.221","Mozilla/5.0 (Windows NT 10.0; Win64; x64; rv:134.0) Gecko/20100101 Firefox/134.0","","Firefox","134.0","Windows","10.0","https://app.prolific.com/","en-US,en;q=0.5","656fc7d36afa7a7199fe7c75","679edb085803f58d6bbd31ca","679eee745803f58d6bbd346e","","18368","<img id='swapped' src='G_7.jpg' height='90'> <img id='swapped' src='G_9.jpg' height='90'> <img src='G_5.jpg' height='90'> <img src='G_3.jpg' height='90'> <img src='G_1.jpg' height='90'>","1","Learning example 0","",""
"","","","","","html-button-response","43","294627","0.0-28.1-0.1-0.1","33","1","2025-02-02 04:03:40","bc01a2b6f61d06f6604adb8657495020","73.207.88.221","Mozilla/5.0 (Windows NT 10.0; Win64; x64; rv:134.0) Gecko/20100101 Firefox/134.0","","Firefox","134.0","Windows","10.0","https://app.prolific.com/","en-US,en;q=0.5","656fc7d36afa7a7199fe7c75","679edb085803f58d6bbd31ca","679eee745803f58d6bbd346e","","550","<img id='swapped' src='G_7.jpg' height='90'> <img id='swapped' src='G_9.jpg' height='90'> <img src='G_5.jpg' height='90'> <img src='G_3.jpg' height='90'> <img src='G_1.jpg' height='90'>","0","Learning example 0","",""
"","","","","","html-button-response","44","294845","0.0-29.0","33","1","2025-02-02 04:03:40","bc01a2b6f61d06f6604adb8657495020","73.207.88.221","Mozilla/5.0 (Windows NT 10.0; Win64; x64; rv:134.0) Gecko/20100101 Firefox/134.0","","Firefox","134.0","Windows","10.0","https://app.prolific.com/","en-US,en;q=0.5","656fc7d36afa7a7199fe7c75","679edb085803f58d6bbd31ca","679eee745803f58d6bbd346e","","null","<img  src='G_7.jpg' height='90'> <img  src='G_9.jpg' height='90'> <img src='G_5.jpg' height='90'> <img src='G_3.jpg' height='90'> <img src='G_1.jpg' height='90'>","null","Learning example 0","",""
"","","","","","html-button-response","45","295252","0.0-30.0","33","1","2025-02-02 04:03:40","bc01a2b6f61d06f6604adb8657495020","73.207.88.221","Mozilla/5.0 (Windows NT 10.0; Win64; x64; rv:134.0) Gecko/20100101 Firefox/134.0","","Firefox","134.0","Windows","10.0","https://app.prolific.com/","en-US,en;q=0.5","656fc7d36afa7a7199fe7c75","679edb085803f58d6bbd31ca","679eee745803f58d6bbd346e","","null","<img  src='G_7.jpg' height='90'> <img id='selected'  src='G_9.jpg' height='90'> <img src='G_5.jpg' height='90'> <img src='G_3.jpg' height='90'> <img src='G_1.jpg' height='90'>","null","Learning example 0","",""
"","","","","","html-button-response","46","295566","0.0-31.0","33","1","2025-02-02 04:03:40","bc01a2b6f61d06f6604adb8657495020","73.207.88.221","Mozilla/5.0 (Windows NT 10.0; Win64; x64; rv:134.0) Gecko/20100101 Firefox/134.0","","Firefox","134.0","Windows","10.0","https://app.prolific.com/","en-US,en;q=0.5","656fc7d36afa7a7199fe7c75","679edb085803f58d6bbd31ca","679eee745803f58d6bbd346e","","null","<img  src='G_7.jpg' height='90'> <img id='selected'  src='G_9.jpg' height='90'> <img id='selected' src='G_5.jpg' height='90'> <img src='G_3.jpg' height='90'> <img src='G_1.jpg' height='90'>","null","Learning example 0","",""
"","","","","","html-button-response","47","295883","0.0-32.0","33","1","2025-02-02 04:03:40","bc01a2b6f61d06f6604adb8657495020","73.207.88.221","Mozilla/5.0 (Windows NT 10.0; Win64; x64; rv:134.0) Gecko/20100101 Firefox/134.0","","Firefox","134.0","Windows","10.0","https://app.prolific.com/","en-US,en;q=0.5","656fc7d36afa7a7199fe7c75","679edb085803f58d6bbd31ca","679eee745803f58d6bbd346e","","null","<img  src='G_7.jpg' height='90'> <img id='selected'  src='G_9.jpg' height='90'> <img id='selected' src='G_5.jpg' height='90'> <img src='G_3.jpg' height='90'> <img src='G_1.jpg' height='90'>","null","Learning example 0","",""
"","","","","","html-button-response","48","313190","0.0-33.0-0.0-0.0","33","1","2025-02-02 04:03:40","bc01a2b6f61d06f6604adb8657495020","73.207.88.221","Mozilla/5.0 (Windows NT 10.0; Win64; x64; rv:134.0) Gecko/20100101 Firefox/134.0","","Firefox","134.0","Windows","10.0","https://app.prolific.com/","en-US,en;q=0.5","656fc7d36afa7a7199fe7c75","679edb085803f58d6bbd31ca","679eee745803f58d6bbd346e","","17302","<img  src='G_7.jpg' height='90'> <img id='selected'  src='G_9.jpg' height='90'> <img id='selected' src='G_5.jpg' height='90'> <img src='G_3.jpg' height='90'> <img src='G_1.jpg' height='90'>","2","Learning example 0","",""
"","","","","","html-button-response","49","313821","0.0-33.1-0.1-0.1","33","1","2025-02-02 04:03:40","bc01a2b6f61d06f6604adb8657495020","73.207.88.221","Mozilla/5.0 (Windows NT 10.0; Win64; x64; rv:134.0) Gecko/20100101 Firefox/134.0","","Firefox","134.0","Windows","10.0","https://app.prolific.com/","en-US,en;q=0.5","656fc7d36afa7a7199fe7c75","679edb085803f58d6bbd31ca","679eee745803f58d6bbd346e","","628","<img  src='G_7.jpg' height='90'> <img id='selected'  src='G_9.jpg' height='90'> <img id='selected' src='G_5.jpg' height='90'> <img src='G_3.jpg' height='90'> <img src='G_1.jpg' height='90'>","3","Learning example 0","",""
"","","","","","html-button-response","50","314882","0.0-33.2-0.2-0.2","33","1","2025-02-02 04:03:40","bc01a2b6f61d06f6604adb8657495020","73.207.88.221","Mozilla/5.0 (Windows NT 10.0; Win64; x64; rv:134.0) Gecko/20100101 Firefox/134.0","","Firefox","134.0","Windows","10.0","https://app.prolific.com/","en-US,en;q=0.5","656fc7d36afa7a7199fe7c75","679edb085803f58d6bbd31ca","679eee745803f58d6bbd346e","","1058","<img  src='G_7.jpg' height='90'> <img id='selected'  src='G_9.jpg' height='90'> <img id='selected' src='G_5.jpg' height='90'> <img src='G_3.jpg' height='90'> <img src='G_1.jpg' height='90'>","2","Learning example 0","",""
"","","","","","html-button-response","51","315497","0.0-33.3-0.3-0.3","33","1","2025-02-02 04:03:40","bc01a2b6f61d06f6604adb8657495020","73.207.88.221","Mozilla/5.0 (Windows NT 10.0; Win64; x64; rv:134.0) Gecko/20100101 Firefox/134.0","","Firefox","134.0","Windows","10.0","https://app.prolific.com/","en-US,en;q=0.5","656fc7d36afa7a7199fe7c75","679edb085803f58d6bbd31ca","679eee745803f58d6bbd346e","","609","<img  src='G_7.jpg' height='90'> <img id='selected'  src='G_9.jpg' height='90'> <img id='selected' src='G_5.jpg' height='90'> <img src='G_3.jpg' height='90'> <img src='G_1.jpg' height='90'>","3","Learning example 0","",""
"","","","","","html-button-response","52","316336","0.0-33.4-0.4-0.4","33","1","2025-02-02 04:03:40","bc01a2b6f61d06f6604adb8657495020","73.207.88.221","Mozilla/5.0 (Windows NT 10.0; Win64; x64; rv:134.0) Gecko/20100101 Firefox/134.0","","Firefox","134.0","Windows","10.0","https://app.prolific.com/","en-US,en;q=0.5","656fc7d36afa7a7199fe7c75","679edb085803f58d6bbd31ca","679eee745803f58d6bbd346e","","832","<img  src='G_7.jpg' height='90'> <img id='selected'  src='G_9.jpg' height='90'> <img id='selected' src='G_5.jpg' height='90'> <img src='G_3.jpg' height='90'> <img src='G_1.jpg' height='90'>","2","Learning example 0","",""
"","","","","","html-button-response","53","316848","0.0-33.5-0.5-0.5","33","1","2025-02-02 04:03:40","bc01a2b6f61d06f6604adb8657495020","73.207.88.221","Mozilla/5.0 (Windows NT 10.0; Win64; x64; rv:134.0) Gecko/20100101 Firefox/134.0","","Firefox","134.0","Windows","10.0","https://app.prolific.com/","en-US,en;q=0.5","656fc7d36afa7a7199fe7c75","679edb085803f58d6bbd31ca","679eee745803f58d6bbd346e","","506","<img  src='G_7.jpg' height='90'> <img id='selected'  src='G_9.jpg' height='90'> <img id='selected' src='G_5.jpg' height='90'> <img src='G_3.jpg' height='90'> <img src='G_1.jpg' height='90'>","1","Learning example 0","",""
"","","","","","html-button-response","54","317067","0.0-34.0","33","1","2025-02-02 04:03:40","bc01a2b6f61d06f6604adb8657495020","73.207.88.221","Mozilla/5.0 (Windows NT 10.0; Win64; x64; rv:134.0) Gecko/20100101 Firefox/134.0","","Firefox","134.0","Windows","10.0","https://app.prolific.com/","en-US,en;q=0.5","656fc7d36afa7a7199fe7c75","679edb085803f58d6bbd31ca","679eee745803f58d6bbd346e","","null","<img  src='G_7.jpg' height='90'> <img   src='G_9.jpg' height='90'> <img  src='G_5.jpg' height='90'> <img src='G_3.jpg' height='90'> <img src='G_1.jpg' height='90'>","null","Learning example 0","",""
"","","","","","html-button-response","55","317484","0.0-35.0","33","1","2025-02-02 04:03:40","bc01a2b6f61d06f6604adb8657495020","73.207.88.221","Mozilla/5.0 (Windows NT 10.0; Win64; x64; rv:134.0) Gecko/20100101 Firefox/134.0","","Firefox","134.0","Windows","10.0","https://app.prolific.com/","en-US,en;q=0.5","656fc7d36afa7a7199fe7c75","679edb085803f58d6bbd31ca","679eee745803f58d6bbd346e","","null","<img  src='G_7.jpg' height='90'> <img   src='G_9.jpg' height='90'> <img id='selected'  src='G_5.jpg' height='90'> <img src='G_3.jpg' height='90'> <img src='G_1.jpg' height='90'>","null","Learning example 0","",""
"","","","","","html-button-response","56","317799","0.0-36.0","33","1","2025-02-02 04:03:40","bc01a2b6f61d06f6604adb8657495020","73.207.88.221","Mozilla/5.0 (Windows NT 10.0; Win64; x64; rv:134.0) Gecko/20100101 Firefox/134.0","","Firefox","134.0","Windows","10.0","https://app.prolific.com/","en-US,en;q=0.5","656fc7d36afa7a7199fe7c75","679edb085803f58d6bbd31ca","679eee745803f58d6bbd346e","","null","<img  src='G_7.jpg' height='90'> <img   src='G_9.jpg' height='90'> <img id='selected'  src='G_5.jpg' height='90'> <img id='selected' src='G_3.jpg' height='90'> <img src='G_1.jpg' height='90'>","null","Learning example 0","",""
"","","","","","html-button-response","57","318110","0.0-37.0","33","1","2025-02-02 04:03:40","bc01a2b6f61d06f6604adb8657495020","73.207.88.221","Mozilla/5.0 (Windows NT 10.0; Win64; x64; rv:134.0) Gecko/20100101 Firefox/134.0","","Firefox","134.0","Windows","10.0","https://app.prolific.com/","en-US,en;q=0.5","656fc7d36afa7a7199fe7c75","679edb085803f58d6bbd31ca","679eee745803f58d6bbd346e","","null","<img  src='G_7.jpg' height='90'> <img   src='G_9.jpg' height='90'> <img id='selected'  src='G_5.jpg' height='90'> <img id='selected' src='G_3.jpg' height='90'> <img src='G_1.jpg' height='90'>","null","Learning example 0","",""
"","","","","","html-button-response","58","324121","0.0-38.0-0.0-0.0","33","1","2025-02-02 04:03:40","bc01a2b6f61d06f6604adb8657495020","73.207.88.221","Mozilla/5.0 (Windows NT 10.0; Win64; x64; rv:134.0) Gecko/20100101 Firefox/134.0","","Firefox","134.0","Windows","10.0","https://app.prolific.com/","en-US,en;q=0.5","656fc7d36afa7a7199fe7c75","679edb085803f58d6bbd31ca","679eee745803f58d6bbd346e","","6005","<img  src='G_7.jpg' height='90'> <img   src='G_9.jpg' height='90'> <img id='selected'  src='G_5.jpg' height='90'> <img id='selected' src='G_3.jpg' height='90'> <img src='G_1.jpg' height='90'>","3","Learning example 0","",""
"","","","","","html-button-response","59","324905","0.0-38.1-0.1-0.1","33","1","2025-02-02 04:03:40","bc01a2b6f61d06f6604adb8657495020","73.207.88.221","Mozilla/5.0 (Windows NT 10.0; Win64; x64; rv:134.0) Gecko/20100101 Firefox/134.0","","Firefox","134.0","Windows","10.0","https://app.prolific.com/","en-US,en;q=0.5","656fc7d36afa7a7199fe7c75","679edb085803f58d6bbd31ca","679eee745803f58d6bbd346e","","777","<img  src='G_7.jpg' height='90'> <img   src='G_9.jpg' height='90'> <img id='selected'  src='G_5.jpg' height='90'> <img id='selected' src='G_3.jpg' height='90'> <img src='G_1.jpg' height='90'>","1","Learning example 0","",""
"","","","","","html-button-response","60","326684","0.0-38.2-0.2-0.2","33","1","2025-02-02 04:03:40","bc01a2b6f61d06f6604adb8657495020","73.207.88.221","Mozilla/5.0 (Windows NT 10.0; Win64; x64; rv:134.0) Gecko/20100101 Firefox/134.0","","Firefox","134.0","Windows","10.0","https://app.prolific.com/","en-US,en;q=0.5","656fc7d36afa7a7199fe7c75","679edb085803f58d6bbd31ca","679eee745803f58d6bbd346e","","1773","<img  src='G_7.jpg' height='90'> <img   src='G_9.jpg' height='90'> <img id='selected'  src='G_5.jpg' height='90'> <img id='selected' src='G_3.jpg' height='90'> <img src='G_1.jpg' height='90'>","4","Learning example 0","",""
"","","","","","html-button-response","61","327253","0.0-38.3-0.3-0.3","33","1","2025-02-02 04:03:40","bc01a2b6f61d06f6604adb8657495020","73.207.88.221","Mozilla/5.0 (Windows NT 10.0; Win64; x64; rv:134.0) Gecko/20100101 Firefox/134.0","","Firefox","134.0","Windows","10.0","https://app.prolific.com/","en-US,en;q=0.5","656fc7d36afa7a7199fe7c75","679edb085803f58d6bbd31ca","679eee745803f58d6bbd346e","","566","<img  src='G_7.jpg' height='90'> <img   src='G_9.jpg' height='90'> <img id='selected'  src='G_5.jpg' height='90'> <img id='selected' src='G_3.jpg' height='90'> <img src='G_1.jpg' height='90'>","3","Learning example 0","",""
"","","","","","html-button-response","62","328097","0.0-38.4-0.4-0.4","33","1","2025-02-02 04:03:40","bc01a2b6f61d06f6604adb8657495020","73.207.88.221","Mozilla/5.0 (Windows NT 10.0; Win64; x64; rv:134.0) Gecko/20100101 Firefox/134.0","","Firefox","134.0","Windows","10.0","https://app.prolific.com/","en-US,en;q=0.5","656fc7d36afa7a7199fe7c75","679edb085803f58d6bbd31ca","679eee745803f58d6bbd346e","","841","<img  src='G_7.jpg' height='90'> <img   src='G_9.jpg' height='90'> <img id='selected'  src='G_5.jpg' height='90'> <img id='selected' src='G_3.jpg' height='90'> <img src='G_1.jpg' height='90'>","4","Learning example 0","",""
"","","","","","html-button-response","63","328861","0.0-38.5-0.5-0.5","33","1","2025-02-02 04:03:40","bc01a2b6f61d06f6604adb8657495020","73.207.88.221","Mozilla/5.0 (Windows NT 10.0; Win64; x64; rv:134.0) Gecko/20100101 Firefox/134.0","","Firefox","134.0","Windows","10.0","https://app.prolific.com/","en-US,en;q=0.5","656fc7d36afa7a7199fe7c75","679edb085803f58d6bbd31ca","679eee745803f58d6bbd346e","","758","<img  src='G_7.jpg' height='90'> <img   src='G_9.jpg' height='90'> <img id='selected'  src='G_5.jpg' height='90'> <img id='selected' src='G_3.jpg' height='90'> <img src='G_1.jpg' height='90'>","1","Learning example 0","",""
"","","","","","html-button-response","64","338626","0.0-38.6-0.6-0.6","33","1","2025-02-02 04:03:40","bc01a2b6f61d06f6604adb8657495020","73.207.88.221","Mozilla/5.0 (Windows NT 10.0; Win64; x64; rv:134.0) Gecko/20100101 Firefox/134.0","","Firefox","134.0","Windows","10.0","https://app.prolific.com/","en-US,en;q=0.5","656fc7d36afa7a7199fe7c75","679edb085803f58d6bbd31ca","679eee745803f58d6bbd346e","","9763","<img  src='G_7.jpg' height='90'> <img   src='G_9.jpg' height='90'> <img id='selected'  src='G_5.jpg' height='90'> <img id='selected' src='G_3.jpg' height='90'> <img src='G_1.jpg' height='90'>","4","Learning example 0","",""
"","","","","","html-button-response","65","339609","0.0-38.7-0.7-0.7","33","1","2025-02-02 04:03:40","bc01a2b6f61d06f6604adb8657495020","73.207.88.221","Mozilla/5.0 (Windows NT 10.0; Win64; x64; rv:134.0) Gecko/20100101 Firefox/134.0","","Firefox","134.0","Windows","10.0","https://app.prolific.com/","en-US,en;q=0.5","656fc7d36afa7a7199fe7c75","679edb085803f58d6bbd31ca","679eee745803f58d6bbd346e","","975","<img  src='G_7.jpg' height='90'> <img   src='G_9.jpg' height='90'> <img id='selected'  src='G_5.jpg' height='90'> <img id='selected' src='G_3.jpg' height='90'> <img src='G_1.jpg' height='90'>","3","Learning example 0","",""
"","","","","","html-button-response","66","340576","0.0-38.8-0.8-0.8","33","1","2025-02-02 04:03:40","bc01a2b6f61d06f6604adb8657495020","73.207.88.221","Mozilla/5.0 (Windows NT 10.0; Win64; x64; rv:134.0) Gecko/20100101 Firefox/134.0","","Firefox","134.0","Windows","10.0","https://app.prolific.com/","en-US,en;q=0.5","656fc7d36afa7a7199fe7c75","679edb085803f58d6bbd31ca","679eee745803f58d6bbd346e","","959","<img  src='G_7.jpg' height='90'> <img   src='G_9.jpg' height='90'> <img id='selected'  src='G_5.jpg' height='90'> <img id='selected' src='G_3.jpg' height='90'> <img src='G_1.jpg' height='90'>","4","Learning example 0","",""
"","","","","","html-button-response","67","341381","0.0-38.9-0.9-0.9","33","1","2025-02-02 04:03:40","bc01a2b6f61d06f6604adb8657495020","73.207.88.221","Mozilla/5.0 (Windows NT 10.0; Win64; x64; rv:134.0) Gecko/20100101 Firefox/134.0","","Firefox","134.0","Windows","10.0","https://app.prolific.com/","en-US,en;q=0.5","656fc7d36afa7a7199fe7c75","679edb085803f58d6bbd31ca","679eee745803f58d6bbd346e","","796","<img  src='G_7.jpg' height='90'> <img   src='G_9.jpg' height='90'> <img id='selected'  src='G_5.jpg' height='90'> <img id='selected' src='G_3.jpg' height='90'> <img src='G_1.jpg' height='90'>","3","Learning example 0","",""
"","","","","","html-button-response","68","342017","0.0-38.10-0.10-0.10","33","1","2025-02-02 04:03:40","bc01a2b6f61d06f6604adb8657495020","73.207.88.221","Mozilla/5.0 (Windows NT 10.0; Win64; x64; rv:134.0) Gecko/20100101 Firefox/134.0","","Firefox","134.0","Windows","10.0","https://app.prolific.com/","en-US,en;q=0.5","656fc7d36afa7a7199fe7c75","679edb085803f58d6bbd31ca","679eee745803f58d6bbd346e","","634","<img  src='G_7.jpg' height='90'> <img   src='G_9.jpg' height='90'> <img id='selected'  src='G_5.jpg' height='90'> <img id='selected' src='G_3.jpg' height='90'> <img src='G_1.jpg' height='90'>","2","Learning example 0","",""
"","","","","","html-button-response","69","342229","0.0-39.0","33","1","2025-02-02 04:03:40","bc01a2b6f61d06f6604adb8657495020","73.207.88.221","Mozilla/5.0 (Windows NT 10.0; Win64; x64; rv:134.0) Gecko/20100101 Firefox/134.0","","Firefox","134.0","Windows","10.0","https://app.prolific.com/","en-US,en;q=0.5","656fc7d36afa7a7199fe7c75","679edb085803f58d6bbd31ca","679eee745803f58d6bbd346e","","null","<img  src='G_7.jpg' height='90'> <img   src='G_9.jpg' height='90'> <img   src='G_5.jpg' height='90'> <img  src='G_3.jpg' height='90'> <img src='G_1.jpg' height='90'>","null","Learning example 0","",""
"","","","","","html-button-response","70","342637","0.0-40.0","33","1","2025-02-02 04:03:40","bc01a2b6f61d06f6604adb8657495020","73.207.88.221","Mozilla/5.0 (Windows NT 10.0; Win64; x64; rv:134.0) Gecko/20100101 Firefox/134.0","","Firefox","134.0","Windows","10.0","https://app.prolific.com/","en-US,en;q=0.5","656fc7d36afa7a7199fe7c75","679edb085803f58d6bbd31ca","679eee745803f58d6bbd346e","","null","<img  src='G_7.jpg' height='90'> <img   src='G_9.jpg' height='90'> <img   src='G_5.jpg' height='90'> <img id='selected'  src='G_3.jpg' height='90'> <img src='G_1.jpg' height='90'>","null","Learning example 0","",""
"","","","","","html-button-response","71","342949","0.0-41.0","33","1","2025-02-02 04:03:40","bc01a2b6f61d06f6604adb8657495020","73.207.88.221","Mozilla/5.0 (Windows NT 10.0; Win64; x64; rv:134.0) Gecko/20100101 Firefox/134.0","","Firefox","134.0","Windows","10.0","https://app.prolific.com/","en-US,en;q=0.5","656fc7d36afa7a7199fe7c75","679edb085803f58d6bbd31ca","679eee745803f58d6bbd346e","","null","<img  src='G_7.jpg' height='90'> <img   src='G_9.jpg' height='90'> <img   src='G_5.jpg' height='90'> <img id='selected'  src='G_3.jpg' height='90'> <img id='selected' src='G_1.jpg' height='90'>","null","Learning example 0","",""
"","","","","","html-button-response","72","343262","0.0-42.0","33","1","2025-02-02 04:03:40","bc01a2b6f61d06f6604adb8657495020","73.207.88.221","Mozilla/5.0 (Windows NT 10.0; Win64; x64; rv:134.0) Gecko/20100101 Firefox/134.0","","Firefox","134.0","Windows","10.0","https://app.prolific.com/","en-US,en;q=0.5","656fc7d36afa7a7199fe7c75","679edb085803f58d6bbd31ca","679eee745803f58d6bbd346e","","null","<img  src='G_7.jpg' height='90'> <img   src='G_9.jpg' height='90'> <img   src='G_5.jpg' height='90'> <img id='selected'  src='G_3.jpg' height='90'> <img id='selected' src='G_1.jpg' height='90'>","null","Learning example 0","",""
"","","","","","html-button-response","73","345280","0.0-43.0-0.0-0.0","33","1","2025-02-02 04:03:40","bc01a2b6f61d06f6604adb8657495020","73.207.88.221","Mozilla/5.0 (Windows NT 10.0; Win64; x64; rv:134.0) Gecko/20100101 Firefox/134.0","","Firefox","134.0","Windows","10.0","https://app.prolific.com/","en-US,en;q=0.5","656fc7d36afa7a7199fe7c75","679edb085803f58d6bbd31ca","679eee745803f58d6bbd346e","","2011","<img  src='G_7.jpg' height='90'> <img   src='G_9.jpg' height='90'> <img   src='G_5.jpg' height='90'> <img id='selected'  src='G_3.jpg' height='90'> <img id='selected' src='G_1.jpg' height='90'>","4","Learning example 0","",""
"","","","","","html-button-response","74","345989","0.0-43.1-0.1-0.1","33","1","2025-02-02 04:03:40","bc01a2b6f61d06f6604adb8657495020","73.207.88.221","Mozilla/5.0 (Windows NT 10.0; Win64; x64; rv:134.0) Gecko/20100101 Firefox/134.0","","Firefox","134.0","Windows","10.0","https://app.prolific.com/","en-US,en;q=0.5","656fc7d36afa7a7199fe7c75","679edb085803f58d6bbd31ca","679eee745803f58d6bbd346e","","701","<img  src='G_7.jpg' height='90'> <img   src='G_9.jpg' height='90'> <img   src='G_5.jpg' height='90'> <img id='selected'  src='G_3.jpg' height='90'> <img id='selected' src='G_1.jpg' height='90'>","3","Learning example 0","",""
"","","","","","html-button-response","75","346199","0.0-44.0","33","1","2025-02-02 04:03:40","bc01a2b6f61d06f6604adb8657495020","73.207.88.221","Mozilla/5.0 (Windows NT 10.0; Win64; x64; rv:134.0) Gecko/20100101 Firefox/134.0","","Firefox","134.0","Windows","10.0","https://app.prolific.com/","en-US,en;q=0.5","656fc7d36afa7a7199fe7c75","679edb085803f58d6bbd31ca","679eee745803f58d6bbd346e","","null","<img  src='G_7.jpg' height='90'> <img   src='G_9.jpg' height='90'> <img   src='G_5.jpg' height='90'> <img   src='G_3.jpg' height='90'> <img  src='G_1.jpg' height='90'>","null","Learning example 0","",""
"","","","","","html-keyboard-response","76","355604","0.0-45.0","33","1","2025-02-02 04:03:40","bc01a2b6f61d06f6604adb8657495020","73.207.88.221","Mozilla/5.0 (Windows NT 10.0; Win64; x64; rv:134.0) Gecko/20100101 Firefox/134.0","","Firefox","134.0","Windows","10.0","https://app.prolific.com/","en-US,en;q=0.5","656fc7d36afa7a7199fe7c75","679edb085803f58d6bbd31ca","679eee745803f58d6bbd346e","","9400","[""Final order was 1,2,3,4,5. The initial order was 2,1,3,4,5.<br>It took 1 swaps to sort it correctly with Omgne Sort. <br><br>Press Enter to continue.""]","enter","","",""
"","","","","","html-keyboard-response","77","366061","0.0-46.0","33","1","2025-02-02 04:03:40","bc01a2b6f61d06f6604adb8657495020","73.207.88.221","Mozilla/5.0 (Windows NT 10.0; Win64; x64; rv:134.0) Gecko/20100101 Firefox/134.0","","Firefox","134.0","Windows","10.0","https://app.prolific.com/","en-US,en;q=0.5","656fc7d36afa7a7199fe7c75","679edb085803f58d6bbd31ca","679eee745803f58d6bbd346e","","10454","[""Example 2<br><br>You will watch Omnge Sort in action. Try to identify any patterns in the comparisons made by this method. <br><br>Press Enter to continue.""]","enter","","",""
"","","","","","html-keyboard-response","78","366575","0.0-47.0","33","1","2025-02-02 04:03:40","bc01a2b6f61d06f6604adb8657495020","73.207.88.221","Mozilla/5.0 (Windows NT 10.0; Win64; x64; rv:134.0) Gecko/20100101 Firefox/134.0","","Firefox","134.0","Windows","10.0","https://app.prolific.com/","en-US,en;q=0.5","656fc7d36afa7a7199fe7c75","679edb085803f58d6bbd31ca","679eee745803f58d6bbd346e","","null","<img id='selected' src='G_8.jpg' height='90'> <img src='G_6.jpg' height='90'> <img src='G_2.jpg' height='90'> <img src='G_7.jpg' height='90'> <img src='G_4.jpg' height='90'> <img src='G_1.jpg' height='90'> <img src='G_5.jpg' height='90'> <img src='G_3.jpg' height='90'>","null","Animation1","",""
"","","","","","html-keyboard-response","79","367078","0.0-48.0","33","1","2025-02-02 04:03:40","bc01a2b6f61d06f6604adb8657495020","73.207.88.221","Mozilla/5.0 (Windows NT 10.0; Win64; x64; rv:134.0) Gecko/20100101 Firefox/134.0","","Firefox","134.0","Windows","10.0","https://app.prolific.com/","en-US,en;q=0.5","656fc7d36afa7a7199fe7c75","679edb085803f58d6bbd31ca","679eee745803f58d6bbd346e","","null","<img id='selected' src='G_8.jpg' height='90'> <img id='selected' src='G_6.jpg' height='90'> <img src='G_2.jpg' height='90'> <img src='G_7.jpg' height='90'> <img src='G_4.jpg' height='90'> <img src='G_1.jpg' height='90'> <img src='G_5.jpg' height='90'> <img src='G_3.jpg' height='90'>","null","Animation1","",""
"","","","","","html-keyboard-response","80","367595","0.0-49.0","33","1","2025-02-02 04:03:40","bc01a2b6f61d06f6604adb8657495020","73.207.88.221","Mozilla/5.0 (Windows NT 10.0; Win64; x64; rv:134.0) Gecko/20100101 Firefox/134.0","","Firefox","134.0","Windows","10.0","https://app.prolific.com/","en-US,en;q=0.5","656fc7d36afa7a7199fe7c75","679edb085803f58d6bbd31ca","679eee745803f58d6bbd346e","","null","<img id='selected' src='G_8.jpg' height='90'> <img id='selected' src='G_6.jpg' height='90'> <img src='G_2.jpg' height='90'> <img src='G_7.jpg' height='90'> <img src='G_4.jpg' height='90'> <img src='G_1.jpg' height='90'> <img src='G_5.jpg' height='90'> <img src='G_3.jpg' height='90'>","null","Animation1","",""
"","","","","","html-keyboard-response","81","367909","0.0-50.0","33","1","2025-02-02 04:03:40","bc01a2b6f61d06f6604adb8657495020","73.207.88.221","Mozilla/5.0 (Windows NT 10.0; Win64; x64; rv:134.0) Gecko/20100101 Firefox/134.0","","Firefox","134.0","Windows","10.0","https://app.prolific.com/","en-US,en;q=0.5","656fc7d36afa7a7199fe7c75","679edb085803f58d6bbd31ca","679eee745803f58d6bbd346e","","null","<img  src='G_8.jpg' height='90'> <img  src='G_6.jpg' height='90'> <img src='G_2.jpg' height='90'> <img src='G_7.jpg' height='90'> <img src='G_4.jpg' height='90'> <img src='G_1.jpg' height='90'> <img src='G_5.jpg' height='90'> <img src='G_3.jpg' height='90'>","null","Animation1","",""
"","","","","","html-keyboard-response","82","368420","0.0-51.0","33","1","2025-02-02 04:03:40","bc01a2b6f61d06f6604adb8657495020","73.207.88.221","Mozilla/5.0 (Windows NT 10.0; Win64; x64; rv:134.0) Gecko/20100101 Firefox/134.0","","Firefox","134.0","Windows","10.0","https://app.prolific.com/","en-US,en;q=0.5","656fc7d36afa7a7199fe7c75","679edb085803f58d6bbd31ca","679eee745803f58d6bbd346e","","null","<img  src='G_8.jpg' height='90'> <img id='selected'  src='G_6.jpg' height='90'> <img src='G_2.jpg' height='90'> <img src='G_7.jpg' height='90'> <img src='G_4.jpg' height='90'> <img src='G_1.jpg' height='90'> <img src='G_5.jpg' height='90'> <img src='G_3.jpg' height='90'>","null","Animation1","",""
"","","","","","html-keyboard-response","83","368927","0.0-52.0","33","1","2025-02-02 04:03:40","bc01a2b6f61d06f6604adb8657495020","73.207.88.221","Mozilla/5.0 (Windows NT 10.0; Win64; x64; rv:134.0) Gecko/20100101 Firefox/134.0","","Firefox","134.0","Windows","10.0","https://app.prolific.com/","en-US,en;q=0.5","656fc7d36afa7a7199fe7c75","679edb085803f58d6bbd31ca","679eee745803f58d6bbd346e","","null","<img  src='G_8.jpg' height='90'> <img id='selected'  src='G_6.jpg' height='90'> <img id='selected' src='G_2.jpg' height='90'> <img src='G_7.jpg' height='90'> <img src='G_4.jpg' height='90'> <img src='G_1.jpg' height='90'> <img src='G_5.jpg' height='90'> <img src='G_3.jpg' height='90'>","null","Animation1","",""
"","","","","","html-keyboard-response","84","369442","0.0-53.0","33","1","2025-02-02 04:03:40","bc01a2b6f61d06f6604adb8657495020","73.207.88.221","Mozilla/5.0 (Windows NT 10.0; Win64; x64; rv:134.0) Gecko/20100101 Firefox/134.0","","Firefox","134.0","Windows","10.0","https://app.prolific.com/","en-US,en;q=0.5","656fc7d36afa7a7199fe7c75","679edb085803f58d6bbd31ca","679eee745803f58d6bbd346e","","null","<img  src='G_8.jpg' height='90'> <img id='swapped' src='G_2.jpg' height='90'> <img id='swapped'  src='G_6.jpg' height='90'> <img src='G_7.jpg' height='90'> <img src='G_4.jpg' height='90'> <img src='G_1.jpg' height='90'> <img src='G_5.jpg' height='90'> <img src='G_3.jpg' height='90'>","null","Animation1","",""
"","","","","","html-keyboard-response","85","369755","0.0-54.0","33","1","2025-02-02 04:03:40","bc01a2b6f61d06f6604adb8657495020","73.207.88.221","Mozilla/5.0 (Windows NT 10.0; Win64; x64; rv:134.0) Gecko/20100101 Firefox/134.0","","Firefox","134.0","Windows","10.0","https://app.prolific.com/","en-US,en;q=0.5","656fc7d36afa7a7199fe7c75","679edb085803f58d6bbd31ca","679eee745803f58d6bbd346e","","null","<img  src='G_8.jpg' height='90'> <img  src='G_2.jpg' height='90'> <img   src='G_6.jpg' height='90'> <img src='G_7.jpg' height='90'> <img src='G_4.jpg' height='90'> <img src='G_1.jpg' height='90'> <img src='G_5.jpg' height='90'> <img src='G_3.jpg' height='90'>","null","Animation1","",""
"","","","","","html-keyboard-response","86","370264","0.0-55.0","33","1","2025-02-02 04:03:40","bc01a2b6f61d06f6604adb8657495020","73.207.88.221","Mozilla/5.0 (Windows NT 10.0; Win64; x64; rv:134.0) Gecko/20100101 Firefox/134.0","","Firefox","134.0","Windows","10.0","https://app.prolific.com/","en-US,en;q=0.5","656fc7d36afa7a7199fe7c75","679edb085803f58d6bbd31ca","679eee745803f58d6bbd346e","","null","<img id='selected'  src='G_8.jpg' height='90'> <img  src='G_2.jpg' height='90'> <img   src='G_6.jpg' height='90'> <img src='G_7.jpg' height='90'> <img src='G_4.jpg' height='90'> <img src='G_1.jpg' height='90'> <img src='G_5.jpg' height='90'> <img src='G_3.jpg' height='90'>","null","Animation1","",""
"","","","","","html-keyboard-response","87","370781","0.0-56.0","33","1","2025-02-02 04:03:40","bc01a2b6f61d06f6604adb8657495020","73.207.88.221","Mozilla/5.0 (Windows NT 10.0; Win64; x64; rv:134.0) Gecko/20100101 Firefox/134.0","","Firefox","134.0","Windows","10.0","https://app.prolific.com/","en-US,en;q=0.5","656fc7d36afa7a7199fe7c75","679edb085803f58d6bbd31ca","679eee745803f58d6bbd346e","","null","<img id='selected'  src='G_8.jpg' height='90'> <img id='selected'  src='G_2.jpg' height='90'> <img   src='G_6.jpg' height='90'> <img src='G_7.jpg' height='90'> <img src='G_4.jpg' height='90'> <img src='G_1.jpg' height='90'> <img src='G_5.jpg' height='90'> <img src='G_3.jpg' height='90'>","null","Animation1","",""
"","","","","","html-keyboard-response","88","371296","0.0-57.0","33","1","2025-02-02 04:03:40","bc01a2b6f61d06f6604adb8657495020","73.207.88.221","Mozilla/5.0 (Windows NT 10.0; Win64; x64; rv:134.0) Gecko/20100101 Firefox/134.0","","Firefox","134.0","Windows","10.0","https://app.prolific.com/","en-US,en;q=0.5","656fc7d36afa7a7199fe7c75","679edb085803f58d6bbd31ca","679eee745803f58d6bbd346e","","null","<img id='swapped'  src='G_2.jpg' height='90'> <img id='swapped'  src='G_8.jpg' height='90'> <img   src='G_6.jpg' height='90'> <img src='G_7.jpg' height='90'> <img src='G_4.jpg' height='90'> <img src='G_1.jpg' height='90'> <img src='G_5.jpg' height='90'> <img src='G_3.jpg' height='90'>","null","Animation1","",""
"","","","","","html-keyboard-response","89","371609","0.0-58.0","33","1","2025-02-02 04:03:40","bc01a2b6f61d06f6604adb8657495020","73.207.88.221","Mozilla/5.0 (Windows NT 10.0; Win64; x64; rv:134.0) Gecko/20100101 Firefox/134.0","","Firefox","134.0","Windows","10.0","https://app.prolific.com/","en-US,en;q=0.5","656fc7d36afa7a7199fe7c75","679edb085803f58d6bbd31ca","679eee745803f58d6bbd346e","","null","<img   src='G_2.jpg' height='90'> <img   src='G_8.jpg' height='90'> <img   src='G_6.jpg' height='90'> <img src='G_7.jpg' height='90'> <img src='G_4.jpg' height='90'> <img src='G_1.jpg' height='90'> <img src='G_5.jpg' height='90'> <img src='G_3.jpg' height='90'>","null","Animation1","",""
"","","","","","html-keyboard-response","90","372123","0.0-59.0","33","1","2025-02-02 04:03:40","bc01a2b6f61d06f6604adb8657495020","73.207.88.221","Mozilla/5.0 (Windows NT 10.0; Win64; x64; rv:134.0) Gecko/20100101 Firefox/134.0","","Firefox","134.0","Windows","10.0","https://app.prolific.com/","en-US,en;q=0.5","656fc7d36afa7a7199fe7c75","679edb085803f58d6bbd31ca","679eee745803f58d6bbd346e","","null","<img   src='G_2.jpg' height='90'> <img   src='G_8.jpg' height='90'> <img id='selected'   src='G_6.jpg' height='90'> <img src='G_7.jpg' height='90'> <img src='G_4.jpg' height='90'> <img src='G_1.jpg' height='90'> <img src='G_5.jpg' height='90'> <img src='G_3.jpg' height='90'>","null","Animation1","",""
"","","","","","html-keyboard-response","91","372642","0.0-60.0","33","1","2025-02-02 04:03:40","bc01a2b6f61d06f6604adb8657495020","73.207.88.221","Mozilla/5.0 (Windows NT 10.0; Win64; x64; rv:134.0) Gecko/20100101 Firefox/134.0","","Firefox","134.0","Windows","10.0","https://app.prolific.com/","en-US,en;q=0.5","656fc7d36afa7a7199fe7c75","679edb085803f58d6bbd31ca","679eee745803f58d6bbd346e","","null","<img   src='G_2.jpg' height='90'> <img   src='G_8.jpg' height='90'> <img id='selected'   src='G_6.jpg' height='90'> <img id='selected' src='G_7.jpg' height='90'> <img src='G_4.jpg' height='90'> <img src='G_1.jpg' height='90'> <img src='G_5.jpg' height='90'> <img src='G_3.jpg' height='90'>","null","Animation1","",""
"","","","","","html-keyboard-response","92","373156","0.0-61.0","33","1","2025-02-02 04:03:40","bc01a2b6f61d06f6604adb8657495020","73.207.88.221","Mozilla/5.0 (Windows NT 10.0; Win64; x64; rv:134.0) Gecko/20100101 Firefox/134.0","","Firefox","134.0","Windows","10.0","https://app.prolific.com/","en-US,en;q=0.5","656fc7d36afa7a7199fe7c75","679edb085803f58d6bbd31ca","679eee745803f58d6bbd346e","","null","<img   src='G_2.jpg' height='90'> <img   src='G_8.jpg' height='90'> <img id='swapped' src='G_7.jpg' height='90'> <img id='swapped'   src='G_6.jpg' height='90'> <img src='G_4.jpg' height='90'> <img src='G_1.jpg' height='90'> <img src='G_5.jpg' height='90'> <img src='G_3.jpg' height='90'>","null","Animation1","",""
"","","","","","html-keyboard-response","93","373466","0.0-62.0","33","1","2025-02-02 04:03:40","bc01a2b6f61d06f6604adb8657495020","73.207.88.221","Mozilla/5.0 (Windows NT 10.0; Win64; x64; rv:134.0) Gecko/20100101 Firefox/134.0","","Firefox","134.0","Windows","10.0","https://app.prolific.com/","en-US,en;q=0.5","656fc7d36afa7a7199fe7c75","679edb085803f58d6bbd31ca","679eee745803f58d6bbd346e","","null","<img   src='G_2.jpg' height='90'> <img   src='G_8.jpg' height='90'> <img  src='G_7.jpg' height='90'> <img    src='G_6.jpg' height='90'> <img src='G_4.jpg' height='90'> <img src='G_1.jpg' height='90'> <img src='G_5.jpg' height='90'> <img src='G_3.jpg' height='90'>","null","Animation1","",""
"","","","","","html-keyboard-response","94","374015","0.0-63.0","33","1","2025-02-02 04:03:40","bc01a2b6f61d06f6604adb8657495020","73.207.88.221","Mozilla/5.0 (Windows NT 10.0; Win64; x64; rv:134.0) Gecko/20100101 Firefox/134.0","","Firefox","134.0","Windows","10.0","https://app.prolific.com/","en-US,en;q=0.5","656fc7d36afa7a7199fe7c75","679edb085803f58d6bbd31ca","679eee745803f58d6bbd346e","","null","<img   src='G_2.jpg' height='90'> <img id='selected'   src='G_8.jpg' height='90'> <img  src='G_7.jpg' height='90'> <img    src='G_6.jpg' height='90'> <img src='G_4.jpg' height='90'> <img src='G_1.jpg' height='90'> <img src='G_5.jpg' height='90'> <img src='G_3.jpg' height='90'>","null","Animation1","",""
"","","","","","html-keyboard-response","95","374534","0.0-64.0","33","1","2025-02-02 04:03:40","bc01a2b6f61d06f6604adb8657495020","73.207.88.221","Mozilla/5.0 (Windows NT 10.0; Win64; x64; rv:134.0) Gecko/20100101 Firefox/134.0","","Firefox","134.0","Windows","10.0","https://app.prolific.com/","en-US,en;q=0.5","656fc7d36afa7a7199fe7c75","679edb085803f58d6bbd31ca","679eee745803f58d6bbd346e","","null","<img   src='G_2.jpg' height='90'> <img id='selected'   src='G_8.jpg' height='90'> <img id='selected'  src='G_7.jpg' height='90'> <img    src='G_6.jpg' height='90'> <img src='G_4.jpg' height='90'> <img src='G_1.jpg' height='90'> <img src='G_5.jpg' height='90'> <img src='G_3.jpg' height='90'>","null","Animation1","",""
"","","","","","html-keyboard-response","96","375050","0.0-65.0","33","1","2025-02-02 04:03:40","bc01a2b6f61d06f6604adb8657495020","73.207.88.221","Mozilla/5.0 (Windows NT 10.0; Win64; x64; rv:134.0) Gecko/20100101 Firefox/134.0","","Firefox","134.0","Windows","10.0","https://app.prolific.com/","en-US,en;q=0.5","656fc7d36afa7a7199fe7c75","679edb085803f58d6bbd31ca","679eee745803f58d6bbd346e","","null","<img   src='G_2.jpg' height='90'> <img id='swapped'  src='G_7.jpg' height='90'> <img id='swapped'   src='G_8.jpg' height='90'> <img    src='G_6.jpg' height='90'> <img src='G_4.jpg' height='90'> <img src='G_1.jpg' height='90'> <img src='G_5.jpg' height='90'> <img src='G_3.jpg' height='90'>","null","Animation1","",""
"","","","","","html-keyboard-response","97","375355","0.0-66.0","33","1","2025-02-02 04:03:40","bc01a2b6f61d06f6604adb8657495020","73.207.88.221","Mozilla/5.0 (Windows NT 10.0; Win64; x64; rv:134.0) Gecko/20100101 Firefox/134.0","","Firefox","134.0","Windows","10.0","https://app.prolific.com/","en-US,en;q=0.5","656fc7d36afa7a7199fe7c75","679edb085803f58d6bbd31ca","679eee745803f58d6bbd346e","","null","<img   src='G_2.jpg' height='90'> <img   src='G_7.jpg' height='90'> <img    src='G_8.jpg' height='90'> <img    src='G_6.jpg' height='90'> <img src='G_4.jpg' height='90'> <img src='G_1.jpg' height='90'> <img src='G_5.jpg' height='90'> <img src='G_3.jpg' height='90'>","null","Animation1","",""
"","","","","","html-keyboard-response","98","375876","0.0-67.0","33","1","2025-02-02 04:03:40","bc01a2b6f61d06f6604adb8657495020","73.207.88.221","Mozilla/5.0 (Windows NT 10.0; Win64; x64; rv:134.0) Gecko/20100101 Firefox/134.0","","Firefox","134.0","Windows","10.0","https://app.prolific.com/","en-US,en;q=0.5","656fc7d36afa7a7199fe7c75","679edb085803f58d6bbd31ca","679eee745803f58d6bbd346e","","null","<img id='selected'   src='G_2.jpg' height='90'> <img   src='G_7.jpg' height='90'> <img    src='G_8.jpg' height='90'> <img    src='G_6.jpg' height='90'> <img src='G_4.jpg' height='90'> <img src='G_1.jpg' height='90'> <img src='G_5.jpg' height='90'> <img src='G_3.jpg' height='90'>","null","Animation1","",""
"","","","","","html-keyboard-response","99","376385","0.0-68.0","33","1","2025-02-02 04:03:40","bc01a2b6f61d06f6604adb8657495020","73.207.88.221","Mozilla/5.0 (Windows NT 10.0; Win64; x64; rv:134.0) Gecko/20100101 Firefox/134.0","","Firefox","134.0","Windows","10.0","https://app.prolific.com/","en-US,en;q=0.5","656fc7d36afa7a7199fe7c75","679edb085803f58d6bbd31ca","679eee745803f58d6bbd346e","","null","<img id='selected'   src='G_2.jpg' height='90'> <img id='selected'   src='G_7.jpg' height='90'> <img    src='G_8.jpg' height='90'> <img    src='G_6.jpg' height='90'> <img src='G_4.jpg' height='90'> <img src='G_1.jpg' height='90'> <img src='G_5.jpg' height='90'> <img src='G_3.jpg' height='90'>","null","Animation1","",""
"","","","","","html-keyboard-response","100","376901","0.0-69.0","33","1","2025-02-02 04:03:40","bc01a2b6f61d06f6604adb8657495020","73.207.88.221","Mozilla/5.0 (Windows NT 10.0; Win64; x64; rv:134.0) Gecko/20100101 Firefox/134.0","","Firefox","134.0","Windows","10.0","https://app.prolific.com/","en-US,en;q=0.5","656fc7d36afa7a7199fe7c75","679edb085803f58d6bbd31ca","679eee745803f58d6bbd346e","","null","<img id='swapped'   src='G_7.jpg' height='90'> <img id='swapped'   src='G_2.jpg' height='90'> <img    src='G_8.jpg' height='90'> <img    src='G_6.jpg' height='90'> <img src='G_4.jpg' height='90'> <img src='G_1.jpg' height='90'> <img src='G_5.jpg' height='90'> <img src='G_3.jpg' height='90'>","null","Animation1","",""
"","","","","","html-keyboard-response","101","377211","0.0-70.0","33","1","2025-02-02 04:03:40","bc01a2b6f61d06f6604adb8657495020","73.207.88.221","Mozilla/5.0 (Windows NT 10.0; Win64; x64; rv:134.0) Gecko/20100101 Firefox/134.0","","Firefox","134.0","Windows","10.0","https://app.prolific.com/","en-US,en;q=0.5","656fc7d36afa7a7199fe7c75","679edb085803f58d6bbd31ca","679eee745803f58d6bbd346e","","null","<img    src='G_7.jpg' height='90'> <img    src='G_2.jpg' height='90'> <img    src='G_8.jpg' height='90'> <img    src='G_6.jpg' height='90'> <img src='G_4.jpg' height='90'> <img src='G_1.jpg' height='90'> <img src='G_5.jpg' height='90'> <img src='G_3.jpg' height='90'>","null","Animation1","",""
"","","","","","html-keyboard-response","102","377723","0.0-71.0","33","1","2025-02-02 04:03:40","bc01a2b6f61d06f6604adb8657495020","73.207.88.221","Mozilla/5.0 (Windows NT 10.0; Win64; x64; rv:134.0) Gecko/20100101 Firefox/134.0","","Firefox","134.0","Windows","10.0","https://app.prolific.com/","en-US,en;q=0.5","656fc7d36afa7a7199fe7c75","679edb085803f58d6bbd31ca","679eee745803f58d6bbd346e","","null","<img    src='G_7.jpg' height='90'> <img    src='G_2.jpg' height='90'> <img    src='G_8.jpg' height='90'> <img id='selected'    src='G_6.jpg' height='90'> <img src='G_4.jpg' height='90'> <img src='G_1.jpg' height='90'> <img src='G_5.jpg' height='90'> <img src='G_3.jpg' height='90'>","null","Animation1","",""
"","","","","","html-keyboard-response","103","378235","0.0-72.0","33","1","2025-02-02 04:03:40","bc01a2b6f61d06f6604adb8657495020","73.207.88.221","Mozilla/5.0 (Windows NT 10.0; Win64; x64; rv:134.0) Gecko/20100101 Firefox/134.0","","Firefox","134.0","Windows","10.0","https://app.prolific.com/","en-US,en;q=0.5","656fc7d36afa7a7199fe7c75","679edb085803f58d6bbd31ca","679eee745803f58d6bbd346e","","null","<img    src='G_7.jpg' height='90'> <img    src='G_2.jpg' height='90'> <img    src='G_8.jpg' height='90'> <img id='selected'    src='G_6.jpg' height='90'> <img id='selected' src='G_4.jpg' height='90'> <img src='G_1.jpg' height='90'> <img src='G_5.jpg' height='90'> <img src='G_3.jpg' height='90'>","null","Animation1","",""
"","","","","","html-keyboard-response","104","378742","0.0-73.0","33","1","2025-02-02 04:03:40","bc01a2b6f61d06f6604adb8657495020","73.207.88.221","Mozilla/5.0 (Windows NT 10.0; Win64; x64; rv:134.0) Gecko/20100101 Firefox/134.0","","Firefox","134.0","Windows","10.0","https://app.prolific.com/","en-US,en;q=0.5","656fc7d36afa7a7199fe7c75","679edb085803f58d6bbd31ca","679eee745803f58d6bbd346e","","null","<img    src='G_7.jpg' height='90'> <img    src='G_2.jpg' height='90'> <img    src='G_8.jpg' height='90'> <img id='swapped' src='G_4.jpg' height='90'> <img id='swapped'    src='G_6.jpg' height='90'> <img src='G_1.jpg' height='90'> <img src='G_5.jpg' height='90'> <img src='G_3.jpg' height='90'>","null","Animation1","",""
"","","","","","html-keyboard-response","105","379057","0.0-74.0","33","1","2025-02-02 04:03:40","bc01a2b6f61d06f6604adb8657495020","73.207.88.221","Mozilla/5.0 (Windows NT 10.0; Win64; x64; rv:134.0) Gecko/20100101 Firefox/134.0","","Firefox","134.0","Windows","10.0","https://app.prolific.com/","en-US,en;q=0.5","656fc7d36afa7a7199fe7c75","679edb085803f58d6bbd31ca","679eee745803f58d6bbd346e","","null","<img    src='G_7.jpg' height='90'> <img    src='G_2.jpg' height='90'> <img    src='G_8.jpg' height='90'> <img  src='G_4.jpg' height='90'> <img     src='G_6.jpg' height='90'> <img src='G_1.jpg' height='90'> <img src='G_5.jpg' height='90'> <img src='G_3.jpg' height='90'>","null","Animation1","",""
"","","","","","html-keyboard-response","106","379562","0.0-75.0","33","1","2025-02-02 04:03:40","bc01a2b6f61d06f6604adb8657495020","73.207.88.221","Mozilla/5.0 (Windows NT 10.0; Win64; x64; rv:134.0) Gecko/20100101 Firefox/134.0","","Firefox","134.0","Windows","10.0","https://app.prolific.com/","en-US,en;q=0.5","656fc7d36afa7a7199fe7c75","679edb085803f58d6bbd31ca","679eee745803f58d6bbd346e","","null","<img    src='G_7.jpg' height='90'> <img    src='G_2.jpg' height='90'> <img id='selected'    src='G_8.jpg' height='90'> <img  src='G_4.jpg' height='90'> <img     src='G_6.jpg' height='90'> <img src='G_1.jpg' height='90'> <img src='G_5.jpg' height='90'> <img src='G_3.jpg' height='90'>","null","Animation1","",""
"","","","","","html-keyboard-response","107","380066","0.0-76.0","33","1","2025-02-02 04:03:40","bc01a2b6f61d06f6604adb8657495020","73.207.88.221","Mozilla/5.0 (Windows NT 10.0; Win64; x64; rv:134.0) Gecko/20100101 Firefox/134.0","","Firefox","134.0","Windows","10.0","https://app.prolific.com/","en-US,en;q=0.5","656fc7d36afa7a7199fe7c75","679edb085803f58d6bbd31ca","679eee745803f58d6bbd346e","","null","<img    src='G_7.jpg' height='90'> <img    src='G_2.jpg' height='90'> <img id='selected'    src='G_8.jpg' height='90'> <img id='selected'  src='G_4.jpg' height='90'> <img     src='G_6.jpg' height='90'> <img src='G_1.jpg' height='90'> <img src='G_5.jpg' height='90'> <img src='G_3.jpg' height='90'>","null","Animation1","",""
"","","","","","html-keyboard-response","108","380583","0.0-77.0","33","1","2025-02-02 04:03:40","bc01a2b6f61d06f6604adb8657495020","73.207.88.221","Mozilla/5.0 (Windows NT 10.0; Win64; x64; rv:134.0) Gecko/20100101 Firefox/134.0","","Firefox","134.0","Windows","10.0","https://app.prolific.com/","en-US,en;q=0.5","656fc7d36afa7a7199fe7c75","679edb085803f58d6bbd31ca","679eee745803f58d6bbd346e","","null","<img    src='G_7.jpg' height='90'> <img    src='G_2.jpg' height='90'> <img id='swapped'  src='G_4.jpg' height='90'> <img id='swapped'    src='G_8.jpg' height='90'> <img     src='G_6.jpg' height='90'> <img src='G_1.jpg' height='90'> <img src='G_5.jpg' height='90'> <img src='G_3.jpg' height='90'>","null","Animation1","",""
"","","","","","html-keyboard-response","109","380896","0.0-78.0","33","1","2025-02-02 04:03:40","bc01a2b6f61d06f6604adb8657495020","73.207.88.221","Mozilla/5.0 (Windows NT 10.0; Win64; x64; rv:134.0) Gecko/20100101 Firefox/134.0","","Firefox","134.0","Windows","10.0","https://app.prolific.com/","en-US,en;q=0.5","656fc7d36afa7a7199fe7c75","679edb085803f58d6bbd31ca","679eee745803f58d6bbd346e","","null","<img    src='G_7.jpg' height='90'> <img    src='G_2.jpg' height='90'> <img   src='G_4.jpg' height='90'> <img     src='G_8.jpg' height='90'> <img     src='G_6.jpg' height='90'> <img src='G_1.jpg' height='90'> <img src='G_5.jpg' height='90'> <img src='G_3.jpg' height='90'>","null","Animation1","",""
"","","","","","html-keyboard-response","110","381411","0.0-79.0","33","1","2025-02-02 04:03:40","bc01a2b6f61d06f6604adb8657495020","73.207.88.221","Mozilla/5.0 (Windows NT 10.0; Win64; x64; rv:134.0) Gecko/20100101 Firefox/134.0","","Firefox","134.0","Windows","10.0","https://app.prolific.com/","en-US,en;q=0.5","656fc7d36afa7a7199fe7c75","679edb085803f58d6bbd31ca","679eee745803f58d6bbd346e","","null","<img    src='G_7.jpg' height='90'> <img id='selected'    src='G_2.jpg' height='90'> <img   src='G_4.jpg' height='90'> <img     src='G_8.jpg' height='90'> <img     src='G_6.jpg' height='90'> <img src='G_1.jpg' height='90'> <img src='G_5.jpg' height='90'> <img src='G_3.jpg' height='90'>","null","Animation1","",""
"","","","","","html-keyboard-response","111","381964","0.0-80.0","33","1","2025-02-02 04:03:40","bc01a2b6f61d06f6604adb8657495020","73.207.88.221","Mozilla/5.0 (Windows NT 10.0; Win64; x64; rv:134.0) Gecko/20100101 Firefox/134.0","","Firefox","134.0","Windows","10.0","https://app.prolific.com/","en-US,en;q=0.5","656fc7d36afa7a7199fe7c75","679edb085803f58d6bbd31ca","679eee745803f58d6bbd346e","","null","<img    src='G_7.jpg' height='90'> <img id='selected'    src='G_2.jpg' height='90'> <img id='selected'   src='G_4.jpg' height='90'> <img     src='G_8.jpg' height='90'> <img     src='G_6.jpg' height='90'> <img src='G_1.jpg' height='90'> <img src='G_5.jpg' height='90'> <img src='G_3.jpg' height='90'>","null","Animation1","",""
"","","","","","html-keyboard-response","112","382487","0.0-81.0","33","1","2025-02-02 04:03:40","bc01a2b6f61d06f6604adb8657495020","73.207.88.221","Mozilla/5.0 (Windows NT 10.0; Win64; x64; rv:134.0) Gecko/20100101 Firefox/134.0","","Firefox","134.0","Windows","10.0","https://app.prolific.com/","en-US,en;q=0.5","656fc7d36afa7a7199fe7c75","679edb085803f58d6bbd31ca","679eee745803f58d6bbd346e","","null","<img    src='G_7.jpg' height='90'> <img id='swapped'   src='G_4.jpg' height='90'> <img id='swapped'    src='G_2.jpg' height='90'> <img     src='G_8.jpg' height='90'> <img     src='G_6.jpg' height='90'> <img src='G_1.jpg' height='90'> <img src='G_5.jpg' height='90'> <img src='G_3.jpg' height='90'>","null","Animation1","",""
"","","","","","html-keyboard-response","113","382802","0.0-82.0","33","1","2025-02-02 04:03:40","bc01a2b6f61d06f6604adb8657495020","73.207.88.221","Mozilla/5.0 (Windows NT 10.0; Win64; x64; rv:134.0) Gecko/20100101 Firefox/134.0","","Firefox","134.0","Windows","10.0","https://app.prolific.com/","en-US,en;q=0.5","656fc7d36afa7a7199fe7c75","679edb085803f58d6bbd31ca","679eee745803f58d6bbd346e","","null","<img    src='G_7.jpg' height='90'> <img    src='G_4.jpg' height='90'> <img     src='G_2.jpg' height='90'> <img     src='G_8.jpg' height='90'> <img     src='G_6.jpg' height='90'> <img src='G_1.jpg' height='90'> <img src='G_5.jpg' height='90'> <img src='G_3.jpg' height='90'>","null","Animation1","",""
"","","","","","html-keyboard-response","114","383319","0.0-83.0","33","1","2025-02-02 04:03:40","bc01a2b6f61d06f6604adb8657495020","73.207.88.221","Mozilla/5.0 (Windows NT 10.0; Win64; x64; rv:134.0) Gecko/20100101 Firefox/134.0","","Firefox","134.0","Windows","10.0","https://app.prolific.com/","en-US,en;q=0.5","656fc7d36afa7a7199fe7c75","679edb085803f58d6bbd31ca","679eee745803f58d6bbd346e","","null","<img id='selected'    src='G_7.jpg' height='90'> <img    src='G_4.jpg' height='90'> <img     src='G_2.jpg' height='90'> <img     src='G_8.jpg' height='90'> <img     src='G_6.jpg' height='90'> <img src='G_1.jpg' height='90'> <img src='G_5.jpg' height='90'> <img src='G_3.jpg' height='90'>","null","Animation1","",""
"","","","","","html-keyboard-response","115","383836","0.0-84.0","33","1","2025-02-02 04:03:40","bc01a2b6f61d06f6604adb8657495020","73.207.88.221","Mozilla/5.0 (Windows NT 10.0; Win64; x64; rv:134.0) Gecko/20100101 Firefox/134.0","","Firefox","134.0","Windows","10.0","https://app.prolific.com/","en-US,en;q=0.5","656fc7d36afa7a7199fe7c75","679edb085803f58d6bbd31ca","679eee745803f58d6bbd346e","","null","<img id='selected'    src='G_7.jpg' height='90'> <img id='selected'    src='G_4.jpg' height='90'> <img     src='G_2.jpg' height='90'> <img     src='G_8.jpg' height='90'> <img     src='G_6.jpg' height='90'> <img src='G_1.jpg' height='90'> <img src='G_5.jpg' height='90'> <img src='G_3.jpg' height='90'>","null","Animation1","",""
"","","","","","html-keyboard-response","116","384349","0.0-85.0","33","1","2025-02-02 04:03:40","bc01a2b6f61d06f6604adb8657495020","73.207.88.221","Mozilla/5.0 (Windows NT 10.0; Win64; x64; rv:134.0) Gecko/20100101 Firefox/134.0","","Firefox","134.0","Windows","10.0","https://app.prolific.com/","en-US,en;q=0.5","656fc7d36afa7a7199fe7c75","679edb085803f58d6bbd31ca","679eee745803f58d6bbd346e","","null","<img id='selected'    src='G_7.jpg' height='90'> <img id='selected'    src='G_4.jpg' height='90'> <img     src='G_2.jpg' height='90'> <img     src='G_8.jpg' height='90'> <img     src='G_6.jpg' height='90'> <img src='G_1.jpg' height='90'> <img src='G_5.jpg' height='90'> <img src='G_3.jpg' height='90'>","null","Animation1","",""
"","","","","","html-keyboard-response","117","384661","0.0-86.0","33","1","2025-02-02 04:03:40","bc01a2b6f61d06f6604adb8657495020","73.207.88.221","Mozilla/5.0 (Windows NT 10.0; Win64; x64; rv:134.0) Gecko/20100101 Firefox/134.0","","Firefox","134.0","Windows","10.0","https://app.prolific.com/","en-US,en;q=0.5","656fc7d36afa7a7199fe7c75","679edb085803f58d6bbd31ca","679eee745803f58d6bbd346e","","null","<img     src='G_7.jpg' height='90'> <img     src='G_4.jpg' height='90'> <img     src='G_2.jpg' height='90'> <img     src='G_8.jpg' height='90'> <img     src='G_6.jpg' height='90'> <img src='G_1.jpg' height='90'> <img src='G_5.jpg' height='90'> <img src='G_3.jpg' height='90'>","null","Animation1","",""
"","","","","","html-keyboard-response","118","385181","0.0-87.0","33","1","2025-02-02 04:03:40","bc01a2b6f61d06f6604adb8657495020","73.207.88.221","Mozilla/5.0 (Windows NT 10.0; Win64; x64; rv:134.0) Gecko/20100101 Firefox/134.0","","Firefox","134.0","Windows","10.0","https://app.prolific.com/","en-US,en;q=0.5","656fc7d36afa7a7199fe7c75","679edb085803f58d6bbd31ca","679eee745803f58d6bbd346e","","null","<img     src='G_7.jpg' height='90'> <img     src='G_4.jpg' height='90'> <img     src='G_2.jpg' height='90'> <img     src='G_8.jpg' height='90'> <img id='selected'     src='G_6.jpg' height='90'> <img src='G_1.jpg' height='90'> <img src='G_5.jpg' height='90'> <img src='G_3.jpg' height='90'>","null","Animation1","",""
"","","","","","html-keyboard-response","119","385685","0.0-88.0","33","1","2025-02-02 04:03:40","bc01a2b6f61d06f6604adb8657495020","73.207.88.221","Mozilla/5.0 (Windows NT 10.0; Win64; x64; rv:134.0) Gecko/20100101 Firefox/134.0","","Firefox","134.0","Windows","10.0","https://app.prolific.com/","en-US,en;q=0.5","656fc7d36afa7a7199fe7c75","679edb085803f58d6bbd31ca","679eee745803f58d6bbd346e","","null","<img     src='G_7.jpg' height='90'> <img     src='G_4.jpg' height='90'> <img     src='G_2.jpg' height='90'> <img     src='G_8.jpg' height='90'> <img id='selected'     src='G_6.jpg' height='90'> <img id='selected' src='G_1.jpg' height='90'> <img src='G_5.jpg' height='90'> <img src='G_3.jpg' height='90'>","null","Animation1","",""
"","","","","","html-keyboard-response","120","386194","0.0-89.0","33","1","2025-02-02 04:03:40","bc01a2b6f61d06f6604adb8657495020","73.207.88.221","Mozilla/5.0 (Windows NT 10.0; Win64; x64; rv:134.0) Gecko/20100101 Firefox/134.0","","Firefox","134.0","Windows","10.0","https://app.prolific.com/","en-US,en;q=0.5","656fc7d36afa7a7199fe7c75","679edb085803f58d6bbd31ca","679eee745803f58d6bbd346e","","null","<img     src='G_7.jpg' height='90'> <img     src='G_4.jpg' height='90'> <img     src='G_2.jpg' height='90'> <img     src='G_8.jpg' height='90'> <img id='swapped' src='G_1.jpg' height='90'> <img id='swapped'     src='G_6.jpg' height='90'> <img src='G_5.jpg' height='90'> <img src='G_3.jpg' height='90'>","null","Animation1","",""
"","","","","","html-keyboard-response","121","386512","0.0-90.0","33","1","2025-02-02 04:03:40","bc01a2b6f61d06f6604adb8657495020","73.207.88.221","Mozilla/5.0 (Windows NT 10.0; Win64; x64; rv:134.0) Gecko/20100101 Firefox/134.0","","Firefox","134.0","Windows","10.0","https://app.prolific.com/","en-US,en;q=0.5","656fc7d36afa7a7199fe7c75","679edb085803f58d6bbd31ca","679eee745803f58d6bbd346e","","null","<img     src='G_7.jpg' height='90'> <img     src='G_4.jpg' height='90'> <img     src='G_2.jpg' height='90'> <img     src='G_8.jpg' height='90'> <img  src='G_1.jpg' height='90'> <img      src='G_6.jpg' height='90'> <img src='G_5.jpg' height='90'> <img src='G_3.jpg' height='90'>","null","Animation1","",""
"","","","","","html-keyboard-response","122","387017","0.0-91.0","33","1","2025-02-02 04:03:40","bc01a2b6f61d06f6604adb8657495020","73.207.88.221","Mozilla/5.0 (Windows NT 10.0; Win64; x64; rv:134.0) Gecko/20100101 Firefox/134.0","","Firefox","134.0","Windows","10.0","https://app.prolific.com/","en-US,en;q=0.5","656fc7d36afa7a7199fe7c75","679edb085803f58d6bbd31ca","679eee745803f58d6bbd346e","","null","<img     src='G_7.jpg' height='90'> <img     src='G_4.jpg' height='90'> <img     src='G_2.jpg' height='90'> <img id='selected'     src='G_8.jpg' height='90'> <img  src='G_1.jpg' height='90'> <img      src='G_6.jpg' height='90'> <img src='G_5.jpg' height='90'> <img src='G_3.jpg' height='90'>","null","Animation1","",""
"","","","","","html-keyboard-response","123","387533","0.0-92.0","33","1","2025-02-02 04:03:40","bc01a2b6f61d06f6604adb8657495020","73.207.88.221","Mozilla/5.0 (Windows NT 10.0; Win64; x64; rv:134.0) Gecko/20100101 Firefox/134.0","","Firefox","134.0","Windows","10.0","https://app.prolific.com/","en-US,en;q=0.5","656fc7d36afa7a7199fe7c75","679edb085803f58d6bbd31ca","679eee745803f58d6bbd346e","","null","<img     src='G_7.jpg' height='90'> <img     src='G_4.jpg' height='90'> <img     src='G_2.jpg' height='90'> <img id='selected'     src='G_8.jpg' height='90'> <img id='selected'  src='G_1.jpg' height='90'> <img      src='G_6.jpg' height='90'> <img src='G_5.jpg' height='90'> <img src='G_3.jpg' height='90'>","null","Animation1","",""
"","","","","","html-keyboard-response","124","388051","0.0-93.0","33","1","2025-02-02 04:03:40","bc01a2b6f61d06f6604adb8657495020","73.207.88.221","Mozilla/5.0 (Windows NT 10.0; Win64; x64; rv:134.0) Gecko/20100101 Firefox/134.0","","Firefox","134.0","Windows","10.0","https://app.prolific.com/","en-US,en;q=0.5","656fc7d36afa7a7199fe7c75","679edb085803f58d6bbd31ca","679eee745803f58d6bbd346e","","null","<img     src='G_7.jpg' height='90'> <img     src='G_4.jpg' height='90'> <img     src='G_2.jpg' height='90'> <img id='selected'     src='G_8.jpg' height='90'> <img id='selected'  src='G_1.jpg' height='90'> <img      src='G_6.jpg' height='90'> <img src='G_5.jpg' height='90'> <img src='G_3.jpg' height='90'>","null","Animation1","",""
"","","","","","html-keyboard-response","125","388368","0.0-94.0","33","1","2025-02-02 04:03:40","bc01a2b6f61d06f6604adb8657495020","73.207.88.221","Mozilla/5.0 (Windows NT 10.0; Win64; x64; rv:134.0) Gecko/20100101 Firefox/134.0","","Firefox","134.0","Windows","10.0","https://app.prolific.com/","en-US,en;q=0.5","656fc7d36afa7a7199fe7c75","679edb085803f58d6bbd31ca","679eee745803f58d6bbd346e","","null","<img     src='G_7.jpg' height='90'> <img     src='G_4.jpg' height='90'> <img     src='G_2.jpg' height='90'> <img      src='G_8.jpg' height='90'> <img   src='G_1.jpg' height='90'> <img      src='G_6.jpg' height='90'> <img src='G_5.jpg' height='90'> <img src='G_3.jpg' height='90'>","null","Animation1","",""
"","","","","","html-keyboard-response","126","388873","0.0-95.0","33","1","2025-02-02 04:03:40","bc01a2b6f61d06f6604adb8657495020","73.207.88.221","Mozilla/5.0 (Windows NT 10.0; Win64; x64; rv:134.0) Gecko/20100101 Firefox/134.0","","Firefox","134.0","Windows","10.0","https://app.prolific.com/","en-US,en;q=0.5","656fc7d36afa7a7199fe7c75","679edb085803f58d6bbd31ca","679eee745803f58d6bbd346e","","null","<img     src='G_7.jpg' height='90'> <img     src='G_4.jpg' height='90'> <img     src='G_2.jpg' height='90'> <img      src='G_8.jpg' height='90'> <img   src='G_1.jpg' height='90'> <img id='selected'      src='G_6.jpg' height='90'> <img src='G_5.jpg' height='90'> <img src='G_3.jpg' height='90'>","null","Animation1","",""
"","","","","","html-keyboard-response","127","389388","0.0-96.0","33","1","2025-02-02 04:03:40","bc01a2b6f61d06f6604adb8657495020","73.207.88.221","Mozilla/5.0 (Windows NT 10.0; Win64; x64; rv:134.0) Gecko/20100101 Firefox/134.0","","Firefox","134.0","Windows","10.0","https://app.prolific.com/","en-US,en;q=0.5","656fc7d36afa7a7199fe7c75","679edb085803f58d6bbd31ca","679eee745803f58d6bbd346e","","null","<img     src='G_7.jpg' height='90'> <img     src='G_4.jpg' height='90'> <img     src='G_2.jpg' height='90'> <img      src='G_8.jpg' height='90'> <img   src='G_1.jpg' height='90'> <img id='selected'      src='G_6.jpg' height='90'> <img id='selected' src='G_5.jpg' height='90'> <img src='G_3.jpg' height='90'>","null","Animation1","",""
"","","","","","html-keyboard-response","128","389899","0.0-97.0","33","1","2025-02-02 04:03:40","bc01a2b6f61d06f6604adb8657495020","73.207.88.221","Mozilla/5.0 (Windows NT 10.0; Win64; x64; rv:134.0) Gecko/20100101 Firefox/134.0","","Firefox","134.0","Windows","10.0","https://app.prolific.com/","en-US,en;q=0.5","656fc7d36afa7a7199fe7c75","679edb085803f58d6bbd31ca","679eee745803f58d6bbd346e","","null","<img     src='G_7.jpg' height='90'> <img     src='G_4.jpg' height='90'> <img     src='G_2.jpg' height='90'> <img      src='G_8.jpg' height='90'> <img   src='G_1.jpg' height='90'> <img id='selected'      src='G_6.jpg' height='90'> <img id='selected' src='G_5.jpg' height='90'> <img src='G_3.jpg' height='90'>","null","Animation1","",""
"","","","","","html-keyboard-response","129","390212","0.0-98.0","33","1","2025-02-02 04:03:40","bc01a2b6f61d06f6604adb8657495020","73.207.88.221","Mozilla/5.0 (Windows NT 10.0; Win64; x64; rv:134.0) Gecko/20100101 Firefox/134.0","","Firefox","134.0","Windows","10.0","https://app.prolific.com/","en-US,en;q=0.5","656fc7d36afa7a7199fe7c75","679edb085803f58d6bbd31ca","679eee745803f58d6bbd346e","","null","<img     src='G_7.jpg' height='90'> <img     src='G_4.jpg' height='90'> <img     src='G_2.jpg' height='90'> <img      src='G_8.jpg' height='90'> <img   src='G_1.jpg' height='90'> <img       src='G_6.jpg' height='90'> <img  src='G_5.jpg' height='90'> <img src='G_3.jpg' height='90'>","null","Animation1","",""
"","","","","","html-keyboard-response","130","390719","0.0-99.0","33","1","2025-02-02 04:03:40","bc01a2b6f61d06f6604adb8657495020","73.207.88.221","Mozilla/5.0 (Windows NT 10.0; Win64; x64; rv:134.0) Gecko/20100101 Firefox/134.0","","Firefox","134.0","Windows","10.0","https://app.prolific.com/","en-US,en;q=0.5","656fc7d36afa7a7199fe7c75","679edb085803f58d6bbd31ca","679eee745803f58d6bbd346e","","null","<img     src='G_7.jpg' height='90'> <img     src='G_4.jpg' height='90'> <img     src='G_2.jpg' height='90'> <img      src='G_8.jpg' height='90'> <img   src='G_1.jpg' height='90'> <img       src='G_6.jpg' height='90'> <img id='selected'  src='G_5.jpg' height='90'> <img src='G_3.jpg' height='90'>","null","Animation1","",""
"","","","","","html-keyboard-response","131","391236","0.0-100.0","33","1","2025-02-02 04:03:40","bc01a2b6f61d06f6604adb8657495020","73.207.88.221","Mozilla/5.0 (Windows NT 10.0; Win64; x64; rv:134.0) Gecko/20100101 Firefox/134.0","","Firefox","134.0","Windows","10.0","https://app.prolific.com/","en-US,en;q=0.5","656fc7d36afa7a7199fe7c75","679edb085803f58d6bbd31ca","679eee745803f58d6bbd346e","","null","<img     src='G_7.jpg' height='90'> <img     src='G_4.jpg' height='90'> <img     src='G_2.jpg' height='90'> <img      src='G_8.jpg' height='90'> <img   src='G_1.jpg' height='90'> <img       src='G_6.jpg' height='90'> <img id='selected'  src='G_5.jpg' height='90'> <img id='selected' src='G_3.jpg' height='90'>","null","Animation1","",""
"","","","","","html-keyboard-response","132","391755","0.0-101.0","33","1","2025-02-02 04:03:40","bc01a2b6f61d06f6604adb8657495020","73.207.88.221","Mozilla/5.0 (Windows NT 10.0; Win64; x64; rv:134.0) Gecko/20100101 Firefox/134.0","","Firefox","134.0","Windows","10.0","https://app.prolific.com/","en-US,en;q=0.5","656fc7d36afa7a7199fe7c75","679edb085803f58d6bbd31ca","679eee745803f58d6bbd346e","","null","<img     src='G_7.jpg' height='90'> <img     src='G_4.jpg' height='90'> <img     src='G_2.jpg' height='90'> <img      src='G_8.jpg' height='90'> <img   src='G_1.jpg' height='90'> <img       src='G_6.jpg' height='90'> <img id='swapped' src='G_3.jpg' height='90'> <img id='swapped'  src='G_5.jpg' height='90'>","null","Animation1","",""
"","","","","","html-keyboard-response","133","392071","0.0-102.0","33","1","2025-02-02 04:03:40","bc01a2b6f61d06f6604adb8657495020","73.207.88.221","Mozilla/5.0 (Windows NT 10.0; Win64; x64; rv:134.0) Gecko/20100101 Firefox/134.0","","Firefox","134.0","Windows","10.0","https://app.prolific.com/","en-US,en;q=0.5","656fc7d36afa7a7199fe7c75","679edb085803f58d6bbd31ca","679eee745803f58d6bbd346e","","null","<img     src='G_7.jpg' height='90'> <img     src='G_4.jpg' height='90'> <img     src='G_2.jpg' height='90'> <img      src='G_8.jpg' height='90'> <img   src='G_1.jpg' height='90'> <img       src='G_6.jpg' height='90'> <img  src='G_3.jpg' height='90'> <img   src='G_5.jpg' height='90'>","null","Animation1","",""
"","","","","","html-keyboard-response","134","392589","0.0-103.0","33","1","2025-02-02 04:03:40","bc01a2b6f61d06f6604adb8657495020","73.207.88.221","Mozilla/5.0 (Windows NT 10.0; Win64; x64; rv:134.0) Gecko/20100101 Firefox/134.0","","Firefox","134.0","Windows","10.0","https://app.prolific.com/","en-US,en;q=0.5","656fc7d36afa7a7199fe7c75","679edb085803f58d6bbd31ca","679eee745803f58d6bbd346e","","null","<img     src='G_7.jpg' height='90'> <img     src='G_4.jpg' height='90'> <img     src='G_2.jpg' height='90'> <img      src='G_8.jpg' height='90'> <img   src='G_1.jpg' height='90'> <img id='selected'       src='G_6.jpg' height='90'> <img  src='G_3.jpg' height='90'> <img   src='G_5.jpg' height='90'>","null","Animation1","",""
"","","","","","html-keyboard-response","135","393106","0.0-104.0","33","1","2025-02-02 04:03:40","bc01a2b6f61d06f6604adb8657495020","73.207.88.221","Mozilla/5.0 (Windows NT 10.0; Win64; x64; rv:134.0) Gecko/20100101 Firefox/134.0","","Firefox","134.0","Windows","10.0","https://app.prolific.com/","en-US,en;q=0.5","656fc7d36afa7a7199fe7c75","679edb085803f58d6bbd31ca","679eee745803f58d6bbd346e","","null","<img     src='G_7.jpg' height='90'> <img     src='G_4.jpg' height='90'> <img     src='G_2.jpg' height='90'> <img      src='G_8.jpg' height='90'> <img   src='G_1.jpg' height='90'> <img id='selected'       src='G_6.jpg' height='90'> <img id='selected'  src='G_3.jpg' height='90'> <img   src='G_5.jpg' height='90'>","null","Animation1","",""
"","","","","","html-keyboard-response","136","393623","0.0-105.0","33","1","2025-02-02 04:03:40","bc01a2b6f61d06f6604adb8657495020","73.207.88.221","Mozilla/5.0 (Windows NT 10.0; Win64; x64; rv:134.0) Gecko/20100101 Firefox/134.0","","Firefox","134.0","Windows","10.0","https://app.prolific.com/","en-US,en;q=0.5","656fc7d36afa7a7199fe7c75","679edb085803f58d6bbd31ca","679eee745803f58d6bbd346e","","null","<img     src='G_7.jpg' height='90'> <img     src='G_4.jpg' height='90'> <img     src='G_2.jpg' height='90'> <img      src='G_8.jpg' height='90'> <img   src='G_1.jpg' height='90'> <img id='selected'       src='G_6.jpg' height='90'> <img id='selected'  src='G_3.jpg' height='90'> <img   src='G_5.jpg' height='90'>","null","Animation1","",""
"","","","","","html-keyboard-response","137","393935","0.0-106.0","33","1","2025-02-02 04:03:40","bc01a2b6f61d06f6604adb8657495020","73.207.88.221","Mozilla/5.0 (Windows NT 10.0; Win64; x64; rv:134.0) Gecko/20100101 Firefox/134.0","","Firefox","134.0","Windows","10.0","https://app.prolific.com/","en-US,en;q=0.5","656fc7d36afa7a7199fe7c75","679edb085803f58d6bbd31ca","679eee745803f58d6bbd346e","","null","<img     src='G_7.jpg' height='90'> <img     src='G_4.jpg' height='90'> <img     src='G_2.jpg' height='90'> <img      src='G_8.jpg' height='90'> <img   src='G_1.jpg' height='90'> <img        src='G_6.jpg' height='90'> <img   src='G_3.jpg' height='90'> <img   src='G_5.jpg' height='90'>","null","Animation1","",""
"","","","","","html-keyboard-response","138","399588","0.0-107.0","33","1","2025-02-02 04:03:40","bc01a2b6f61d06f6604adb8657495020","73.207.88.221","Mozilla/5.0 (Windows NT 10.0; Win64; x64; rv:134.0) Gecko/20100101 Firefox/134.0","","Firefox","134.0","Windows","10.0","https://app.prolific.com/","en-US,en;q=0.5","656fc7d36afa7a7199fe7c75","679edb085803f58d6bbd31ca","679eee745803f58d6bbd346e","","5644","[""Did you notice any patterns? <br><br>Press Enter to watch that example again and follow the steps of Omgne Sort.""]","enter","","",""
"","","","","","html-button-response","139","399994","0.0-108.0","33","1","2025-02-02 04:03:40","bc01a2b6f61d06f6604adb8657495020","73.207.88.221","Mozilla/5.0 (Windows NT 10.0; Win64; x64; rv:134.0) Gecko/20100101 Firefox/134.0","","Firefox","134.0","Windows","10.0","https://app.prolific.com/","en-US,en;q=0.5","656fc7d36afa7a7199fe7c75","679edb085803f58d6bbd31ca","679eee745803f58d6bbd346e","","null","<img id='selected' src='G_8.jpg' height='90'> <img src='G_6.jpg' height='90'> <img src='G_2.jpg' height='90'> <img src='G_7.jpg' height='90'> <img src='G_4.jpg' height='90'> <img src='G_1.jpg' height='90'> <img src='G_5.jpg' height='90'> <img src='G_3.jpg' height='90'>","null","Learning example 1","",""
"","","","","","html-button-response","140","400305","0.0-109.0","33","1","2025-02-02 04:03:40","bc01a2b6f61d06f6604adb8657495020","73.207.88.221","Mozilla/5.0 (Windows NT 10.0; Win64; x64; rv:134.0) Gecko/20100101 Firefox/134.0","","Firefox","134.0","Windows","10.0","https://app.prolific.com/","en-US,en;q=0.5","656fc7d36afa7a7199fe7c75","679edb085803f58d6bbd31ca","679eee745803f58d6bbd346e","","null","<img id='selected' src='G_8.jpg' height='90'> <img id='selected' src='G_6.jpg' height='90'> <img src='G_2.jpg' height='90'> <img src='G_7.jpg' height='90'> <img src='G_4.jpg' height='90'> <img src='G_1.jpg' height='90'> <img src='G_5.jpg' height='90'> <img src='G_3.jpg' height='90'>","null","Learning example 1","",""
"","","","","","html-button-response","141","400621","0.0-110.0","33","1","2025-02-02 04:03:40","bc01a2b6f61d06f6604adb8657495020","73.207.88.221","Mozilla/5.0 (Windows NT 10.0; Win64; x64; rv:134.0) Gecko/20100101 Firefox/134.0","","Firefox","134.0","Windows","10.0","https://app.prolific.com/","en-US,en;q=0.5","656fc7d36afa7a7199fe7c75","679edb085803f58d6bbd31ca","679eee745803f58d6bbd346e","","null","<img id='selected' src='G_8.jpg' height='90'> <img id='selected' src='G_6.jpg' height='90'> <img src='G_2.jpg' height='90'> <img src='G_7.jpg' height='90'> <img src='G_4.jpg' height='90'> <img src='G_1.jpg' height='90'> <img src='G_5.jpg' height='90'> <img src='G_3.jpg' height='90'>","null","Learning example 1","",""
"","","","","","html-button-response","142","425129","0.0-111.0-0.0-0.0","33","1","2025-02-02 04:03:40","bc01a2b6f61d06f6604adb8657495020","73.207.88.221","Mozilla/5.0 (Windows NT 10.0; Win64; x64; rv:134.0) Gecko/20100101 Firefox/134.0","","Firefox","134.0","Windows","10.0","https://app.prolific.com/","en-US,en;q=0.5","656fc7d36afa7a7199fe7c75","679edb085803f58d6bbd31ca","679eee745803f58d6bbd346e","","24503","<img id='selected' src='G_8.jpg' height='90'> <img id='selected' src='G_6.jpg' height='90'> <img src='G_2.jpg' height='90'> <img src='G_7.jpg' height='90'> <img src='G_4.jpg' height='90'> <img src='G_1.jpg' height='90'> <img src='G_5.jpg' height='90'> <img src='G_3.jpg' height='90'>","1","Learning example 1","",""
"","","","","","html-button-response","143","425752","0.0-111.1-0.1-0.1","33","1","2025-02-02 04:03:40","bc01a2b6f61d06f6604adb8657495020","73.207.88.221","Mozilla/5.0 (Windows NT 10.0; Win64; x64; rv:134.0) Gecko/20100101 Firefox/134.0","","Firefox","134.0","Windows","10.0","https://app.prolific.com/","en-US,en;q=0.5","656fc7d36afa7a7199fe7c75","679edb085803f58d6bbd31ca","679eee745803f58d6bbd346e","","611","<img id='selected' src='G_8.jpg' height='90'> <img id='selected' src='G_6.jpg' height='90'> <img src='G_2.jpg' height='90'> <img src='G_7.jpg' height='90'> <img src='G_4.jpg' height='90'> <img src='G_1.jpg' height='90'> <img src='G_5.jpg' height='90'> <img src='G_3.jpg' height='90'>","0","Learning example 1","",""
"","","","","","html-button-response","144","425969","0.0-112.0","33","1","2025-02-02 04:03:40","bc01a2b6f61d06f6604adb8657495020","73.207.88.221","Mozilla/5.0 (Windows NT 10.0; Win64; x64; rv:134.0) Gecko/20100101 Firefox/134.0","","Firefox","134.0","Windows","10.0","https://app.prolific.com/","en-US,en;q=0.5","656fc7d36afa7a7199fe7c75","679edb085803f58d6bbd31ca","679eee745803f58d6bbd346e","","null","<img  src='G_8.jpg' height='90'> <img  src='G_6.jpg' height='90'> <img src='G_2.jpg' height='90'> <img src='G_7.jpg' height='90'> <img src='G_4.jpg' height='90'> <img src='G_1.jpg' height='90'> <img src='G_5.jpg' height='90'> <img src='G_3.jpg' height='90'>","null","Learning example 1","",""
"","","","","","html-button-response","145","426388","0.0-113.0","33","1","2025-02-02 04:03:40","bc01a2b6f61d06f6604adb8657495020","73.207.88.221","Mozilla/5.0 (Windows NT 10.0; Win64; x64; rv:134.0) Gecko/20100101 Firefox/134.0","","Firefox","134.0","Windows","10.0","https://app.prolific.com/","en-US,en;q=0.5","656fc7d36afa7a7199fe7c75","679edb085803f58d6bbd31ca","679eee745803f58d6bbd346e","","null","<img  src='G_8.jpg' height='90'> <img id='selected'  src='G_6.jpg' height='90'> <img src='G_2.jpg' height='90'> <img src='G_7.jpg' height='90'> <img src='G_4.jpg' height='90'> <img src='G_1.jpg' height='90'> <img src='G_5.jpg' height='90'> <img src='G_3.jpg' height='90'>","null","Learning example 1","",""
"","","","","","html-button-response","146","426703","0.0-114.0","33","1","2025-02-02 04:03:40","bc01a2b6f61d06f6604adb8657495020","73.207.88.221","Mozilla/5.0 (Windows NT 10.0; Win64; x64; rv:134.0) Gecko/20100101 Firefox/134.0","","Firefox","134.0","Windows","10.0","https://app.prolific.com/","en-US,en;q=0.5","656fc7d36afa7a7199fe7c75","679edb085803f58d6bbd31ca","679eee745803f58d6bbd346e","","null","<img  src='G_8.jpg' height='90'> <img id='selected'  src='G_6.jpg' height='90'> <img id='selected' src='G_2.jpg' height='90'> <img src='G_7.jpg' height='90'> <img src='G_4.jpg' height='90'> <img src='G_1.jpg' height='90'> <img src='G_5.jpg' height='90'> <img src='G_3.jpg' height='90'>","null","Learning example 1","",""
"","","","","","html-button-response","147","427018","0.0-115.0","33","1","2025-02-02 04:03:40","bc01a2b6f61d06f6604adb8657495020","73.207.88.221","Mozilla/5.0 (Windows NT 10.0; Win64; x64; rv:134.0) Gecko/20100101 Firefox/134.0","","Firefox","134.0","Windows","10.0","https://app.prolific.com/","en-US,en;q=0.5","656fc7d36afa7a7199fe7c75","679edb085803f58d6bbd31ca","679eee745803f58d6bbd346e","","null","<img  src='G_8.jpg' height='90'> <img id='swapped' src='G_2.jpg' height='90'> <img id='swapped'  src='G_6.jpg' height='90'> <img src='G_7.jpg' height='90'> <img src='G_4.jpg' height='90'> <img src='G_1.jpg' height='90'> <img src='G_5.jpg' height='90'> <img src='G_3.jpg' height='90'>","null","Learning example 1","",""
"","","","","","html-button-response","148","435368","0.0-116.0-0.0-0.0","33","1","2025-02-02 04:03:40","bc01a2b6f61d06f6604adb8657495020","73.207.88.221","Mozilla/5.0 (Windows NT 10.0; Win64; x64; rv:134.0) Gecko/20100101 Firefox/134.0","","Firefox","134.0","Windows","10.0","https://app.prolific.com/","en-US,en;q=0.5","656fc7d36afa7a7199fe7c75","679edb085803f58d6bbd31ca","679eee745803f58d6bbd346e","","8345","<img  src='G_8.jpg' height='90'> <img id='swapped' src='G_2.jpg' height='90'> <img id='swapped'  src='G_6.jpg' height='90'> <img src='G_7.jpg' height='90'> <img src='G_4.jpg' height='90'> <img src='G_1.jpg' height='90'> <img src='G_5.jpg' height='90'> <img src='G_3.jpg' height='90'>","2","Learning example 1","",""
"","","","","","html-button-response","149","435984","0.0-116.1-0.1-0.1","33","1","2025-02-02 04:03:40","bc01a2b6f61d06f6604adb8657495020","73.207.88.221","Mozilla/5.0 (Windows NT 10.0; Win64; x64; rv:134.0) Gecko/20100101 Firefox/134.0","","Firefox","134.0","Windows","10.0","https://app.prolific.com/","en-US,en;q=0.5","656fc7d36afa7a7199fe7c75","679edb085803f58d6bbd31ca","679eee745803f58d6bbd346e","","604","<img  src='G_8.jpg' height='90'> <img id='swapped' src='G_2.jpg' height='90'> <img id='swapped'  src='G_6.jpg' height='90'> <img src='G_7.jpg' height='90'> <img src='G_4.jpg' height='90'> <img src='G_1.jpg' height='90'> <img src='G_5.jpg' height='90'> <img src='G_3.jpg' height='90'>","1","Learning example 1","",""
"","","","","","html-button-response","150","436210","0.0-117.0","33","1","2025-02-02 04:03:40","bc01a2b6f61d06f6604adb8657495020","73.207.88.221","Mozilla/5.0 (Windows NT 10.0; Win64; x64; rv:134.0) Gecko/20100101 Firefox/134.0","","Firefox","134.0","Windows","10.0","https://app.prolific.com/","en-US,en;q=0.5","656fc7d36afa7a7199fe7c75","679edb085803f58d6bbd31ca","679eee745803f58d6bbd346e","","null","<img  src='G_8.jpg' height='90'> <img  src='G_2.jpg' height='90'> <img   src='G_6.jpg' height='90'> <img src='G_7.jpg' height='90'> <img src='G_4.jpg' height='90'> <img src='G_1.jpg' height='90'> <img src='G_5.jpg' height='90'> <img src='G_3.jpg' height='90'>","null","Learning example 1","",""
"","","","","","html-button-response","151","436615","0.0-118.0","33","1","2025-02-02 04:03:40","bc01a2b6f61d06f6604adb8657495020","73.207.88.221","Mozilla/5.0 (Windows NT 10.0; Win64; x64; rv:134.0) Gecko/20100101 Firefox/134.0","","Firefox","134.0","Windows","10.0","https://app.prolific.com/","en-US,en;q=0.5","656fc7d36afa7a7199fe7c75","679edb085803f58d6bbd31ca","679eee745803f58d6bbd346e","","null","<img id='selected'  src='G_8.jpg' height='90'> <img  src='G_2.jpg' height='90'> <img   src='G_6.jpg' height='90'> <img src='G_7.jpg' height='90'> <img src='G_4.jpg' height='90'> <img src='G_1.jpg' height='90'> <img src='G_5.jpg' height='90'> <img src='G_3.jpg' height='90'>","null","Learning example 1","",""
"","","","","","html-button-response","152","436932","0.0-119.0","33","1","2025-02-02 04:03:40","bc01a2b6f61d06f6604adb8657495020","73.207.88.221","Mozilla/5.0 (Windows NT 10.0; Win64; x64; rv:134.0) Gecko/20100101 Firefox/134.0","","Firefox","134.0","Windows","10.0","https://app.prolific.com/","en-US,en;q=0.5","656fc7d36afa7a7199fe7c75","679edb085803f58d6bbd31ca","679eee745803f58d6bbd346e","","null","<img id='selected'  src='G_8.jpg' height='90'> <img id='selected'  src='G_2.jpg' height='90'> <img   src='G_6.jpg' height='90'> <img src='G_7.jpg' height='90'> <img src='G_4.jpg' height='90'> <img src='G_1.jpg' height='90'> <img src='G_5.jpg' height='90'> <img src='G_3.jpg' height='90'>","null","Learning example 1","",""
