"success","timeout","failed_images","failed_audio","failed_video","trial_type","trial_index","time_elapsed","internal_node_id","run_id","condition","recorded_at","source_code_version","ip","user_agent","device","browser","browser_version","platform","platform_version","referer","accept_language","PROLIFIC_PID","STUDY_ID","SESSION_ID","view_history","rt","stimulus","response","phase","question_order"
"true","false","[]","[]","[]","preload","0","2806","0.0-0.0","34","1","2025-02-02 04:07:06","bc01a2b6f61d06f6604adb8657495020","223.29.140.155","Mozilla/5.0 (Windows NT 10.0; Win64; x64) AppleWebKit/537.36 (KHTML, like Gecko) Chrome/129.0.0.0 Safari/537.36","WebKit","Chrome","129.0.0.0","Windows","10.0","https://app.prolific.com/","en,en-US;q=0.9;q=0.9","677118ea07815f27b6073ccd","679edb085803f58d6bbd31ca","679eed734d1f034397408f24","","","","","",""
"","","","","","instructions","1","1208782","0.0-1.0","34","1","2025-02-02 04:07:06","bc01a2b6f61d06f6604adb8657495020","223.29.140.155","Mozilla/5.0 (Windows NT 10.0; Win64; x64) AppleWebKit/537.36 (KHTML, like Gecko) Chrome/129.0.0.0 Safari/537.36","WebKit","Chrome","129.0.0.0","Windows","10.0","https://app.prolific.com/","en,en-US;q=0.9;q=0.9","677118ea07815f27b6073ccd","679edb085803f58d6bbd31ca","679eed734d1f034397408f24","[{""page_index"":0,""viewing_time"":1205967}]","1205968","","","",""
"","","","","","html-keyboard-response","2","1209286","0.0-2.0","34","1","2025-02-02 04:07:06","bc01a2b6f61d06f6604adb8657495020","223.29.140.155","Mozilla/5.0 (Windows NT 10.0; Win64; x64) AppleWebKit/537.36 (KHTML, like Gecko) Chrome/129.0.0.0 Safari/537.36","WebKit","Chrome","129.0.0.0","Windows","10.0","https://app.prolific.com/","en,en-US;q=0.9;q=0.9","677118ea07815f27b6073ccd","679edb085803f58d6bbd31ca","679eed734d1f034397408f24","","null","<p> + <p/>","null","",""
"","","","","","instructions","3","1344501","0.0-3.0","34","1","2025-02-02 04:07:06","bc01a2b6f61d06f6604adb8657495020","223.29.140.155","Mozilla/5.0 (Windows NT 10.0; Win64; x64) AppleWebKit/537.36 (KHTML, like Gecko) Chrome/129.0.0.0 Safari/537.36","WebKit","Chrome","129.0.0.0","Windows","10.0","https://app.prolific.com/","en,en-US;q=0.9;q=0.9","677118ea07815f27b6073ccd","679edb085803f58d6bbd31ca","679eed734d1f034397408f24","[{""page_index"":0,""viewing_time"":43105},{""page_index"":1,""viewing_time"":27017},{""page_index"":2,""viewing_time"":23142},{""page_index"":3,""viewing_time"":21299},{""page_index"":4,""viewing_time"":20650}]","135212","","","",""
"","","","","","html-button-response","4","1470461","0.0-4.0-0.0-0.0","34","1","2025-02-02 04:07:06","bc01a2b6f61d06f6604adb8657495020","223.29.140.155","Mozilla/5.0 (Windows NT 10.0; Win64; x64) AppleWebKit/537.36 (KHTML, like Gecko) Chrome/129.0.0.0 Safari/537.36","WebKit","Chrome","129.0.0.0","Windows","10.0","https://app.prolific.com/","en,en-US;q=0.9;q=0.9","677118ea07815f27b6073ccd","679edb085803f58d6bbd31ca","679eed734d1f034397408f24","","125958","","2","Intro Trial",""
"","","","","","html-button-response","5","1471140","0.0-4.1-0.1-0.1","34","1","2025-02-02 04:07:06","bc01a2b6f61d06f6604adb8657495020","223.29.140.155","Mozilla/5.0 (Windows NT 10.0; Win64; x64) AppleWebKit/537.36 (KHTML, like Gecko) Chrome/129.0.0.0 Safari/537.36","WebKit","Chrome","129.0.0.0","Windows","10.0","https://app.prolific.com/","en,en-US;q=0.9;q=0.9","677118ea07815f27b6073ccd","679edb085803f58d6bbd31ca","679eed734d1f034397408f24","","677","","3","Intro Trial",""
"","","","","","html-button-response","6","1478756","0.0-4.2-0.2-0.2","34","1","2025-02-02 04:07:06","bc01a2b6f61d06f6604adb8657495020","223.29.140.155","Mozilla/5.0 (Windows NT 10.0; Win64; x64) AppleWebKit/537.36 (KHTML, like Gecko) Chrome/129.0.0.0 Safari/537.36","WebKit","Chrome","129.0.0.0","Windows","10.0","https://app.prolific.com/","en,en-US;q=0.9;q=0.9","677118ea07815f27b6073ccd","679edb085803f58d6bbd31ca","679eed734d1f034397408f24","","7613","","1","Intro Trial",""
"","","","","","html-button-response","7","1479710","0.0-4.3-0.3-0.3","34","1","2025-02-02 04:07:06","bc01a2b6f61d06f6604adb8657495020","223.29.140.155","Mozilla/5.0 (Windows NT 10.0; Win64; x64) AppleWebKit/537.36 (KHTML, like Gecko) Chrome/129.0.0.0 Safari/537.36","WebKit","Chrome","129.0.0.0","Windows","10.0","https://app.prolific.com/","en,en-US;q=0.9;q=0.9","677118ea07815f27b6073ccd","679edb085803f58d6bbd31ca","679eed734d1f034397408f24","","952","","0","Intro Trial",""
"","","","","","html-button-response","8","1481411","0.0-4.4-0.4-0.4","34","1","2025-02-02 04:07:06","bc01a2b6f61d06f6604adb8657495020","223.29.140.155","Mozilla/5.0 (Windows NT 10.0; Win64; x64) AppleWebKit/537.36 (KHTML, like Gecko) Chrome/129.0.0.0 Safari/537.36","WebKit","Chrome","129.0.0.0","Windows","10.0","https://app.prolific.com/","en,en-US;q=0.9;q=0.9","677118ea07815f27b6073ccd","679edb085803f58d6bbd31ca","679eed734d1f034397408f24","","1698","","1","Intro Trial",""
"","","","","","html-button-response","9","1481911","0.0-4.5-0.5-0.5","34","1","2025-02-02 04:07:06","bc01a2b6f61d06f6604adb8657495020","223.29.140.155","Mozilla/5.0 (Windows NT 10.0; Win64; x64) AppleWebKit/537.36 (KHTML, like Gecko) Chrome/129.0.0.0 Safari/537.36","WebKit","Chrome","129.0.0.0","Windows","10.0","https://app.prolific.com/","en,en-US;q=0.9;q=0.9","677118ea07815f27b6073ccd","679edb085803f58d6bbd31ca","679eed734d1f034397408f24","","498","","0","Intro Trial",""
"","","","","","html-button-response","10","1482947","0.0-4.6-0.6-0.6","34","1","2025-02-02 04:07:06","bc01a2b6f61d06f6604adb8657495020","223.29.140.155","Mozilla/5.0 (Windows NT 10.0; Win64; x64) AppleWebKit/537.36 (KHTML, like Gecko) Chrome/129.0.0.0 Safari/537.36","WebKit","Chrome","129.0.0.0","Windows","10.0","https://app.prolific.com/","en,en-US;q=0.9;q=0.9","677118ea07815f27b6073ccd","679edb085803f58d6bbd31ca","679eed734d1f034397408f24","","1035","","1","Intro Trial",""
"","","","","","html-button-response","11","1483440","0.0-4.7-0.7-0.7","34","1","2025-02-02 04:07:06","bc01a2b6f61d06f6604adb8657495020","223.29.140.155","Mozilla/5.0 (Windows NT 10.0; Win64; x64) AppleWebKit/537.36 (KHTML, like Gecko) Chrome/129.0.0.0 Safari/537.36","WebKit","Chrome","129.0.0.0","Windows","10.0","https://app.prolific.com/","en,en-US;q=0.9;q=0.9","677118ea07815f27b6073ccd","679edb085803f58d6bbd31ca","679eed734d1f034397408f24","","491","","0","Intro Trial",""
"","","","","","html-button-response","12","1484058","0.0-4.8-0.8-0.8","34","1","2025-02-02 04:07:06","bc01a2b6f61d06f6604adb8657495020","223.29.140.155","Mozilla/5.0 (Windows NT 10.0; Win64; x64) AppleWebKit/537.36 (KHTML, like Gecko) Chrome/129.0.0.0 Safari/537.36","WebKit","Chrome","129.0.0.0","Windows","10.0","https://app.prolific.com/","en,en-US;q=0.9;q=0.9","677118ea07815f27b6073ccd","679edb085803f58d6bbd31ca","679eed734d1f034397408f24","","616","","0","Intro Trial",""
"","","","","","html-button-response","13","1484766","0.0-4.9-0.9-0.9","34","1","2025-02-02 04:07:06","bc01a2b6f61d06f6604adb8657495020","223.29.140.155","Mozilla/5.0 (Windows NT 10.0; Win64; x64) AppleWebKit/537.36 (KHTML, like Gecko) Chrome/129.0.0.0 Safari/537.36","WebKit","Chrome","129.0.0.0","Windows","10.0","https://app.prolific.com/","en,en-US;q=0.9;q=0.9","677118ea07815f27b6073ccd","679edb085803f58d6bbd31ca","679eed734d1f034397408f24","","706","","1","Intro Trial",""
"","","","","","html-button-response","14","1486380","0.0-4.10-0.10-0.10","34","1","2025-02-02 04:07:06","bc01a2b6f61d06f6604adb8657495020","223.29.140.155","Mozilla/5.0 (Windows NT 10.0; Win64; x64) AppleWebKit/537.36 (KHTML, like Gecko) Chrome/129.0.0.0 Safari/537.36","WebKit","Chrome","129.0.0.0","Windows","10.0","https://app.prolific.com/","en,en-US;q=0.9;q=0.9","677118ea07815f27b6073ccd","679edb085803f58d6bbd31ca","679eed734d1f034397408f24","","1612","","2","Intro Trial",""
"","","","","","html-button-response","15","1486846","0.0-4.11-0.11-0.11","34","1","2025-02-02 04:07:06","bc01a2b6f61d06f6604adb8657495020","223.29.140.155","Mozilla/5.0 (Windows NT 10.0; Win64; x64) AppleWebKit/537.36 (KHTML, like Gecko) Chrome/129.0.0.0 Safari/537.36","WebKit","Chrome","129.0.0.0","Windows","10.0","https://app.prolific.com/","en,en-US;q=0.9;q=0.9","677118ea07815f27b6073ccd","679edb085803f58d6bbd31ca","679eed734d1f034397408f24","","464","","3","Intro Trial",""
"","","","","","html-button-response","16","1487804","0.0-4.12-0.12-0.12","34","1","2025-02-02 04:07:06","bc01a2b6f61d06f6604adb8657495020","223.29.140.155","Mozilla/5.0 (Windows NT 10.0; Win64; x64) AppleWebKit/537.36 (KHTML, like Gecko) Chrome/129.0.0.0 Safari/537.36","WebKit","Chrome","129.0.0.0","Windows","10.0","https://app.prolific.com/","en,en-US;q=0.9;q=0.9","677118ea07815f27b6073ccd","679edb085803f58d6bbd31ca","679eed734d1f034397408f24","","956","","4","Intro Trial",""
"","","","","","html-button-response","17","1488268","0.0-4.13-0.13-0.13","34","1","2025-02-02 04:07:06","bc01a2b6f61d06f6604adb8657495020","223.29.140.155","Mozilla/5.0 (Windows NT 10.0; Win64; x64) AppleWebKit/537.36 (KHTML, like Gecko) Chrome/129.0.0.0 Safari/537.36","WebKit","Chrome","129.0.0.0","Windows","10.0","https://app.prolific.com/","en,en-US;q=0.9;q=0.9","677118ea07815f27b6073ccd","679edb085803f58d6bbd31ca","679eed734d1f034397408f24","","462","","3","Intro Trial",""
"","","","","","html-button-response","18","1489171","0.0-4.14-0.14-0.14","34","1","2025-02-02 04:07:06","bc01a2b6f61d06f6604adb8657495020","223.29.140.155","Mozilla/5.0 (Windows NT 10.0; Win64; x64) AppleWebKit/537.36 (KHTML, like Gecko) Chrome/129.0.0.0 Safari/537.36","WebKit","Chrome","129.0.0.0","Windows","10.0","https://app.prolific.com/","en,en-US;q=0.9;q=0.9","677118ea07815f27b6073ccd","679edb085803f58d6bbd31ca","679eed734d1f034397408f24","","900","","4","Intro Trial",""
"","","","","","html-button-response","19","1489632","0.0-4.15-0.15-0.15","34","1","2025-02-02 04:07:06","bc01a2b6f61d06f6604adb8657495020","223.29.140.155","Mozilla/5.0 (Windows NT 10.0; Win64; x64) AppleWebKit/537.36 (KHTML, like Gecko) Chrome/129.0.0.0 Safari/537.36","WebKit","Chrome","129.0.0.0","Windows","10.0","https://app.prolific.com/","en,en-US;q=0.9;q=0.9","677118ea07815f27b6073ccd","679edb085803f58d6bbd31ca","679eed734d1f034397408f24","","460","","3","Intro Trial",""
"","","","","","html-button-response","20","1490152","0.0-4.16-0.16-0.16","34","1","2025-02-02 04:07:06","bc01a2b6f61d06f6604adb8657495020","223.29.140.155","Mozilla/5.0 (Windows NT 10.0; Win64; x64) AppleWebKit/537.36 (KHTML, like Gecko) Chrome/129.0.0.0 Safari/537.36","WebKit","Chrome","129.0.0.0","Windows","10.0","https://app.prolific.com/","en,en-US;q=0.9;q=0.9","677118ea07815f27b6073ccd","679edb085803f58d6bbd31ca","679eed734d1f034397408f24","","518","","4","Intro Trial",""
"","","","","","html-button-response","21","1490556","0.0-4.17-0.17-0.17","34","1","2025-02-02 04:07:06","bc01a2b6f61d06f6604adb8657495020","223.29.140.155","Mozilla/5.0 (Windows NT 10.0; Win64; x64) AppleWebKit/537.36 (KHTML, like Gecko) Chrome/129.0.0.0 Safari/537.36","WebKit","Chrome","129.0.0.0","Windows","10.0","https://app.prolific.com/","en,en-US;q=0.9;q=0.9","677118ea07815f27b6073ccd","679edb085803f58d6bbd31ca","679eed734d1f034397408f24","","401","","3","Intro Trial",""
"","","","","","html-button-response","22","1491100","0.0-4.18-0.18-0.18","34","1","2025-02-02 04:07:06","bc01a2b6f61d06f6604adb8657495020","223.29.140.155","Mozilla/5.0 (Windows NT 10.0; Win64; x64) AppleWebKit/537.36 (KHTML, like Gecko) Chrome/129.0.0.0 Safari/537.36","WebKit","Chrome","129.0.0.0","Windows","10.0","https://app.prolific.com/","en,en-US;q=0.9;q=0.9","677118ea07815f27b6073ccd","679edb085803f58d6bbd31ca","679eed734d1f034397408f24","","542","","2","Intro Trial",""
"","","","","","html-button-response","23","1491516","0.0-4.19-0.19-0.19","34","1","2025-02-02 04:07:06","bc01a2b6f61d06f6604adb8657495020","223.29.140.155","Mozilla/5.0 (Windows NT 10.0; Win64; x64) AppleWebKit/537.36 (KHTML, like Gecko) Chrome/129.0.0.0 Safari/537.36","WebKit","Chrome","129.0.0.0","Windows","10.0","https://app.prolific.com/","en,en-US;q=0.9;q=0.9","677118ea07815f27b6073ccd","679edb085803f58d6bbd31ca","679eed734d1f034397408f24","","414","","1","Intro Trial",""
"","","","","","html-button-response","24","1491966","0.0-4.20-0.20-0.20","34","1","2025-02-02 04:07:06","bc01a2b6f61d06f6604adb8657495020","223.29.140.155","Mozilla/5.0 (Windows NT 10.0; Win64; x64) AppleWebKit/537.36 (KHTML, like Gecko) Chrome/129.0.0.0 Safari/537.36","WebKit","Chrome","129.0.0.0","Windows","10.0","https://app.prolific.com/","en,en-US;q=0.9;q=0.9","677118ea07815f27b6073ccd","679edb085803f58d6bbd31ca","679eed734d1f034397408f24","","447","","1","Intro Trial",""
"","","","","","html-button-response","25","1492839","0.0-4.21-0.21-0.21","34","1","2025-02-02 04:07:06","bc01a2b6f61d06f6604adb8657495020","223.29.140.155","Mozilla/5.0 (Windows NT 10.0; Win64; x64) AppleWebKit/537.36 (KHTML, like Gecko) Chrome/129.0.0.0 Safari/537.36","WebKit","Chrome","129.0.0.0","Windows","10.0","https://app.prolific.com/","en,en-US;q=0.9;q=0.9","677118ea07815f27b6073ccd","679edb085803f58d6bbd31ca","679eed734d1f034397408f24","","869","","1","Intro Trial",""
"","","","","","html-button-response","26","1493231","0.0-4.22-0.22-0.22","34","1","2025-02-02 04:07:06","bc01a2b6f61d06f6604adb8657495020","223.29.140.155","Mozilla/5.0 (Windows NT 10.0; Win64; x64) AppleWebKit/537.36 (KHTML, like Gecko) Chrome/129.0.0.0 Safari/537.36","WebKit","Chrome","129.0.0.0","Windows","10.0","https://app.prolific.com/","en,en-US;q=0.9;q=0.9","677118ea07815f27b6073ccd","679edb085803f58d6bbd31ca","679eed734d1f034397408f24","","390","","2","Intro Trial",""
"","","","","","html-button-response","27","1493674","0.0-4.23-0.23-0.23","34","1","2025-02-02 04:07:06","bc01a2b6f61d06f6604adb8657495020","223.29.140.155","Mozilla/5.0 (Windows NT 10.0; Win64; x64) AppleWebKit/537.36 (KHTML, like Gecko) Chrome/129.0.0.0 Safari/537.36","WebKit","Chrome","129.0.0.0","Windows","10.0","https://app.prolific.com/","en,en-US;q=0.9;q=0.9","677118ea07815f27b6073ccd","679edb085803f58d6bbd31ca","679eed734d1f034397408f24","","441","","2","Intro Trial",""
"","","","","","html-button-response","28","1494078","0.0-4.24-0.24-0.24","34","1","2025-02-02 04:07:06","bc01a2b6f61d06f6604adb8657495020","223.29.140.155","Mozilla/5.0 (Windows NT 10.0; Win64; x64) AppleWebKit/537.36 (KHTML, like Gecko) Chrome/129.0.0.0 Safari/537.36","WebKit","Chrome","129.0.0.0","Windows","10.0","https://app.prolific.com/","en,en-US;q=0.9;q=0.9","677118ea07815f27b6073ccd","679edb085803f58d6bbd31ca","679eed734d1f034397408f24","","403","","3","Intro Trial",""
"","","","","","html-button-response","29","1494790","0.0-4.25-0.25-0.25","34","1","2025-02-02 04:07:06","bc01a2b6f61d06f6604adb8657495020","223.29.140.155","Mozilla/5.0 (Windows NT 10.0; Win64; x64) AppleWebKit/537.36 (KHTML, like Gecko) Chrome/129.0.0.0 Safari/537.36","WebKit","Chrome","129.0.0.0","Windows","10.0","https://app.prolific.com/","en,en-US;q=0.9;q=0.9","677118ea07815f27b6073ccd","679edb085803f58d6bbd31ca","679eed734d1f034397408f24","","709","","4","Intro Trial",""
"","","","","","html-button-response","30","1495328","0.0-4.26-0.26-0.26","34","1","2025-02-02 04:07:06","bc01a2b6f61d06f6604adb8657495020","223.29.140.155","Mozilla/5.0 (Windows NT 10.0; Win64; x64) AppleWebKit/537.36 (KHTML, like Gecko) Chrome/129.0.0.0 Safari/537.36","WebKit","Chrome","129.0.0.0","Windows","10.0","https://app.prolific.com/","en,en-US;q=0.9;q=0.9","677118ea07815f27b6073ccd","679edb085803f58d6bbd31ca","679eed734d1f034397408f24","","536","","3","Intro Trial",""
"","","","","","html-button-response","31","1495794","0.0-4.27-0.27-0.27","34","1","2025-02-02 04:07:06","bc01a2b6f61d06f6604adb8657495020","223.29.140.155","Mozilla/5.0 (Windows NT 10.0; Win64; x64) AppleWebKit/537.36 (KHTML, like Gecko) Chrome/129.0.0.0 Safari/537.36","WebKit","Chrome","129.0.0.0","Windows","10.0","https://app.prolific.com/","en,en-US;q=0.9;q=0.9","677118ea07815f27b6073ccd","679edb085803f58d6bbd31ca","679eed734d1f034397408f24","","463","","2","Intro Trial",""
"","","","","","html-button-response","32","1497698","0.0-4.28-0.28-0.28","34","1","2025-02-02 04:07:06","bc01a2b6f61d06f6604adb8657495020","223.29.140.155","Mozilla/5.0 (Windows NT 10.0; Win64; x64) AppleWebKit/537.36 (KHTML, like Gecko) Chrome/129.0.0.0 Safari/537.36","WebKit","Chrome","129.0.0.0","Windows","10.0","https://app.prolific.com/","en,en-US;q=0.9;q=0.9","677118ea07815f27b6073ccd","679edb085803f58d6bbd31ca","679eed734d1f034397408f24","","1901","","2","Intro Trial",""
"","","","","","html-button-response","33","1498558","0.0-4.29-0.29-0.29","34","1","2025-02-02 04:07:06","bc01a2b6f61d06f6604adb8657495020","223.29.140.155","Mozilla/5.0 (Windows NT 10.0; Win64; x64) AppleWebKit/537.36 (KHTML, like Gecko) Chrome/129.0.0.0 Safari/537.36","WebKit","Chrome","129.0.0.0","Windows","10.0","https://app.prolific.com/","en,en-US;q=0.9;q=0.9","677118ea07815f27b6073ccd","679edb085803f58d6bbd31ca","679eed734d1f034397408f24","","857","","3","Intro Trial",""
"","","","","","html-button-response","34","1499178","0.0-4.30-0.30-0.30","34","1","2025-02-02 04:07:06","bc01a2b6f61d06f6604adb8657495020","223.29.140.155","Mozilla/5.0 (Windows NT 10.0; Win64; x64) AppleWebKit/537.36 (KHTML, like Gecko) Chrome/129.0.0.0 Safari/537.36","WebKit","Chrome","129.0.0.0","Windows","10.0","https://app.prolific.com/","en,en-US;q=0.9;q=0.9","677118ea07815f27b6073ccd","679edb085803f58d6bbd31ca","679eed734d1f034397408f24","","617","","2","Intro Trial",""
"","","","","","html-button-response","35","1499670","0.0-4.31-0.31-0.31","34","1","2025-02-02 04:07:06","bc01a2b6f61d06f6604adb8657495020","223.29.140.155","Mozilla/5.0 (Windows NT 10.0; Win64; x64) AppleWebKit/537.36 (KHTML, like Gecko) Chrome/129.0.0.0 Safari/537.36","WebKit","Chrome","129.0.0.0","Windows","10.0","https://app.prolific.com/","en,en-US;q=0.9;q=0.9","677118ea07815f27b6073ccd","679edb085803f58d6bbd31ca","679eed734d1f034397408f24","","489","","3","Intro Trial",""
"","","","","","html-button-response","36","1500442","0.0-4.32-0.32-0.32","34","1","2025-02-02 04:07:06","bc01a2b6f61d06f6604adb8657495020","223.29.140.155","Mozilla/5.0 (Windows NT 10.0; Win64; x64) AppleWebKit/537.36 (KHTML, like Gecko) Chrome/129.0.0.0 Safari/537.36","WebKit","Chrome","129.0.0.0","Windows","10.0","https://app.prolific.com/","en,en-US;q=0.9;q=0.9","677118ea07815f27b6073ccd","679edb085803f58d6bbd31ca","679eed734d1f034397408f24","","769","","1","Intro Trial",""
"","","","","","html-button-response","37","1501022","0.0-4.33-0.33-0.33","34","1","2025-02-02 04:07:06","bc01a2b6f61d06f6604adb8657495020","223.29.140.155","Mozilla/5.0 (Windows NT 10.0; Win64; x64) AppleWebKit/537.36 (KHTML, like Gecko) Chrome/129.0.0.0 Safari/537.36","WebKit","Chrome","129.0.0.0","Windows","10.0","https://app.prolific.com/","en,en-US;q=0.9;q=0.9","677118ea07815f27b6073ccd","679edb085803f58d6bbd31ca","679eed734d1f034397408f24","","578","","0","Intro Trial",""
"","","","","","html-button-response","38","1501850","0.0-4.34-0.34-0.34","34","1","2025-02-02 04:07:06","bc01a2b6f61d06f6604adb8657495020","223.29.140.155","Mozilla/5.0 (Windows NT 10.0; Win64; x64) AppleWebKit/537.36 (KHTML, like Gecko) Chrome/129.0.0.0 Safari/537.36","WebKit","Chrome","129.0.0.0","Windows","10.0","https://app.prolific.com/","en,en-US;q=0.9;q=0.9","677118ea07815f27b6073ccd","679edb085803f58d6bbd31ca","679eed734d1f034397408f24","","826","","4","Intro Trial",""
"","","","","","html-button-response","39","1507384","0.0-4.35-0.35-0.35","34","1","2025-02-02 04:07:06","bc01a2b6f61d06f6604adb8657495020","223.29.140.155","Mozilla/5.0 (Windows NT 10.0; Win64; x64) AppleWebKit/537.36 (KHTML, like Gecko) Chrome/129.0.0.0 Safari/537.36","WebKit","Chrome","129.0.0.0","Windows","10.0","https://app.prolific.com/","en,en-US;q=0.9;q=0.9","677118ea07815f27b6073ccd","679edb085803f58d6bbd31ca","679eed734d1f034397408f24","","5532","","0","Intro Trial",""
"","","","","","html-button-response","40","1507944","0.0-4.36-0.36-0.36","34","1","2025-02-02 04:07:06","bc01a2b6f61d06f6604adb8657495020","223.29.140.155","Mozilla/5.0 (Windows NT 10.0; Win64; x64) AppleWebKit/537.36 (KHTML, like Gecko) Chrome/129.0.0.0 Safari/537.36","WebKit","Chrome","129.0.0.0","Windows","10.0","https://app.prolific.com/","en,en-US;q=0.9;q=0.9","677118ea07815f27b6073ccd","679edb085803f58d6bbd31ca","679eed734d1f034397408f24","","558","","1","Intro Trial",""
"","","","","","html-button-response","41","1508900","0.0-4.37-0.37-0.37","34","1","2025-02-02 04:07:06","bc01a2b6f61d06f6604adb8657495020","223.29.140.155","Mozilla/5.0 (Windows NT 10.0; Win64; x64) AppleWebKit/537.36 (KHTML, like Gecko) Chrome/129.0.0.0 Safari/537.36","WebKit","Chrome","129.0.0.0","Windows","10.0","https://app.prolific.com/","en,en-US;q=0.9;q=0.9","677118ea07815f27b6073ccd","679edb085803f58d6bbd31ca","679eed734d1f034397408f24","","953","","2","Intro Trial",""
"","","","","","html-button-response","42","1512441","0.0-4.38-0.38-0.38","34","1","2025-02-02 04:07:06","bc01a2b6f61d06f6604adb8657495020","223.29.140.155","Mozilla/5.0 (Windows NT 10.0; Win64; x64) AppleWebKit/537.36 (KHTML, like Gecko) Chrome/129.0.0.0 Safari/537.36","WebKit","Chrome","129.0.0.0","Windows","10.0","https://app.prolific.com/","en,en-US;q=0.9;q=0.9","677118ea07815f27b6073ccd","679edb085803f58d6bbd31ca","679eed734d1f034397408f24","","3538","","2","Intro Trial",""
"","","","","","html-button-response","43","1513207","0.0-4.39-0.39-0.39","34","1","2025-02-02 04:07:06","bc01a2b6f61d06f6604adb8657495020","223.29.140.155","Mozilla/5.0 (Windows NT 10.0; Win64; x64) AppleWebKit/537.36 (KHTML, like Gecko) Chrome/129.0.0.0 Safari/537.36","WebKit","Chrome","129.0.0.0","Windows","10.0","https://app.prolific.com/","en,en-US;q=0.9;q=0.9","677118ea07815f27b6073ccd","679edb085803f58d6bbd31ca","679eed734d1f034397408f24","","764","","1","Intro Trial",""
"","","","","","html-button-response","44","1514398","0.0-4.40-0.40-0.40","34","1","2025-02-02 04:07:06","bc01a2b6f61d06f6604adb8657495020","223.29.140.155","Mozilla/5.0 (Windows NT 10.0; Win64; x64) AppleWebKit/537.36 (KHTML, like Gecko) Chrome/129.0.0.0 Safari/537.36","WebKit","Chrome","129.0.0.0","Windows","10.0","https://app.prolific.com/","en,en-US;q=0.9;q=0.9","677118ea07815f27b6073ccd","679edb085803f58d6bbd31ca","679eed734d1f034397408f24","","1189","","2","Intro Trial",""
"","","","","","html-button-response","45","1515394","0.0-4.41-0.41-0.41","34","1","2025-02-02 04:07:06","bc01a2b6f61d06f6604adb8657495020","223.29.140.155","Mozilla/5.0 (Windows NT 10.0; Win64; x64) AppleWebKit/537.36 (KHTML, like Gecko) Chrome/129.0.0.0 Safari/537.36","WebKit","Chrome","129.0.0.0","Windows","10.0","https://app.prolific.com/","en,en-US;q=0.9;q=0.9","677118ea07815f27b6073ccd","679edb085803f58d6bbd31ca","679eed734d1f034397408f24","","993","","1","Intro Trial",""
"","","","","","html-button-response","46","1516714","0.0-4.42-0.42-0.42","34","1","2025-02-02 04:07:06","bc01a2b6f61d06f6604adb8657495020","223.29.140.155","Mozilla/5.0 (Windows NT 10.0; Win64; x64) AppleWebKit/537.36 (KHTML, like Gecko) Chrome/129.0.0.0 Safari/537.36","WebKit","Chrome","129.0.0.0","Windows","10.0","https://app.prolific.com/","en,en-US;q=0.9;q=0.9","677118ea07815f27b6073ccd","679edb085803f58d6bbd31ca","679eed734d1f034397408f24","","1317","","0","Intro Trial",""
"","","","","","html-button-response","47","1519024","0.0-4.43-0.43-0.43","34","1","2025-02-02 04:07:06","bc01a2b6f61d06f6604adb8657495020","223.29.140.155","Mozilla/5.0 (Windows NT 10.0; Win64; x64) AppleWebKit/537.36 (KHTML, like Gecko) Chrome/129.0.0.0 Safari/537.36","WebKit","Chrome","129.0.0.0","Windows","10.0","https://app.prolific.com/","en,en-US;q=0.9;q=0.9","677118ea07815f27b6073ccd","679edb085803f58d6bbd31ca","679eed734d1f034397408f24","","2308","","4","Intro Trial",""
"","","","","","html-button-response","48","1520266","0.0-4.44-0.44-0.44","34","1","2025-02-02 04:07:06","bc01a2b6f61d06f6604adb8657495020","223.29.140.155","Mozilla/5.0 (Windows NT 10.0; Win64; x64) AppleWebKit/537.36 (KHTML, like Gecko) Chrome/129.0.0.0 Safari/537.36","WebKit","Chrome","129.0.0.0","Windows","10.0","https://app.prolific.com/","en,en-US;q=0.9;q=0.9","677118ea07815f27b6073ccd","679edb085803f58d6bbd31ca","679eed734d1f034397408f24","","1239","","3","Intro Trial",""
"","","","","","html-button-response","49","1521412","0.0-4.45-0.45-0.45","34","1","2025-02-02 04:07:06","bc01a2b6f61d06f6604adb8657495020","223.29.140.155","Mozilla/5.0 (Windows NT 10.0; Win64; x64) AppleWebKit/537.36 (KHTML, like Gecko) Chrome/129.0.0.0 Safari/537.36","WebKit","Chrome","129.0.0.0","Windows","10.0","https://app.prolific.com/","en,en-US;q=0.9;q=0.9","677118ea07815f27b6073ccd","679edb085803f58d6bbd31ca","679eed734d1f034397408f24","","1143","","4","Intro Trial",""
"","","","","","html-button-response","50","1522007","0.0-4.46-0.46-0.46","34","1","2025-02-02 04:07:06","bc01a2b6f61d06f6604adb8657495020","223.29.140.155","Mozilla/5.0 (Windows NT 10.0; Win64; x64) AppleWebKit/537.36 (KHTML, like Gecko) Chrome/129.0.0.0 Safari/537.36","WebKit","Chrome","129.0.0.0","Windows","10.0","https://app.prolific.com/","en,en-US;q=0.9;q=0.9","677118ea07815f27b6073ccd","679edb085803f58d6bbd31ca","679eed734d1f034397408f24","","592","","3","Intro Trial",""
"","","","","","html-button-response","51","1529211","0.0-4.47-0.47-0.47","34","1","2025-02-02 04:07:06","bc01a2b6f61d06f6604adb8657495020","223.29.140.155","Mozilla/5.0 (Windows NT 10.0; Win64; x64) AppleWebKit/537.36 (KHTML, like Gecko) Chrome/129.0.0.0 Safari/537.36","WebKit","Chrome","129.0.0.0","Windows","10.0","https://app.prolific.com/","en,en-US;q=0.9;q=0.9","677118ea07815f27b6073ccd","679edb085803f58d6bbd31ca","679eed734d1f034397408f24","","7201","","3","Intro Trial",""
"","","","","","html-button-response","52","1530255","0.0-4.48-0.48-0.48","34","1","2025-02-02 04:07:06","bc01a2b6f61d06f6604adb8657495020","223.29.140.155","Mozilla/5.0 (Windows NT 10.0; Win64; x64) AppleWebKit/537.36 (KHTML, like Gecko) Chrome/129.0.0.0 Safari/537.36","WebKit","Chrome","129.0.0.0","Windows","10.0","https://app.prolific.com/","en,en-US;q=0.9;q=0.9","677118ea07815f27b6073ccd","679edb085803f58d6bbd31ca","679eed734d1f034397408f24","","1041","","0","Intro Trial",""
"","","","","","html-button-response","53","1531671","0.0-4.49-0.49-0.49","34","1","2025-02-02 04:07:06","bc01a2b6f61d06f6604adb8657495020","223.29.140.155","Mozilla/5.0 (Windows NT 10.0; Win64; x64) AppleWebKit/537.36 (KHTML, like Gecko) Chrome/129.0.0.0 Safari/537.36","WebKit","Chrome","129.0.0.0","Windows","10.0","https://app.prolific.com/","en,en-US;q=0.9;q=0.9","677118ea07815f27b6073ccd","679edb085803f58d6bbd31ca","679eed734d1f034397408f24","","1413","","3","Intro Trial",""
"","","","","","html-button-response","54","1532488","0.0-4.50-0.50-0.50","34","1","2025-02-02 04:07:06","bc01a2b6f61d06f6604adb8657495020","223.29.140.155","Mozilla/5.0 (Windows NT 10.0; Win64; x64) AppleWebKit/537.36 (KHTML, like Gecko) Chrome/129.0.0.0 Safari/537.36","WebKit","Chrome","129.0.0.0","Windows","10.0","https://app.prolific.com/","en,en-US;q=0.9;q=0.9","677118ea07815f27b6073ccd","679edb085803f58d6bbd31ca","679eed734d1f034397408f24","","816","","0","Intro Trial",""
"","","","","","html-button-response","55","1533095","0.0-4.51-0.51-0.51","34","1","2025-02-02 04:07:06","bc01a2b6f61d06f6604adb8657495020","223.29.140.155","Mozilla/5.0 (Windows NT 10.0; Win64; x64) AppleWebKit/537.36 (KHTML, like Gecko) Chrome/129.0.0.0 Safari/537.36","WebKit","Chrome","129.0.0.0","Windows","10.0","https://app.prolific.com/","en,en-US;q=0.9;q=0.9","677118ea07815f27b6073ccd","679edb085803f58d6bbd31ca","679eed734d1f034397408f24","","604","","0","Intro Trial",""
"","","","","","html-button-response","56","1534183","0.0-4.52-0.52-0.52","34","1","2025-02-02 04:07:06","bc01a2b6f61d06f6604adb8657495020","223.29.140.155","Mozilla/5.0 (Windows NT 10.0; Win64; x64) AppleWebKit/537.36 (KHTML, like Gecko) Chrome/129.0.0.0 Safari/537.36","WebKit","Chrome","129.0.0.0","Windows","10.0","https://app.prolific.com/","en,en-US;q=0.9;q=0.9","677118ea07815f27b6073ccd","679edb085803f58d6bbd31ca","679eed734d1f034397408f24","","1086","","3","Intro Trial",""
"","","","","","html-button-response","57","1536087","0.0-4.53-0.53-0.53","34","1","2025-02-02 04:07:06","bc01a2b6f61d06f6604adb8657495020","223.29.140.155","Mozilla/5.0 (Windows NT 10.0; Win64; x64) AppleWebKit/537.36 (KHTML, like Gecko) Chrome/129.0.0.0 Safari/537.36","WebKit","Chrome","129.0.0.0","Windows","10.0","https://app.prolific.com/","en,en-US;q=0.9;q=0.9","677118ea07815f27b6073ccd","679edb085803f58d6bbd31ca","679eed734d1f034397408f24","","1901","","5","Intro Trial",""
"","","","","","html-keyboard-response","58","1578748","0.0-5.0","34","1","2025-02-02 04:07:06","bc01a2b6f61d06f6604adb8657495020","223.29.140.155","Mozilla/5.0 (Windows NT 10.0; Win64; x64) AppleWebKit/537.36 (KHTML, like Gecko) Chrome/129.0.0.0 Safari/537.36","WebKit","Chrome","129.0.0.0","Windows","10.0","https://app.prolific.com/","en,en-US;q=0.9;q=0.9","677118ea07815f27b6073ccd","679edb085803f58d6bbd31ca","679eed734d1f034397408f24","","42659","[""You sorted incorrectly by using the balance 22 times. <br><br> <img src='G_2.jpg' height='90'><img src='G_5.jpg' height='90'><img src='G_3.jpg' height='90'><img src='G_1.jpg' height='90'><img src='G_4.jpg' height='90'><br><br> Your final order is 2,1,3,4,5<br><br><br>Omgne Sort in this game will allow you to sort correctly by using the balance 8 times. Press Enter to learn it!""]","enter","",""
"","","","","","html-keyboard-response","59","1585181","0.0-6.0","34","1","2025-02-02 04:07:06","bc01a2b6f61d06f6604adb8657495020","223.29.140.155","Mozilla/5.0 (Windows NT 10.0; Win64; x64) AppleWebKit/537.36 (KHTML, like Gecko) Chrome/129.0.0.0 Safari/537.36","WebKit","Chrome","129.0.0.0","Windows","10.0","https://app.prolific.com/","en,en-US;q=0.9;q=0.9","677118ea07815f27b6073ccd","679edb085803f58d6bbd31ca","679eed734d1f034397408f24","","6430","<p>Welcome to the learning phase! <br><br> You will learn by six examples. The following learning trials will not be used to calculate your performance. <br><br> Press Enter to continue.<p/>","enter","",""
"","","","","","html-keyboard-response","60","1594895","0.0-7.0","34","1","2025-02-02 04:07:06","bc01a2b6f61d06f6604adb8657495020","223.29.140.155","Mozilla/5.0 (Windows NT 10.0; Win64; x64) AppleWebKit/537.36 (KHTML, like Gecko) Chrome/129.0.0.0 Safari/537.36","WebKit","Chrome","129.0.0.0","Windows","10.0","https://app.prolific.com/","en,en-US;q=0.9;q=0.9","677118ea07815f27b6073ccd","679edb085803f58d6bbd31ca","679eed734d1f034397408f24","","9711","[""Example 1<br><br>You will watch Omnge Sort in action. Try to identify any patterns in the comparisons made by this method. <br><br>Press Enter to continue.""]","enter","",""
"","","","","","html-keyboard-response","61","1595398","0.0-8.0","34","1","2025-02-02 04:07:06","bc01a2b6f61d06f6604adb8657495020","223.29.140.155","Mozilla/5.0 (Windows NT 10.0; Win64; x64) AppleWebKit/537.36 (KHTML, like Gecko) Chrome/129.0.0.0 Safari/537.36","WebKit","Chrome","129.0.0.0","Windows","10.0","https://app.prolific.com/","en,en-US;q=0.9;q=0.9","677118ea07815f27b6073ccd","679edb085803f58d6bbd31ca","679eed734d1f034397408f24","","null","<img id='selected' src='G_1.jpg' height='90'> <img src='G_7.jpg' height='90'> <img src='G_9.jpg' height='90'> <img src='G_3.jpg' height='90'> <img src='G_5.jpg' height='90'>","null","Animation0",""
"","","","","","html-keyboard-response","62","1595905","0.0-9.0","34","1","2025-02-02 04:07:06","bc01a2b6f61d06f6604adb8657495020","223.29.140.155","Mozilla/5.0 (Windows NT 10.0; Win64; x64) AppleWebKit/537.36 (KHTML, like Gecko) Chrome/129.0.0.0 Safari/537.36","WebKit","Chrome","129.0.0.0","Windows","10.0","https://app.prolific.com/","en,en-US;q=0.9;q=0.9","677118ea07815f27b6073ccd","679edb085803f58d6bbd31ca","679eed734d1f034397408f24","","null","<img id='selected' src='G_1.jpg' height='90'> <img id='selected' src='G_7.jpg' height='90'> <img src='G_9.jpg' height='90'> <img src='G_3.jpg' height='90'> <img src='G_5.jpg' height='90'>","null","Animation0",""
"","","","","","html-keyboard-response","63","1596410","0.0-10.0","34","1","2025-02-02 04:07:06","bc01a2b6f61d06f6604adb8657495020","223.29.140.155","Mozilla/5.0 (Windows NT 10.0; Win64; x64) AppleWebKit/537.36 (KHTML, like Gecko) Chrome/129.0.0.0 Safari/537.36","WebKit","Chrome","129.0.0.0","Windows","10.0","https://app.prolific.com/","en,en-US;q=0.9;q=0.9","677118ea07815f27b6073ccd","679edb085803f58d6bbd31ca","679eed734d1f034397408f24","","null","<img id='swapped' src='G_7.jpg' height='90'> <img id='swapped' src='G_1.jpg' height='90'> <img src='G_9.jpg' height='90'> <img src='G_3.jpg' height='90'> <img src='G_5.jpg' height='90'>","null","Animation0",""
"","","","","","html-keyboard-response","64","1596715","0.0-11.0","34","1","2025-02-02 04:07:06","bc01a2b6f61d06f6604adb8657495020","223.29.140.155","Mozilla/5.0 (Windows NT 10.0; Win64; x64) AppleWebKit/537.36 (KHTML, like Gecko) Chrome/129.0.0.0 Safari/537.36","WebKit","Chrome","129.0.0.0","Windows","10.0","https://app.prolific.com/","en,en-US;q=0.9;q=0.9","677118ea07815f27b6073ccd","679edb085803f58d6bbd31ca","679eed734d1f034397408f24","","null","<img  src='G_7.jpg' height='90'> <img  src='G_1.jpg' height='90'> <img src='G_9.jpg' height='90'> <img src='G_3.jpg' height='90'> <img src='G_5.jpg' height='90'>","null","Animation0",""
"","","","","","html-keyboard-response","65","1597223","0.0-12.0","34","1","2025-02-02 04:07:06","bc01a2b6f61d06f6604adb8657495020","223.29.140.155","Mozilla/5.0 (Windows NT 10.0; Win64; x64) AppleWebKit/537.36 (KHTML, like Gecko) Chrome/129.0.0.0 Safari/537.36","WebKit","Chrome","129.0.0.0","Windows","10.0","https://app.prolific.com/","en,en-US;q=0.9;q=0.9","677118ea07815f27b6073ccd","679edb085803f58d6bbd31ca","679eed734d1f034397408f24","","null","<img  src='G_7.jpg' height='90'> <img id='selected'  src='G_1.jpg' height='90'> <img src='G_9.jpg' height='90'> <img src='G_3.jpg' height='90'> <img src='G_5.jpg' height='90'>","null","Animation0",""
"","","","","","html-keyboard-response","66","1597730","0.0-13.0","34","1","2025-02-02 04:07:06","bc01a2b6f61d06f6604adb8657495020","223.29.140.155","Mozilla/5.0 (Windows NT 10.0; Win64; x64) AppleWebKit/537.36 (KHTML, like Gecko) Chrome/129.0.0.0 Safari/537.36","WebKit","Chrome","129.0.0.0","Windows","10.0","https://app.prolific.com/","en,en-US;q=0.9;q=0.9","677118ea07815f27b6073ccd","679edb085803f58d6bbd31ca","679eed734d1f034397408f24","","null","<img  src='G_7.jpg' height='90'> <img id='selected'  src='G_1.jpg' height='90'> <img id='selected' src='G_9.jpg' height='90'> <img src='G_3.jpg' height='90'> <img src='G_5.jpg' height='90'>","null","Animation0",""
"","","","","","html-keyboard-response","67","1598234","0.0-14.0","34","1","2025-02-02 04:07:06","bc01a2b6f61d06f6604adb8657495020","223.29.140.155","Mozilla/5.0 (Windows NT 10.0; Win64; x64) AppleWebKit/537.36 (KHTML, like Gecko) Chrome/129.0.0.0 Safari/537.36","WebKit","Chrome","129.0.0.0","Windows","10.0","https://app.prolific.com/","en,en-US;q=0.9;q=0.9","677118ea07815f27b6073ccd","679edb085803f58d6bbd31ca","679eed734d1f034397408f24","","null","<img  src='G_7.jpg' height='90'> <img id='selected'  src='G_1.jpg' height='90'> <img id='selected' src='G_9.jpg' height='90'> <img src='G_3.jpg' height='90'> <img src='G_5.jpg' height='90'>","null","Animation0",""
"","","","","","html-keyboard-response","68","1598537","0.0-15.0","34","1","2025-02-02 04:07:06","bc01a2b6f61d06f6604adb8657495020","223.29.140.155","Mozilla/5.0 (Windows NT 10.0; Win64; x64) AppleWebKit/537.36 (KHTML, like Gecko) Chrome/129.0.0.0 Safari/537.36","WebKit","Chrome","129.0.0.0","Windows","10.0","https://app.prolific.com/","en,en-US;q=0.9;q=0.9","677118ea07815f27b6073ccd","679edb085803f58d6bbd31ca","679eed734d1f034397408f24","","null","<img  src='G_7.jpg' height='90'> <img   src='G_1.jpg' height='90'> <img  src='G_9.jpg' height='90'> <img src='G_3.jpg' height='90'> <img src='G_5.jpg' height='90'>","null","Animation0",""
"","","","","","html-keyboard-response","69","1599044","0.0-16.0","34","1","2025-02-02 04:07:06","bc01a2b6f61d06f6604adb8657495020","223.29.140.155","Mozilla/5.0 (Windows NT 10.0; Win64; x64) AppleWebKit/537.36 (KHTML, like Gecko) Chrome/129.0.0.0 Safari/537.36","WebKit","Chrome","129.0.0.0","Windows","10.0","https://app.prolific.com/","en,en-US;q=0.9;q=0.9","677118ea07815f27b6073ccd","679edb085803f58d6bbd31ca","679eed734d1f034397408f24","","null","<img  src='G_7.jpg' height='90'> <img   src='G_1.jpg' height='90'> <img id='selected'  src='G_9.jpg' height='90'> <img src='G_3.jpg' height='90'> <img src='G_5.jpg' height='90'>","null","Animation0",""
"","","","","","html-keyboard-response","70","1599550","0.0-17.0","34","1","2025-02-02 04:07:06","bc01a2b6f61d06f6604adb8657495020","223.29.140.155","Mozilla/5.0 (Windows NT 10.0; Win64; x64) AppleWebKit/537.36 (KHTML, like Gecko) Chrome/129.0.0.0 Safari/537.36","WebKit","Chrome","129.0.0.0","Windows","10.0","https://app.prolific.com/","en,en-US;q=0.9;q=0.9","677118ea07815f27b6073ccd","679edb085803f58d6bbd31ca","679eed734d1f034397408f24","","null","<img  src='G_7.jpg' height='90'> <img   src='G_1.jpg' height='90'> <img id='selected'  src='G_9.jpg' height='90'> <img id='selected' src='G_3.jpg' height='90'> <img src='G_5.jpg' height='90'>","null","Animation0",""
"","","","","","html-keyboard-response","71","1600056","0.0-18.0","34","1","2025-02-02 04:07:06","bc01a2b6f61d06f6604adb8657495020","223.29.140.155","Mozilla/5.0 (Windows NT 10.0; Win64; x64) AppleWebKit/537.36 (KHTML, like Gecko) Chrome/129.0.0.0 Safari/537.36","WebKit","Chrome","129.0.0.0","Windows","10.0","https://app.prolific.com/","en,en-US;q=0.9;q=0.9","677118ea07815f27b6073ccd","679edb085803f58d6bbd31ca","679eed734d1f034397408f24","","null","<img  src='G_7.jpg' height='90'> <img   src='G_1.jpg' height='90'> <img id='selected'  src='G_9.jpg' height='90'> <img id='selected' src='G_3.jpg' height='90'> <img src='G_5.jpg' height='90'>","null","Animation0",""
"","","","","","html-keyboard-response","72","1600363","0.0-19.0","34","1","2025-02-02 04:07:06","bc01a2b6f61d06f6604adb8657495020","223.29.140.155","Mozilla/5.0 (Windows NT 10.0; Win64; x64) AppleWebKit/537.36 (KHTML, like Gecko) Chrome/129.0.0.0 Safari/537.36","WebKit","Chrome","129.0.0.0","Windows","10.0","https://app.prolific.com/","en,en-US;q=0.9;q=0.9","677118ea07815f27b6073ccd","679edb085803f58d6bbd31ca","679eed734d1f034397408f24","","null","<img  src='G_7.jpg' height='90'> <img   src='G_1.jpg' height='90'> <img   src='G_9.jpg' height='90'> <img  src='G_3.jpg' height='90'> <img src='G_5.jpg' height='90'>","null","Animation0",""
"","","","","","html-keyboard-response","73","1600868","0.0-20.0","34","1","2025-02-02 04:07:06","bc01a2b6f61d06f6604adb8657495020","223.29.140.155","Mozilla/5.0 (Windows NT 10.0; Win64; x64) AppleWebKit/537.36 (KHTML, like Gecko) Chrome/129.0.0.0 Safari/537.36","WebKit","Chrome","129.0.0.0","Windows","10.0","https://app.prolific.com/","en,en-US;q=0.9;q=0.9","677118ea07815f27b6073ccd","679edb085803f58d6bbd31ca","679eed734d1f034397408f24","","null","<img  src='G_7.jpg' height='90'> <img   src='G_1.jpg' height='90'> <img   src='G_9.jpg' height='90'> <img id='selected'  src='G_3.jpg' height='90'> <img src='G_5.jpg' height='90'>","null","Animation0",""
"","","","","","html-keyboard-response","74","1601374","0.0-21.0","34","1","2025-02-02 04:07:06","bc01a2b6f61d06f6604adb8657495020","223.29.140.155","Mozilla/5.0 (Windows NT 10.0; Win64; x64) AppleWebKit/537.36 (KHTML, like Gecko) Chrome/129.0.0.0 Safari/537.36","WebKit","Chrome","129.0.0.0","Windows","10.0","https://app.prolific.com/","en,en-US;q=0.9;q=0.9","677118ea07815f27b6073ccd","679edb085803f58d6bbd31ca","679eed734d1f034397408f24","","null","<img  src='G_7.jpg' height='90'> <img   src='G_1.jpg' height='90'> <img   src='G_9.jpg' height='90'> <img id='selected'  src='G_3.jpg' height='90'> <img id='selected' src='G_5.jpg' height='90'>","null","Animation0",""
"","","","","","html-keyboard-response","75","1601881","0.0-22.0","34","1","2025-02-02 04:07:06","bc01a2b6f61d06f6604adb8657495020","223.29.140.155","Mozilla/5.0 (Windows NT 10.0; Win64; x64) AppleWebKit/537.36 (KHTML, like Gecko) Chrome/129.0.0.0 Safari/537.36","WebKit","Chrome","129.0.0.0","Windows","10.0","https://app.prolific.com/","en,en-US;q=0.9;q=0.9","677118ea07815f27b6073ccd","679edb085803f58d6bbd31ca","679eed734d1f034397408f24","","null","<img  src='G_7.jpg' height='90'> <img   src='G_1.jpg' height='90'> <img   src='G_9.jpg' height='90'> <img id='selected'  src='G_3.jpg' height='90'> <img id='selected' src='G_5.jpg' height='90'>","null","Animation0",""
"","","","","","html-keyboard-response","76","1602187","0.0-23.0","34","1","2025-02-02 04:07:06","bc01a2b6f61d06f6604adb8657495020","223.29.140.155","Mozilla/5.0 (Windows NT 10.0; Win64; x64) AppleWebKit/537.36 (KHTML, like Gecko) Chrome/129.0.0.0 Safari/537.36","WebKit","Chrome","129.0.0.0","Windows","10.0","https://app.prolific.com/","en,en-US;q=0.9;q=0.9","677118ea07815f27b6073ccd","679edb085803f58d6bbd31ca","679eed734d1f034397408f24","","null","<img  src='G_7.jpg' height='90'> <img   src='G_1.jpg' height='90'> <img   src='G_9.jpg' height='90'> <img   src='G_3.jpg' height='90'> <img  src='G_5.jpg' height='90'>","null","Animation0",""
"","","","","","html-keyboard-response","77","1618051","0.0-24.0","34","1","2025-02-02 04:07:06","bc01a2b6f61d06f6604adb8657495020","223.29.140.155","Mozilla/5.0 (Windows NT 10.0; Win64; x64) AppleWebKit/537.36 (KHTML, like Gecko) Chrome/129.0.0.0 Safari/537.36","WebKit","Chrome","129.0.0.0","Windows","10.0","https://app.prolific.com/","en,en-US;q=0.9;q=0.9","677118ea07815f27b6073ccd","679edb085803f58d6bbd31ca","679eed734d1f034397408f24","","15860","[""Did you notice any patterns? <br><br>Press Enter to watch that example again and follow the steps of Omgne Sort.""]","enter","",""
"","","","","","html-button-response","78","1618455","0.0-25.0","34","1","2025-02-02 04:07:06","bc01a2b6f61d06f6604adb8657495020","223.29.140.155","Mozilla/5.0 (Windows NT 10.0; Win64; x64) AppleWebKit/537.36 (KHTML, like Gecko) Chrome/129.0.0.0 Safari/537.36","WebKit","Chrome","129.0.0.0","Windows","10.0","https://app.prolific.com/","en,en-US;q=0.9;q=0.9","677118ea07815f27b6073ccd","679edb085803f58d6bbd31ca","679eed734d1f034397408f24","","null","<img id='selected' src='G_1.jpg' height='90'> <img src='G_7.jpg' height='90'> <img src='G_9.jpg' height='90'> <img src='G_3.jpg' height='90'> <img src='G_5.jpg' height='90'>","null","Learning example 0",""
"","","","","","html-button-response","79","1618764","0.0-26.0","34","1","2025-02-02 04:07:06","bc01a2b6f61d06f6604adb8657495020","223.29.140.155","Mozilla/5.0 (Windows NT 10.0; Win64; x64) AppleWebKit/537.36 (KHTML, like Gecko) Chrome/129.0.0.0 Safari/537.36","WebKit","Chrome","129.0.0.0","Windows","10.0","https://app.prolific.com/","en,en-US;q=0.9;q=0.9","677118ea07815f27b6073ccd","679edb085803f58d6bbd31ca","679eed734d1f034397408f24","","null","<img id='selected' src='G_1.jpg' height='90'> <img id='selected' src='G_7.jpg' height='90'> <img src='G_9.jpg' height='90'> <img src='G_3.jpg' height='90'> <img src='G_5.jpg' height='90'>","null","Learning example 0",""
"","","","","","html-button-response","80","1619072","0.0-27.0","34","1","2025-02-02 04:07:06","bc01a2b6f61d06f6604adb8657495020","223.29.140.155","Mozilla/5.0 (Windows NT 10.0; Win64; x64) AppleWebKit/537.36 (KHTML, like Gecko) Chrome/129.0.0.0 Safari/537.36","WebKit","Chrome","129.0.0.0","Windows","10.0","https://app.prolific.com/","en,en-US;q=0.9;q=0.9","677118ea07815f27b6073ccd","679edb085803f58d6bbd31ca","679eed734d1f034397408f24","","null","<img id='swapped' src='G_7.jpg' height='90'> <img id='swapped' src='G_1.jpg' height='90'> <img src='G_9.jpg' height='90'> <img src='G_3.jpg' height='90'> <img src='G_5.jpg' height='90'>","null","Learning example 0",""
"","","","","","html-button-response","81","1705037","0.0-28.0-0.0-0.0","34","1","2025-02-02 04:07:06","bc01a2b6f61d06f6604adb8657495020","223.29.140.155","Mozilla/5.0 (Windows NT 10.0; Win64; x64) AppleWebKit/537.36 (KHTML, like Gecko) Chrome/129.0.0.0 Safari/537.36","WebKit","Chrome","129.0.0.0","Windows","10.0","https://app.prolific.com/","en,en-US;q=0.9;q=0.9","677118ea07815f27b6073ccd","679edb085803f58d6bbd31ca","679eed734d1f034397408f24","","85956","<img id='swapped' src='G_7.jpg' height='90'> <img id='swapped' src='G_1.jpg' height='90'> <img src='G_9.jpg' height='90'> <img src='G_3.jpg' height='90'> <img src='G_5.jpg' height='90'>","0","Learning example 0",""
"","","","","","html-button-response","82","1705759","0.0-28.1-0.1-0.1","34","1","2025-02-02 04:07:06","bc01a2b6f61d06f6604adb8657495020","223.29.140.155","Mozilla/5.0 (Windows NT 10.0; Win64; x64) AppleWebKit/537.36 (KHTML, like Gecko) Chrome/129.0.0.0 Safari/537.36","WebKit","Chrome","129.0.0.0","Windows","10.0","https://app.prolific.com/","en,en-US;q=0.9;q=0.9","677118ea07815f27b6073ccd","679edb085803f58d6bbd31ca","679eed734d1f034397408f24","","717","<img id='swapped' src='G_7.jpg' height='90'> <img id='swapped' src='G_1.jpg' height='90'> <img src='G_9.jpg' height='90'> <img src='G_3.jpg' height='90'> <img src='G_5.jpg' height='90'>","1","Learning example 0",""
"","","","","","html-button-response","83","1705963","0.0-29.0","34","1","2025-02-02 04:07:06","bc01a2b6f61d06f6604adb8657495020","223.29.140.155","Mozilla/5.0 (Windows NT 10.0; Win64; x64) AppleWebKit/537.36 (KHTML, like Gecko) Chrome/129.0.0.0 Safari/537.36","WebKit","Chrome","129.0.0.0","Windows","10.0","https://app.prolific.com/","en,en-US;q=0.9;q=0.9","677118ea07815f27b6073ccd","679edb085803f58d6bbd31ca","679eed734d1f034397408f24","","null","<img  src='G_7.jpg' height='90'> <img  src='G_1.jpg' height='90'> <img src='G_9.jpg' height='90'> <img src='G_3.jpg' height='90'> <img src='G_5.jpg' height='90'>","null","Learning example 0",""
"","","","","","html-button-response","84","1706368","0.0-30.0","34","1","2025-02-02 04:07:06","bc01a2b6f61d06f6604adb8657495020","223.29.140.155","Mozilla/5.0 (Windows NT 10.0; Win64; x64) AppleWebKit/537.36 (KHTML, like Gecko) Chrome/129.0.0.0 Safari/537.36","WebKit","Chrome","129.0.0.0","Windows","10.0","https://app.prolific.com/","en,en-US;q=0.9;q=0.9","677118ea07815f27b6073ccd","679edb085803f58d6bbd31ca","679eed734d1f034397408f24","","null","<img  src='G_7.jpg' height='90'> <img id='selected'  src='G_1.jpg' height='90'> <img src='G_9.jpg' height='90'> <img src='G_3.jpg' height='90'> <img src='G_5.jpg' height='90'>","null","Learning example 0",""
"","","","","","html-button-response","85","1706673","0.0-31.0","34","1","2025-02-02 04:07:06","bc01a2b6f61d06f6604adb8657495020","223.29.140.155","Mozilla/5.0 (Windows NT 10.0; Win64; x64) AppleWebKit/537.36 (KHTML, like Gecko) Chrome/129.0.0.0 Safari/537.36","WebKit","Chrome","129.0.0.0","Windows","10.0","https://app.prolific.com/","en,en-US;q=0.9;q=0.9","677118ea07815f27b6073ccd","679edb085803f58d6bbd31ca","679eed734d1f034397408f24","","null","<img  src='G_7.jpg' height='90'> <img id='selected'  src='G_1.jpg' height='90'> <img id='selected' src='G_9.jpg' height='90'> <img src='G_3.jpg' height='90'> <img src='G_5.jpg' height='90'>","null","Learning example 0",""
"","","","","","html-button-response","86","1706980","0.0-32.0","34","1","2025-02-02 04:07:06","bc01a2b6f61d06f6604adb8657495020","223.29.140.155","Mozilla/5.0 (Windows NT 10.0; Win64; x64) AppleWebKit/537.36 (KHTML, like Gecko) Chrome/129.0.0.0 Safari/537.36","WebKit","Chrome","129.0.0.0","Windows","10.0","https://app.prolific.com/","en,en-US;q=0.9;q=0.9","677118ea07815f27b6073ccd","679edb085803f58d6bbd31ca","679eed734d1f034397408f24","","null","<img  src='G_7.jpg' height='90'> <img id='selected'  src='G_1.jpg' height='90'> <img id='selected' src='G_9.jpg' height='90'> <img src='G_3.jpg' height='90'> <img src='G_5.jpg' height='90'>","null","Learning example 0",""
"","","","","","html-button-response","87","1716454","0.0-33.0-0.0-0.0","34","1","2025-02-02 04:07:06","bc01a2b6f61d06f6604adb8657495020","223.29.140.155","Mozilla/5.0 (Windows NT 10.0; Win64; x64) AppleWebKit/537.36 (KHTML, like Gecko) Chrome/129.0.0.0 Safari/537.36","WebKit","Chrome","129.0.0.0","Windows","10.0","https://app.prolific.com/","en,en-US;q=0.9;q=0.9","677118ea07815f27b6073ccd","679edb085803f58d6bbd31ca","679eed734d1f034397408f24","","9467","<img  src='G_7.jpg' height='90'> <img id='selected'  src='G_1.jpg' height='90'> <img id='selected' src='G_9.jpg' height='90'> <img src='G_3.jpg' height='90'> <img src='G_5.jpg' height='90'>","2","Learning example 0",""
"","","","","","html-button-response","88","1716965","0.0-33.1-0.1-0.1","34","1","2025-02-02 04:07:06","bc01a2b6f61d06f6604adb8657495020","223.29.140.155","Mozilla/5.0 (Windows NT 10.0; Win64; x64) AppleWebKit/537.36 (KHTML, like Gecko) Chrome/129.0.0.0 Safari/537.36","WebKit","Chrome","129.0.0.0","Windows","10.0","https://app.prolific.com/","en,en-US;q=0.9;q=0.9","677118ea07815f27b6073ccd","679edb085803f58d6bbd31ca","679eed734d1f034397408f24","","508","<img  src='G_7.jpg' height='90'> <img id='selected'  src='G_1.jpg' height='90'> <img id='selected' src='G_9.jpg' height='90'> <img src='G_3.jpg' height='90'> <img src='G_5.jpg' height='90'>","1","Learning example 0",""
"","","","","","html-button-response","89","1717182","0.0-34.0","34","1","2025-02-02 04:07:06","bc01a2b6f61d06f6604adb8657495020","223.29.140.155","Mozilla/5.0 (Windows NT 10.0; Win64; x64) AppleWebKit/537.36 (KHTML, like Gecko) Chrome/129.0.0.0 Safari/537.36","WebKit","Chrome","129.0.0.0","Windows","10.0","https://app.prolific.com/","en,en-US;q=0.9;q=0.9","677118ea07815f27b6073ccd","679edb085803f58d6bbd31ca","679eed734d1f034397408f24","","null","<img  src='G_7.jpg' height='90'> <img   src='G_1.jpg' height='90'> <img  src='G_9.jpg' height='90'> <img src='G_3.jpg' height='90'> <img src='G_5.jpg' height='90'>","null","Learning example 0",""
"","","","","","html-button-response","90","1717590","0.0-35.0","34","1","2025-02-02 04:07:06","bc01a2b6f61d06f6604adb8657495020","223.29.140.155","Mozilla/5.0 (Windows NT 10.0; Win64; x64) AppleWebKit/537.36 (KHTML, like Gecko) Chrome/129.0.0.0 Safari/537.36","WebKit","Chrome","129.0.0.0","Windows","10.0","https://app.prolific.com/","en,en-US;q=0.9;q=0.9","677118ea07815f27b6073ccd","679edb085803f58d6bbd31ca","679eed734d1f034397408f24","","null","<img  src='G_7.jpg' height='90'> <img   src='G_1.jpg' height='90'> <img id='selected'  src='G_9.jpg' height='90'> <img src='G_3.jpg' height='90'> <img src='G_5.jpg' height='90'>","null","Learning example 0",""
"","","","","","html-button-response","91","1717898","0.0-36.0","34","1","2025-02-02 04:07:06","bc01a2b6f61d06f6604adb8657495020","223.29.140.155","Mozilla/5.0 (Windows NT 10.0; Win64; x64) AppleWebKit/537.36 (KHTML, like Gecko) Chrome/129.0.0.0 Safari/537.36","WebKit","Chrome","129.0.0.0","Windows","10.0","https://app.prolific.com/","en,en-US;q=0.9;q=0.9","677118ea07815f27b6073ccd","679edb085803f58d6bbd31ca","679eed734d1f034397408f24","","null","<img  src='G_7.jpg' height='90'> <img   src='G_1.jpg' height='90'> <img id='selected'  src='G_9.jpg' height='90'> <img id='selected' src='G_3.jpg' height='90'> <img src='G_5.jpg' height='90'>","null","Learning example 0",""
"","","","","","html-button-response","92","1718208","0.0-37.0","34","1","2025-02-02 04:07:06","bc01a2b6f61d06f6604adb8657495020","223.29.140.155","Mozilla/5.0 (Windows NT 10.0; Win64; x64) AppleWebKit/537.36 (KHTML, like Gecko) Chrome/129.0.0.0 Safari/537.36","WebKit","Chrome","129.0.0.0","Windows","10.0","https://app.prolific.com/","en,en-US;q=0.9;q=0.9","677118ea07815f27b6073ccd","679edb085803f58d6bbd31ca","679eed734d1f034397408f24","","null","<img  src='G_7.jpg' height='90'> <img   src='G_1.jpg' height='90'> <img id='selected'  src='G_9.jpg' height='90'> <img id='selected' src='G_3.jpg' height='90'> <img src='G_5.jpg' height='90'>","null","Learning example 0",""
"","","","","","html-button-response","93","1719157","0.0-38.0-0.0-0.0","34","1","2025-02-02 04:07:06","bc01a2b6f61d06f6604adb8657495020","223.29.140.155","Mozilla/5.0 (Windows NT 10.0; Win64; x64) AppleWebKit/537.36 (KHTML, like Gecko) Chrome/129.0.0.0 Safari/537.36","WebKit","Chrome","129.0.0.0","Windows","10.0","https://app.prolific.com/","en,en-US;q=0.9;q=0.9","677118ea07815f27b6073ccd","679edb085803f58d6bbd31ca","679eed734d1f034397408f24","","941","<img  src='G_7.jpg' height='90'> <img   src='G_1.jpg' height='90'> <img id='selected'  src='G_9.jpg' height='90'> <img id='selected' src='G_3.jpg' height='90'> <img src='G_5.jpg' height='90'>","1","Learning example 0",""
"","","","","","html-button-response","94","1719761","0.0-38.1-0.1-0.1","34","1","2025-02-02 04:07:06","bc01a2b6f61d06f6604adb8657495020","223.29.140.155","Mozilla/5.0 (Windows NT 10.0; Win64; x64) AppleWebKit/537.36 (KHTML, like Gecko) Chrome/129.0.0.0 Safari/537.36","WebKit","Chrome","129.0.0.0","Windows","10.0","https://app.prolific.com/","en,en-US;q=0.9;q=0.9","677118ea07815f27b6073ccd","679edb085803f58d6bbd31ca","679eed734d1f034397408f24","","600","<img  src='G_7.jpg' height='90'> <img   src='G_1.jpg' height='90'> <img id='selected'  src='G_9.jpg' height='90'> <img id='selected' src='G_3.jpg' height='90'> <img src='G_5.jpg' height='90'>","2","Learning example 0",""
"","","","","","html-button-response","95","1724757","0.0-38.2-0.2-0.2","34","1","2025-02-02 04:07:06","bc01a2b6f61d06f6604adb8657495020","223.29.140.155","Mozilla/5.0 (Windows NT 10.0; Win64; x64) AppleWebKit/537.36 (KHTML, like Gecko) Chrome/129.0.0.0 Safari/537.36","WebKit","Chrome","129.0.0.0","Windows","10.0","https://app.prolific.com/","en,en-US;q=0.9;q=0.9","677118ea07815f27b6073ccd","679edb085803f58d6bbd31ca","679eed734d1f034397408f24","","4993","<img  src='G_7.jpg' height='90'> <img   src='G_1.jpg' height='90'> <img id='selected'  src='G_9.jpg' height='90'> <img id='selected' src='G_3.jpg' height='90'> <img src='G_5.jpg' height='90'>","3","Learning example 0",""
"","","","","","html-button-response","96","1724964","0.0-39.0","34","1","2025-02-02 04:07:06","bc01a2b6f61d06f6604adb8657495020","223.29.140.155","Mozilla/5.0 (Windows NT 10.0; Win64; x64) AppleWebKit/537.36 (KHTML, like Gecko) Chrome/129.0.0.0 Safari/537.36","WebKit","Chrome","129.0.0.0","Windows","10.0","https://app.prolific.com/","en,en-US;q=0.9;q=0.9","677118ea07815f27b6073ccd","679edb085803f58d6bbd31ca","679eed734d1f034397408f24","","null","<img  src='G_7.jpg' height='90'> <img   src='G_1.jpg' height='90'> <img   src='G_9.jpg' height='90'> <img  src='G_3.jpg' height='90'> <img src='G_5.jpg' height='90'>","null","Learning example 0",""
"","","","","","html-button-response","97","1725203","0.0-40.0","34","1","2025-02-02 04:07:06","bc01a2b6f61d06f6604adb8657495020","223.29.140.155","Mozilla/5.0 (Windows NT 10.0; Win64; x64) AppleWebKit/537.36 (KHTML, like Gecko) Chrome/129.0.0.0 Safari/537.36","WebKit","Chrome","129.0.0.0","Windows","10.0","https://app.prolific.com/","en,en-US;q=0.9;q=0.9","677118ea07815f27b6073ccd","679edb085803f58d6bbd31ca","679eed734d1f034397408f24","","232","<img  src='G_7.jpg' height='90'> <img   src='G_1.jpg' height='90'> <img   src='G_9.jpg' height='90'> <img id='selected'  src='G_3.jpg' height='90'> <img src='G_5.jpg' height='90'>","2","Learning example 0",""
"","","","","","html-button-response","98","1725506","0.0-41.0","34","1","2025-02-02 04:07:06","bc01a2b6f61d06f6604adb8657495020","223.29.140.155","Mozilla/5.0 (Windows NT 10.0; Win64; x64) AppleWebKit/537.36 (KHTML, like Gecko) Chrome/129.0.0.0 Safari/537.36","WebKit","Chrome","129.0.0.0","Windows","10.0","https://app.prolific.com/","en,en-US;q=0.9;q=0.9","677118ea07815f27b6073ccd","679edb085803f58d6bbd31ca","679eed734d1f034397408f24","","null","<img  src='G_7.jpg' height='90'> <img   src='G_1.jpg' height='90'> <img   src='G_9.jpg' height='90'> <img id='selected'  src='G_3.jpg' height='90'> <img id='selected' src='G_5.jpg' height='90'>","null","Learning example 0",""
"","","","","","html-button-response","99","1725815","0.0-42.0","34","1","2025-02-02 04:07:06","bc01a2b6f61d06f6604adb8657495020","223.29.140.155","Mozilla/5.0 (Windows NT 10.0; Win64; x64) AppleWebKit/537.36 (KHTML, like Gecko) Chrome/129.0.0.0 Safari/537.36","WebKit","Chrome","129.0.0.0","Windows","10.0","https://app.prolific.com/","en,en-US;q=0.9;q=0.9","677118ea07815f27b6073ccd","679edb085803f58d6bbd31ca","679eed734d1f034397408f24","","null","<img  src='G_7.jpg' height='90'> <img   src='G_1.jpg' height='90'> <img   src='G_9.jpg' height='90'> <img id='selected'  src='G_3.jpg' height='90'> <img id='selected' src='G_5.jpg' height='90'>","null","Learning example 0",""
"","","","","","html-button-response","100","1727135","0.0-43.0-0.0-0.0","34","1","2025-02-02 04:07:06","bc01a2b6f61d06f6604adb8657495020","223.29.140.155","Mozilla/5.0 (Windows NT 10.0; Win64; x64) AppleWebKit/537.36 (KHTML, like Gecko) Chrome/129.0.0.0 Safari/537.36","WebKit","Chrome","129.0.0.0","Windows","10.0","https://app.prolific.com/","en,en-US;q=0.9;q=0.9","677118ea07815f27b6073ccd","679edb085803f58d6bbd31ca","679eed734d1f034397408f24","","1307","<img  src='G_7.jpg' height='90'> <img   src='G_1.jpg' height='90'> <img   src='G_9.jpg' height='90'> <img id='selected'  src='G_3.jpg' height='90'> <img id='selected' src='G_5.jpg' height='90'>","4","Learning example 0",""
"","","","","","html-button-response","101","1727537","0.0-43.1-0.1-0.1","34","1","2025-02-02 04:07:06","bc01a2b6f61d06f6604adb8657495020","223.29.140.155","Mozilla/5.0 (Windows NT 10.0; Win64; x64) AppleWebKit/537.36 (KHTML, like Gecko) Chrome/129.0.0.0 Safari/537.36","WebKit","Chrome","129.0.0.0","Windows","10.0","https://app.prolific.com/","en,en-US;q=0.9;q=0.9","677118ea07815f27b6073ccd","679edb085803f58d6bbd31ca","679eed734d1f034397408f24","","399","<img  src='G_7.jpg' height='90'> <img   src='G_1.jpg' height='90'> <img   src='G_9.jpg' height='90'> <img id='selected'  src='G_3.jpg' height='90'> <img id='selected' src='G_5.jpg' height='90'>","3","Learning example 0",""
"","","","","","html-button-response","102","1727742","0.0-44.0","34","1","2025-02-02 04:07:06","bc01a2b6f61d06f6604adb8657495020","223.29.140.155","Mozilla/5.0 (Windows NT 10.0; Win64; x64) AppleWebKit/537.36 (KHTML, like Gecko) Chrome/129.0.0.0 Safari/537.36","WebKit","Chrome","129.0.0.0","Windows","10.0","https://app.prolific.com/","en,en-US;q=0.9;q=0.9","677118ea07815f27b6073ccd","679edb085803f58d6bbd31ca","679eed734d1f034397408f24","","null","<img  src='G_7.jpg' height='90'> <img   src='G_1.jpg' height='90'> <img   src='G_9.jpg' height='90'> <img   src='G_3.jpg' height='90'> <img  src='G_5.jpg' height='90'>","null","Learning example 0",""
"","","","","","html-keyboard-response","103","1738841","0.0-45.0","34","1","2025-02-02 04:07:06","bc01a2b6f61d06f6604adb8657495020","223.29.140.155","Mozilla/5.0 (Windows NT 10.0; Win64; x64) AppleWebKit/537.36 (KHTML, like Gecko) Chrome/129.0.0.0 Safari/537.36","WebKit","Chrome","129.0.0.0","Windows","10.0","https://app.prolific.com/","en,en-US;q=0.9;q=0.9","677118ea07815f27b6073ccd","679edb085803f58d6bbd31ca","679eed734d1f034397408f24","","11093","[""Final order was 1,2,3,4,5. The initial order was 2,1,3,4,5.<br>It took 1 swaps to sort it correctly with Omgne Sort. <br><br>Press Enter to continue.""]","enter","",""
"","","","","","html-keyboard-response","104","1742781","0.0-46.0","34","1","2025-02-02 04:07:06","bc01a2b6f61d06f6604adb8657495020","223.29.140.155","Mozilla/5.0 (Windows NT 10.0; Win64; x64) AppleWebKit/537.36 (KHTML, like Gecko) Chrome/129.0.0.0 Safari/537.36","WebKit","Chrome","129.0.0.0","Windows","10.0","https://app.prolific.com/","en,en-US;q=0.9;q=0.9","677118ea07815f27b6073ccd","679edb085803f58d6bbd31ca","679eed734d1f034397408f24","","3937","[""Example 2<br><br>You will watch Omnge Sort in action. Try to identify any patterns in the comparisons made by this method. <br><br>Press Enter to continue.""]","enter","",""
"","","","","","html-keyboard-response","105","1743296","0.0-47.0","34","1","2025-02-02 04:07:06","bc01a2b6f61d06f6604adb8657495020","223.29.140.155","Mozilla/5.0 (Windows NT 10.0; Win64; x64) AppleWebKit/537.36 (KHTML, like Gecko) Chrome/129.0.0.0 Safari/537.36","WebKit","Chrome","129.0.0.0","Windows","10.0","https://app.prolific.com/","en,en-US;q=0.9;q=0.9","677118ea07815f27b6073ccd","679edb085803f58d6bbd31ca","679eed734d1f034397408f24","","null","<img id='selected' src='G_5.jpg' height='90'> <img src='G_8.jpg' height='90'> <img src='G_7.jpg' height='90'> <img src='G_3.jpg' height='90'> <img src='G_1.jpg' height='90'> <img src='G_4.jpg' height='90'> <img src='G_2.jpg' height='90'> <img src='G_6.jpg' height='90'>","null","Animation1",""
"","","","","","html-keyboard-response","106","1743805","0.0-48.0","34","1","2025-02-02 04:07:06","bc01a2b6f61d06f6604adb8657495020","223.29.140.155","Mozilla/5.0 (Windows NT 10.0; Win64; x64) AppleWebKit/537.36 (KHTML, like Gecko) Chrome/129.0.0.0 Safari/537.36","WebKit","Chrome","129.0.0.0","Windows","10.0","https://app.prolific.com/","en,en-US;q=0.9;q=0.9","677118ea07815f27b6073ccd","679edb085803f58d6bbd31ca","679eed734d1f034397408f24","","null","<img id='selected' src='G_5.jpg' height='90'> <img id='selected' src='G_8.jpg' height='90'> <img src='G_7.jpg' height='90'> <img src='G_3.jpg' height='90'> <img src='G_1.jpg' height='90'> <img src='G_4.jpg' height='90'> <img src='G_2.jpg' height='90'> <img src='G_6.jpg' height='90'>","null","Animation1",""
"","","","","","html-keyboard-response","107","1744314","0.0-49.0","34","1","2025-02-02 04:07:06","bc01a2b6f61d06f6604adb8657495020","223.29.140.155","Mozilla/5.0 (Windows NT 10.0; Win64; x64) AppleWebKit/537.36 (KHTML, like Gecko) Chrome/129.0.0.0 Safari/537.36","WebKit","Chrome","129.0.0.0","Windows","10.0","https://app.prolific.com/","en,en-US;q=0.9;q=0.9","677118ea07815f27b6073ccd","679edb085803f58d6bbd31ca","679eed734d1f034397408f24","","null","<img id='selected' src='G_5.jpg' height='90'> <img id='selected' src='G_8.jpg' height='90'> <img src='G_7.jpg' height='90'> <img src='G_3.jpg' height='90'> <img src='G_1.jpg' height='90'> <img src='G_4.jpg' height='90'> <img src='G_2.jpg' height='90'> <img src='G_6.jpg' height='90'>","null","Animation1",""
"","","","","","html-keyboard-response","108","1744623","0.0-50.0","34","1","2025-02-02 04:07:06","bc01a2b6f61d06f6604adb8657495020","223.29.140.155","Mozilla/5.0 (Windows NT 10.0; Win64; x64) AppleWebKit/537.36 (KHTML, like Gecko) Chrome/129.0.0.0 Safari/537.36","WebKit","Chrome","129.0.0.0","Windows","10.0","https://app.prolific.com/","en,en-US;q=0.9;q=0.9","677118ea07815f27b6073ccd","679edb085803f58d6bbd31ca","679eed734d1f034397408f24","","null","<img  src='G_5.jpg' height='90'> <img  src='G_8.jpg' height='90'> <img src='G_7.jpg' height='90'> <img src='G_3.jpg' height='90'> <img src='G_1.jpg' height='90'> <img src='G_4.jpg' height='90'> <img src='G_2.jpg' height='90'> <img src='G_6.jpg' height='90'>","null","Animation1",""
"","","","","","html-keyboard-response","109","1745135","0.0-51.0","34","1","2025-02-02 04:07:06","bc01a2b6f61d06f6604adb8657495020","223.29.140.155","Mozilla/5.0 (Windows NT 10.0; Win64; x64) AppleWebKit/537.36 (KHTML, like Gecko) Chrome/129.0.0.0 Safari/537.36","WebKit","Chrome","129.0.0.0","Windows","10.0","https://app.prolific.com/","en,en-US;q=0.9;q=0.9","677118ea07815f27b6073ccd","679edb085803f58d6bbd31ca","679eed734d1f034397408f24","","null","<img  src='G_5.jpg' height='90'> <img id='selected'  src='G_8.jpg' height='90'> <img src='G_7.jpg' height='90'> <img src='G_3.jpg' height='90'> <img src='G_1.jpg' height='90'> <img src='G_4.jpg' height='90'> <img src='G_2.jpg' height='90'> <img src='G_6.jpg' height='90'>","null","Animation1",""
"","","","","","html-keyboard-response","110","1745643","0.0-52.0","34","1","2025-02-02 04:07:06","bc01a2b6f61d06f6604adb8657495020","223.29.140.155","Mozilla/5.0 (Windows NT 10.0; Win64; x64) AppleWebKit/537.36 (KHTML, like Gecko) Chrome/129.0.0.0 Safari/537.36","WebKit","Chrome","129.0.0.0","Windows","10.0","https://app.prolific.com/","en,en-US;q=0.9;q=0.9","677118ea07815f27b6073ccd","679edb085803f58d6bbd31ca","679eed734d1f034397408f24","","null","<img  src='G_5.jpg' height='90'> <img id='selected'  src='G_8.jpg' height='90'> <img id='selected' src='G_7.jpg' height='90'> <img src='G_3.jpg' height='90'> <img src='G_1.jpg' height='90'> <img src='G_4.jpg' height='90'> <img src='G_2.jpg' height='90'> <img src='G_6.jpg' height='90'>","null","Animation1",""
"","","","","","html-keyboard-response","111","1746153","0.0-53.0","34","1","2025-02-02 04:07:06","bc01a2b6f61d06f6604adb8657495020","223.29.140.155","Mozilla/5.0 (Windows NT 10.0; Win64; x64) AppleWebKit/537.36 (KHTML, like Gecko) Chrome/129.0.0.0 Safari/537.36","WebKit","Chrome","129.0.0.0","Windows","10.0","https://app.prolific.com/","en,en-US;q=0.9;q=0.9","677118ea07815f27b6073ccd","679edb085803f58d6bbd31ca","679eed734d1f034397408f24","","null","<img  src='G_5.jpg' height='90'> <img id='swapped' src='G_7.jpg' height='90'> <img id='swapped'  src='G_8.jpg' height='90'> <img src='G_3.jpg' height='90'> <img src='G_1.jpg' height='90'> <img src='G_4.jpg' height='90'> <img src='G_2.jpg' height='90'> <img src='G_6.jpg' height='90'>","null","Animation1",""
"","","","","","html-keyboard-response","112","1746461","0.0-54.0","34","1","2025-02-02 04:07:06","bc01a2b6f61d06f6604adb8657495020","223.29.140.155","Mozilla/5.0 (Windows NT 10.0; Win64; x64) AppleWebKit/537.36 (KHTML, like Gecko) Chrome/129.0.0.0 Safari/537.36","WebKit","Chrome","129.0.0.0","Windows","10.0","https://app.prolific.com/","en,en-US;q=0.9;q=0.9","677118ea07815f27b6073ccd","679edb085803f58d6bbd31ca","679eed734d1f034397408f24","","null","<img  src='G_5.jpg' height='90'> <img  src='G_7.jpg' height='90'> <img   src='G_8.jpg' height='90'> <img src='G_3.jpg' height='90'> <img src='G_1.jpg' height='90'> <img src='G_4.jpg' height='90'> <img src='G_2.jpg' height='90'> <img src='G_6.jpg' height='90'>","null","Animation1",""
"","","","","","html-keyboard-response","113","1746969","0.0-55.0","34","1","2025-02-02 04:07:06","bc01a2b6f61d06f6604adb8657495020","223.29.140.155","Mozilla/5.0 (Windows NT 10.0; Win64; x64) AppleWebKit/537.36 (KHTML, like Gecko) Chrome/129.0.0.0 Safari/537.36","WebKit","Chrome","129.0.0.0","Windows","10.0","https://app.prolific.com/","en,en-US;q=0.9;q=0.9","677118ea07815f27b6073ccd","679edb085803f58d6bbd31ca","679eed734d1f034397408f24","","null","<img id='selected'  src='G_5.jpg' height='90'> <img  src='G_7.jpg' height='90'> <img   src='G_8.jpg' height='90'> <img src='G_3.jpg' height='90'> <img src='G_1.jpg' height='90'> <img src='G_4.jpg' height='90'> <img src='G_2.jpg' height='90'> <img src='G_6.jpg' height='90'>","null","Animation1",""
"","","","","","html-keyboard-response","114","1747477","0.0-56.0","34","1","2025-02-02 04:07:06","bc01a2b6f61d06f6604adb8657495020","223.29.140.155","Mozilla/5.0 (Windows NT 10.0; Win64; x64) AppleWebKit/537.36 (KHTML, like Gecko) Chrome/129.0.0.0 Safari/537.36","WebKit","Chrome","129.0.0.0","Windows","10.0","https://app.prolific.com/","en,en-US;q=0.9;q=0.9","677118ea07815f27b6073ccd","679edb085803f58d6bbd31ca","679eed734d1f034397408f24","","null","<img id='selected'  src='G_5.jpg' height='90'> <img id='selected'  src='G_7.jpg' height='90'> <img   src='G_8.jpg' height='90'> <img src='G_3.jpg' height='90'> <img src='G_1.jpg' height='90'> <img src='G_4.jpg' height='90'> <img src='G_2.jpg' height='90'> <img src='G_6.jpg' height='90'>","null","Animation1",""
"","","","","","html-keyboard-response","115","1747986","0.0-57.0","34","1","2025-02-02 04:07:06","bc01a2b6f61d06f6604adb8657495020","223.29.140.155","Mozilla/5.0 (Windows NT 10.0; Win64; x64) AppleWebKit/537.36 (KHTML, like Gecko) Chrome/129.0.0.0 Safari/537.36","WebKit","Chrome","129.0.0.0","Windows","10.0","https://app.prolific.com/","en,en-US;q=0.9;q=0.9","677118ea07815f27b6073ccd","679edb085803f58d6bbd31ca","679eed734d1f034397408f24","","null","<img id='swapped'  src='G_7.jpg' height='90'> <img id='swapped'  src='G_5.jpg' height='90'> <img   src='G_8.jpg' height='90'> <img src='G_3.jpg' height='90'> <img src='G_1.jpg' height='90'> <img src='G_4.jpg' height='90'> <img src='G_2.jpg' height='90'> <img src='G_6.jpg' height='90'>","null","Animation1",""
"","","","","","html-keyboard-response","116","1748294","0.0-58.0","34","1","2025-02-02 04:07:06","bc01a2b6f61d06f6604adb8657495020","223.29.140.155","Mozilla/5.0 (Windows NT 10.0; Win64; x64) AppleWebKit/537.36 (KHTML, like Gecko) Chrome/129.0.0.0 Safari/537.36","WebKit","Chrome","129.0.0.0","Windows","10.0","https://app.prolific.com/","en,en-US;q=0.9;q=0.9","677118ea07815f27b6073ccd","679edb085803f58d6bbd31ca","679eed734d1f034397408f24","","null","<img   src='G_7.jpg' height='90'> <img   src='G_5.jpg' height='90'> <img   src='G_8.jpg' height='90'> <img src='G_3.jpg' height='90'> <img src='G_1.jpg' height='90'> <img src='G_4.jpg' height='90'> <img src='G_2.jpg' height='90'> <img src='G_6.jpg' height='90'>","null","Animation1",""
"","","","","","html-keyboard-response","117","1748803","0.0-59.0","34","1","2025-02-02 04:07:06","bc01a2b6f61d06f6604adb8657495020","223.29.140.155","Mozilla/5.0 (Windows NT 10.0; Win64; x64) AppleWebKit/537.36 (KHTML, like Gecko) Chrome/129.0.0.0 Safari/537.36","WebKit","Chrome","129.0.0.0","Windows","10.0","https://app.prolific.com/","en,en-US;q=0.9;q=0.9","677118ea07815f27b6073ccd","679edb085803f58d6bbd31ca","679eed734d1f034397408f24","","null","<img   src='G_7.jpg' height='90'> <img   src='G_5.jpg' height='90'> <img id='selected'   src='G_8.jpg' height='90'> <img src='G_3.jpg' height='90'> <img src='G_1.jpg' height='90'> <img src='G_4.jpg' height='90'> <img src='G_2.jpg' height='90'> <img src='G_6.jpg' height='90'>","null","Animation1",""
"","","","","","html-keyboard-response","118","1749311","0.0-60.0","34","1","2025-02-02 04:07:06","bc01a2b6f61d06f6604adb8657495020","223.29.140.155","Mozilla/5.0 (Windows NT 10.0; Win64; x64) AppleWebKit/537.36 (KHTML, like Gecko) Chrome/129.0.0.0 Safari/537.36","WebKit","Chrome","129.0.0.0","Windows","10.0","https://app.prolific.com/","en,en-US;q=0.9;q=0.9","677118ea07815f27b6073ccd","679edb085803f58d6bbd31ca","679eed734d1f034397408f24","","null","<img   src='G_7.jpg' height='90'> <img   src='G_5.jpg' height='90'> <img id='selected'   src='G_8.jpg' height='90'> <img id='selected' src='G_3.jpg' height='90'> <img src='G_1.jpg' height='90'> <img src='G_4.jpg' height='90'> <img src='G_2.jpg' height='90'> <img src='G_6.jpg' height='90'>","null","Animation1",""
"","","","","","html-keyboard-response","119","1749821","0.0-61.0","34","1","2025-02-02 04:07:06","bc01a2b6f61d06f6604adb8657495020","223.29.140.155","Mozilla/5.0 (Windows NT 10.0; Win64; x64) AppleWebKit/537.36 (KHTML, like Gecko) Chrome/129.0.0.0 Safari/537.36","WebKit","Chrome","129.0.0.0","Windows","10.0","https://app.prolific.com/","en,en-US;q=0.9;q=0.9","677118ea07815f27b6073ccd","679edb085803f58d6bbd31ca","679eed734d1f034397408f24","","null","<img   src='G_7.jpg' height='90'> <img   src='G_5.jpg' height='90'> <img id='swapped' src='G_3.jpg' height='90'> <img id='swapped'   src='G_8.jpg' height='90'> <img src='G_1.jpg' height='90'> <img src='G_4.jpg' height='90'> <img src='G_2.jpg' height='90'> <img src='G_6.jpg' height='90'>","null","Animation1",""
"","","","","","html-keyboard-response","120","1750125","0.0-62.0","34","1","2025-02-02 04:07:06","bc01a2b6f61d06f6604adb8657495020","223.29.140.155","Mozilla/5.0 (Windows NT 10.0; Win64; x64) AppleWebKit/537.36 (KHTML, like Gecko) Chrome/129.0.0.0 Safari/537.36","WebKit","Chrome","129.0.0.0","Windows","10.0","https://app.prolific.com/","en,en-US;q=0.9;q=0.9","677118ea07815f27b6073ccd","679edb085803f58d6bbd31ca","679eed734d1f034397408f24","","null","<img   src='G_7.jpg' height='90'> <img   src='G_5.jpg' height='90'> <img  src='G_3.jpg' height='90'> <img    src='G_8.jpg' height='90'> <img src='G_1.jpg' height='90'> <img src='G_4.jpg' height='90'> <img src='G_2.jpg' height='90'> <img src='G_6.jpg' height='90'>","null","Animation1",""
"","","","","","html-keyboard-response","121","1750634","0.0-63.0","34","1","2025-02-02 04:07:06","bc01a2b6f61d06f6604adb8657495020","223.29.140.155","Mozilla/5.0 (Windows NT 10.0; Win64; x64) AppleWebKit/537.36 (KHTML, like Gecko) Chrome/129.0.0.0 Safari/537.36","WebKit","Chrome","129.0.0.0","Windows","10.0","https://app.prolific.com/","en,en-US;q=0.9;q=0.9","677118ea07815f27b6073ccd","679edb085803f58d6bbd31ca","679eed734d1f034397408f24","","null","<img   src='G_7.jpg' height='90'> <img id='selected'   src='G_5.jpg' height='90'> <img  src='G_3.jpg' height='90'> <img    src='G_8.jpg' height='90'> <img src='G_1.jpg' height='90'> <img src='G_4.jpg' height='90'> <img src='G_2.jpg' height='90'> <img src='G_6.jpg' height='90'>","null","Animation1",""
"","","","","","html-keyboard-response","122","1751142","0.0-64.0","34","1","2025-02-02 04:07:06","bc01a2b6f61d06f6604adb8657495020","223.29.140.155","Mozilla/5.0 (Windows NT 10.0; Win64; x64) AppleWebKit/537.36 (KHTML, like Gecko) Chrome/129.0.0.0 Safari/537.36","WebKit","Chrome","129.0.0.0","Windows","10.0","https://app.prolific.com/","en,en-US;q=0.9;q=0.9","677118ea07815f27b6073ccd","679edb085803f58d6bbd31ca","679eed734d1f034397408f24","","null","<img   src='G_7.jpg' height='90'> <img id='selected'   src='G_5.jpg' height='90'> <img id='selected'  src='G_3.jpg' height='90'> <img    src='G_8.jpg' height='90'> <img src='G_1.jpg' height='90'> <img src='G_4.jpg' height='90'> <img src='G_2.jpg' height='90'> <img src='G_6.jpg' height='90'>","null","Animation1",""
"","","","","","html-keyboard-response","123","1751648","0.0-65.0","34","1","2025-02-02 04:07:06","bc01a2b6f61d06f6604adb8657495020","223.29.140.155","Mozilla/5.0 (Windows NT 10.0; Win64; x64) AppleWebKit/537.36 (KHTML, like Gecko) Chrome/129.0.0.0 Safari/537.36","WebKit","Chrome","129.0.0.0","Windows","10.0","https://app.prolific.com/","en,en-US;q=0.9;q=0.9","677118ea07815f27b6073ccd","679edb085803f58d6bbd31ca","679eed734d1f034397408f24","","null","<img   src='G_7.jpg' height='90'> <img id='swapped'  src='G_3.jpg' height='90'> <img id='swapped'   src='G_5.jpg' height='90'> <img    src='G_8.jpg' height='90'> <img src='G_1.jpg' height='90'> <img src='G_4.jpg' height='90'> <img src='G_2.jpg' height='90'> <img src='G_6.jpg' height='90'>","null","Animation1",""
"","","","","","html-keyboard-response","124","1751958","0.0-66.0","34","1","2025-02-02 04:07:06","bc01a2b6f61d06f6604adb8657495020","223.29.140.155","Mozilla/5.0 (Windows NT 10.0; Win64; x64) AppleWebKit/537.36 (KHTML, like Gecko) Chrome/129.0.0.0 Safari/537.36","WebKit","Chrome","129.0.0.0","Windows","10.0","https://app.prolific.com/","en,en-US;q=0.9;q=0.9","677118ea07815f27b6073ccd","679edb085803f58d6bbd31ca","679eed734d1f034397408f24","","null","<img   src='G_7.jpg' height='90'> <img   src='G_3.jpg' height='90'> <img    src='G_5.jpg' height='90'> <img    src='G_8.jpg' height='90'> <img src='G_1.jpg' height='90'> <img src='G_4.jpg' height='90'> <img src='G_2.jpg' height='90'> <img src='G_6.jpg' height='90'>","null","Animation1",""
"","","","","","html-keyboard-response","125","1752468","0.0-67.0","34","1","2025-02-02 04:07:06","bc01a2b6f61d06f6604adb8657495020","223.29.140.155","Mozilla/5.0 (Windows NT 10.0; Win64; x64) AppleWebKit/537.36 (KHTML, like Gecko) Chrome/129.0.0.0 Safari/537.36","WebKit","Chrome","129.0.0.0","Windows","10.0","https://app.prolific.com/","en,en-US;q=0.9;q=0.9","677118ea07815f27b6073ccd","679edb085803f58d6bbd31ca","679eed734d1f034397408f24","","null","<img id='selected'   src='G_7.jpg' height='90'> <img   src='G_3.jpg' height='90'> <img    src='G_5.jpg' height='90'> <img    src='G_8.jpg' height='90'> <img src='G_1.jpg' height='90'> <img src='G_4.jpg' height='90'> <img src='G_2.jpg' height='90'> <img src='G_6.jpg' height='90'>","null","Animation1",""
"","","","","","html-keyboard-response","126","1752978","0.0-68.0","34","1","2025-02-02 04:07:06","bc01a2b6f61d06f6604adb8657495020","223.29.140.155","Mozilla/5.0 (Windows NT 10.0; Win64; x64) AppleWebKit/537.36 (KHTML, like Gecko) Chrome/129.0.0.0 Safari/537.36","WebKit","Chrome","129.0.0.0","Windows","10.0","https://app.prolific.com/","en,en-US;q=0.9;q=0.9","677118ea07815f27b6073ccd","679edb085803f58d6bbd31ca","679eed734d1f034397408f24","","null","<img id='selected'   src='G_7.jpg' height='90'> <img id='selected'   src='G_3.jpg' height='90'> <img    src='G_5.jpg' height='90'> <img    src='G_8.jpg' height='90'> <img src='G_1.jpg' height='90'> <img src='G_4.jpg' height='90'> <img src='G_2.jpg' height='90'> <img src='G_6.jpg' height='90'>","null","Animation1",""
"","","","","","html-keyboard-response","127","1753488","0.0-69.0","34","1","2025-02-02 04:07:06","bc01a2b6f61d06f6604adb8657495020","223.29.140.155","Mozilla/5.0 (Windows NT 10.0; Win64; x64) AppleWebKit/537.36 (KHTML, like Gecko) Chrome/129.0.0.0 Safari/537.36","WebKit","Chrome","129.0.0.0","Windows","10.0","https://app.prolific.com/","en,en-US;q=0.9;q=0.9","677118ea07815f27b6073ccd","679edb085803f58d6bbd31ca","679eed734d1f034397408f24","","null","<img id='swapped'   src='G_3.jpg' height='90'> <img id='swapped'   src='G_7.jpg' height='90'> <img    src='G_5.jpg' height='90'> <img    src='G_8.jpg' height='90'> <img src='G_1.jpg' height='90'> <img src='G_4.jpg' height='90'> <img src='G_2.jpg' height='90'> <img src='G_6.jpg' height='90'>","null","Animation1",""
"","","","","","html-keyboard-response","128","1753797","0.0-70.0","34","1","2025-02-02 04:07:06","bc01a2b6f61d06f6604adb8657495020","223.29.140.155","Mozilla/5.0 (Windows NT 10.0; Win64; x64) AppleWebKit/537.36 (KHTML, like Gecko) Chrome/129.0.0.0 Safari/537.36","WebKit","Chrome","129.0.0.0","Windows","10.0","https://app.prolific.com/","en,en-US;q=0.9;q=0.9","677118ea07815f27b6073ccd","679edb085803f58d6bbd31ca","679eed734d1f034397408f24","","null","<img    src='G_3.jpg' height='90'> <img    src='G_7.jpg' height='90'> <img    src='G_5.jpg' height='90'> <img    src='G_8.jpg' height='90'> <img src='G_1.jpg' height='90'> <img src='G_4.jpg' height='90'> <img src='G_2.jpg' height='90'> <img src='G_6.jpg' height='90'>","null","Animation1",""
"","","","","","html-keyboard-response","129","1754313","0.0-71.0","34","1","2025-02-02 04:07:06","bc01a2b6f61d06f6604adb8657495020","223.29.140.155","Mozilla/5.0 (Windows NT 10.0; Win64; x64) AppleWebKit/537.36 (KHTML, like Gecko) Chrome/129.0.0.0 Safari/537.36","WebKit","Chrome","129.0.0.0","Windows","10.0","https://app.prolific.com/","en,en-US;q=0.9;q=0.9","677118ea07815f27b6073ccd","679edb085803f58d6bbd31ca","679eed734d1f034397408f24","","null","<img    src='G_3.jpg' height='90'> <img    src='G_7.jpg' height='90'> <img    src='G_5.jpg' height='90'> <img id='selected'    src='G_8.jpg' height='90'> <img src='G_1.jpg' height='90'> <img src='G_4.jpg' height='90'> <img src='G_2.jpg' height='90'> <img src='G_6.jpg' height='90'>","null","Animation1",""
"","","","","","html-keyboard-response","130","1754821","0.0-72.0","34","1","2025-02-02 04:07:06","bc01a2b6f61d06f6604adb8657495020","223.29.140.155","Mozilla/5.0 (Windows NT 10.0; Win64; x64) AppleWebKit/537.36 (KHTML, like Gecko) Chrome/129.0.0.0 Safari/537.36","WebKit","Chrome","129.0.0.0","Windows","10.0","https://app.prolific.com/","en,en-US;q=0.9;q=0.9","677118ea07815f27b6073ccd","679edb085803f58d6bbd31ca","679eed734d1f034397408f24","","null","<img    src='G_3.jpg' height='90'> <img    src='G_7.jpg' height='90'> <img    src='G_5.jpg' height='90'> <img id='selected'    src='G_8.jpg' height='90'> <img id='selected' src='G_1.jpg' height='90'> <img src='G_4.jpg' height='90'> <img src='G_2.jpg' height='90'> <img src='G_6.jpg' height='90'>","null","Animation1",""
"","","","","","html-keyboard-response","131","1755332","0.0-73.0","34","1","2025-02-02 04:07:06","bc01a2b6f61d06f6604adb8657495020","223.29.140.155","Mozilla/5.0 (Windows NT 10.0; Win64; x64) AppleWebKit/537.36 (KHTML, like Gecko) Chrome/129.0.0.0 Safari/537.36","WebKit","Chrome","129.0.0.0","Windows","10.0","https://app.prolific.com/","en,en-US;q=0.9;q=0.9","677118ea07815f27b6073ccd","679edb085803f58d6bbd31ca","679eed734d1f034397408f24","","null","<img    src='G_3.jpg' height='90'> <img    src='G_7.jpg' height='90'> <img    src='G_5.jpg' height='90'> <img id='swapped' src='G_1.jpg' height='90'> <img id='swapped'    src='G_8.jpg' height='90'> <img src='G_4.jpg' height='90'> <img src='G_2.jpg' height='90'> <img src='G_6.jpg' height='90'>","null","Animation1",""
"","","","","","html-keyboard-response","132","1755640","0.0-74.0","34","1","2025-02-02 04:07:06","bc01a2b6f61d06f6604adb8657495020","223.29.140.155","Mozilla/5.0 (Windows NT 10.0; Win64; x64) AppleWebKit/537.36 (KHTML, like Gecko) Chrome/129.0.0.0 Safari/537.36","WebKit","Chrome","129.0.0.0","Windows","10.0","https://app.prolific.com/","en,en-US;q=0.9;q=0.9","677118ea07815f27b6073ccd","679edb085803f58d6bbd31ca","679eed734d1f034397408f24","","null","<img    src='G_3.jpg' height='90'> <img    src='G_7.jpg' height='90'> <img    src='G_5.jpg' height='90'> <img  src='G_1.jpg' height='90'> <img     src='G_8.jpg' height='90'> <img src='G_4.jpg' height='90'> <img src='G_2.jpg' height='90'> <img src='G_6.jpg' height='90'>","null","Animation1",""
"","","","","","html-keyboard-response","133","1756149","0.0-75.0","34","1","2025-02-02 04:07:06","bc01a2b6f61d06f6604adb8657495020","223.29.140.155","Mozilla/5.0 (Windows NT 10.0; Win64; x64) AppleWebKit/537.36 (KHTML, like Gecko) Chrome/129.0.0.0 Safari/537.36","WebKit","Chrome","129.0.0.0","Windows","10.0","https://app.prolific.com/","en,en-US;q=0.9;q=0.9","677118ea07815f27b6073ccd","679edb085803f58d6bbd31ca","679eed734d1f034397408f24","","null","<img    src='G_3.jpg' height='90'> <img    src='G_7.jpg' height='90'> <img id='selected'    src='G_5.jpg' height='90'> <img  src='G_1.jpg' height='90'> <img     src='G_8.jpg' height='90'> <img src='G_4.jpg' height='90'> <img src='G_2.jpg' height='90'> <img src='G_6.jpg' height='90'>","null","Animation1",""
"","","","","","html-keyboard-response","134","1756656","0.0-76.0","34","1","2025-02-02 04:07:06","bc01a2b6f61d06f6604adb8657495020","223.29.140.155","Mozilla/5.0 (Windows NT 10.0; Win64; x64) AppleWebKit/537.36 (KHTML, like Gecko) Chrome/129.0.0.0 Safari/537.36","WebKit","Chrome","129.0.0.0","Windows","10.0","https://app.prolific.com/","en,en-US;q=0.9;q=0.9","677118ea07815f27b6073ccd","679edb085803f58d6bbd31ca","679eed734d1f034397408f24","","null","<img    src='G_3.jpg' height='90'> <img    src='G_7.jpg' height='90'> <img id='selected'    src='G_5.jpg' height='90'> <img id='selected'  src='G_1.jpg' height='90'> <img     src='G_8.jpg' height='90'> <img src='G_4.jpg' height='90'> <img src='G_2.jpg' height='90'> <img src='G_6.jpg' height='90'>","null","Animation1",""
"","","","","","html-keyboard-response","135","1757166","0.0-77.0","34","1","2025-02-02 04:07:06","bc01a2b6f61d06f6604adb8657495020","223.29.140.155","Mozilla/5.0 (Windows NT 10.0; Win64; x64) AppleWebKit/537.36 (KHTML, like Gecko) Chrome/129.0.0.0 Safari/537.36","WebKit","Chrome","129.0.0.0","Windows","10.0","https://app.prolific.com/","en,en-US;q=0.9;q=0.9","677118ea07815f27b6073ccd","679edb085803f58d6bbd31ca","679eed734d1f034397408f24","","null","<img    src='G_3.jpg' height='90'> <img    src='G_7.jpg' height='90'> <img id='swapped'  src='G_1.jpg' height='90'> <img id='swapped'    src='G_5.jpg' height='90'> <img     src='G_8.jpg' height='90'> <img src='G_4.jpg' height='90'> <img src='G_2.jpg' height='90'> <img src='G_6.jpg' height='90'>","null","Animation1",""
"","","","","","html-keyboard-response","136","1757476","0.0-78.0","34","1","2025-02-02 04:07:06","bc01a2b6f61d06f6604adb8657495020","223.29.140.155","Mozilla/5.0 (Windows NT 10.0; Win64; x64) AppleWebKit/537.36 (KHTML, like Gecko) Chrome/129.0.0.0 Safari/537.36","WebKit","Chrome","129.0.0.0","Windows","10.0","https://app.prolific.com/","en,en-US;q=0.9;q=0.9","677118ea07815f27b6073ccd","679edb085803f58d6bbd31ca","679eed734d1f034397408f24","","null","<img    src='G_3.jpg' height='90'> <img    src='G_7.jpg' height='90'> <img   src='G_1.jpg' height='90'> <img     src='G_5.jpg' height='90'> <img     src='G_8.jpg' height='90'> <img src='G_4.jpg' height='90'> <img src='G_2.jpg' height='90'> <img src='G_6.jpg' height='90'>","null","Animation1",""
"","","","","","html-keyboard-response","137","1757986","0.0-79.0","34","1","2025-02-02 04:07:06","bc01a2b6f61d06f6604adb8657495020","223.29.140.155","Mozilla/5.0 (Windows NT 10.0; Win64; x64) AppleWebKit/537.36 (KHTML, like Gecko) Chrome/129.0.0.0 Safari/537.36","WebKit","Chrome","129.0.0.0","Windows","10.0","https://app.prolific.com/","en,en-US;q=0.9;q=0.9","677118ea07815f27b6073ccd","679edb085803f58d6bbd31ca","679eed734d1f034397408f24","","null","<img    src='G_3.jpg' height='90'> <img id='selected'    src='G_7.jpg' height='90'> <img   src='G_1.jpg' height='90'> <img     src='G_5.jpg' height='90'> <img     src='G_8.jpg' height='90'> <img src='G_4.jpg' height='90'> <img src='G_2.jpg' height='90'> <img src='G_6.jpg' height='90'>","null","Animation1",""
"","","","","","html-keyboard-response","138","1758495","0.0-80.0","34","1","2025-02-02 04:07:06","bc01a2b6f61d06f6604adb8657495020","223.29.140.155","Mozilla/5.0 (Windows NT 10.0; Win64; x64) AppleWebKit/537.36 (KHTML, like Gecko) Chrome/129.0.0.0 Safari/537.36","WebKit","Chrome","129.0.0.0","Windows","10.0","https://app.prolific.com/","en,en-US;q=0.9;q=0.9","677118ea07815f27b6073ccd","679edb085803f58d6bbd31ca","679eed734d1f034397408f24","","null","<img    src='G_3.jpg' height='90'> <img id='selected'    src='G_7.jpg' height='90'> <img id='selected'   src='G_1.jpg' height='90'> <img     src='G_5.jpg' height='90'> <img     src='G_8.jpg' height='90'> <img src='G_4.jpg' height='90'> <img src='G_2.jpg' height='90'> <img src='G_6.jpg' height='90'>","null","Animation1",""
"","","","","","html-keyboard-response","139","1759006","0.0-81.0","34","1","2025-02-02 04:07:06","bc01a2b6f61d06f6604adb8657495020","223.29.140.155","Mozilla/5.0 (Windows NT 10.0; Win64; x64) AppleWebKit/537.36 (KHTML, like Gecko) Chrome/129.0.0.0 Safari/537.36","WebKit","Chrome","129.0.0.0","Windows","10.0","https://app.prolific.com/","en,en-US;q=0.9;q=0.9","677118ea07815f27b6073ccd","679edb085803f58d6bbd31ca","679eed734d1f034397408f24","","null","<img    src='G_3.jpg' height='90'> <img id='swapped'   src='G_1.jpg' height='90'> <img id='swapped'    src='G_7.jpg' height='90'> <img     src='G_5.jpg' height='90'> <img     src='G_8.jpg' height='90'> <img src='G_4.jpg' height='90'> <img src='G_2.jpg' height='90'> <img src='G_6.jpg' height='90'>","null","Animation1",""
"","","","","","html-keyboard-response","140","1759315","0.0-82.0","34","1","2025-02-02 04:07:06","bc01a2b6f61d06f6604adb8657495020","223.29.140.155","Mozilla/5.0 (Windows NT 10.0; Win64; x64) AppleWebKit/537.36 (KHTML, like Gecko) Chrome/129.0.0.0 Safari/537.36","WebKit","Chrome","129.0.0.0","Windows","10.0","https://app.prolific.com/","en,en-US;q=0.9;q=0.9","677118ea07815f27b6073ccd","679edb085803f58d6bbd31ca","679eed734d1f034397408f24","","null","<img    src='G_3.jpg' height='90'> <img    src='G_1.jpg' height='90'> <img     src='G_7.jpg' height='90'> <img     src='G_5.jpg' height='90'> <img     src='G_8.jpg' height='90'> <img src='G_4.jpg' height='90'> <img src='G_2.jpg' height='90'> <img src='G_6.jpg' height='90'>","null","Animation1",""
"","","","","","html-keyboard-response","141","1759824","0.0-83.0","34","1","2025-02-02 04:07:06","bc01a2b6f61d06f6604adb8657495020","223.29.140.155","Mozilla/5.0 (Windows NT 10.0; Win64; x64) AppleWebKit/537.36 (KHTML, like Gecko) Chrome/129.0.0.0 Safari/537.36","WebKit","Chrome","129.0.0.0","Windows","10.0","https://app.prolific.com/","en,en-US;q=0.9;q=0.9","677118ea07815f27b6073ccd","679edb085803f58d6bbd31ca","679eed734d1f034397408f24","","null","<img id='selected'    src='G_3.jpg' height='90'> <img    src='G_1.jpg' height='90'> <img     src='G_7.jpg' height='90'> <img     src='G_5.jpg' height='90'> <img     src='G_8.jpg' height='90'> <img src='G_4.jpg' height='90'> <img src='G_2.jpg' height='90'> <img src='G_6.jpg' height='90'>","null","Animation1",""
"","","","","","html-keyboard-response","142","1760334","0.0-84.0","34","1","2025-02-02 04:07:06","bc01a2b6f61d06f6604adb8657495020","223.29.140.155","Mozilla/5.0 (Windows NT 10.0; Win64; x64) AppleWebKit/537.36 (KHTML, like Gecko) Chrome/129.0.0.0 Safari/537.36","WebKit","Chrome","129.0.0.0","Windows","10.0","https://app.prolific.com/","en,en-US;q=0.9;q=0.9","677118ea07815f27b6073ccd","679edb085803f58d6bbd31ca","679eed734d1f034397408f24","","null","<img id='selected'    src='G_3.jpg' height='90'> <img id='selected'    src='G_1.jpg' height='90'> <img     src='G_7.jpg' height='90'> <img     src='G_5.jpg' height='90'> <img     src='G_8.jpg' height='90'> <img src='G_4.jpg' height='90'> <img src='G_2.jpg' height='90'> <img src='G_6.jpg' height='90'>","null","Animation1",""
"","","","","","html-keyboard-response","143","1760844","0.0-85.0","34","1","2025-02-02 04:07:06","bc01a2b6f61d06f6604adb8657495020","223.29.140.155","Mozilla/5.0 (Windows NT 10.0; Win64; x64) AppleWebKit/537.36 (KHTML, like Gecko) Chrome/129.0.0.0 Safari/537.36","WebKit","Chrome","129.0.0.0","Windows","10.0","https://app.prolific.com/","en,en-US;q=0.9;q=0.9","677118ea07815f27b6073ccd","679edb085803f58d6bbd31ca","679eed734d1f034397408f24","","null","<img id='selected'    src='G_3.jpg' height='90'> <img id='selected'    src='G_1.jpg' height='90'> <img     src='G_7.jpg' height='90'> <img     src='G_5.jpg' height='90'> <img     src='G_8.jpg' height='90'> <img src='G_4.jpg' height='90'> <img src='G_2.jpg' height='90'> <img src='G_6.jpg' height='90'>","null","Animation1",""
"","","","","","html-keyboard-response","144","1761155","0.0-86.0","34","1","2025-02-02 04:07:06","bc01a2b6f61d06f6604adb8657495020","223.29.140.155","Mozilla/5.0 (Windows NT 10.0; Win64; x64) AppleWebKit/537.36 (KHTML, like Gecko) Chrome/129.0.0.0 Safari/537.36","WebKit","Chrome","129.0.0.0","Windows","10.0","https://app.prolific.com/","en,en-US;q=0.9;q=0.9","677118ea07815f27b6073ccd","679edb085803f58d6bbd31ca","679eed734d1f034397408f24","","null","<img     src='G_3.jpg' height='90'> <img     src='G_1.jpg' height='90'> <img     src='G_7.jpg' height='90'> <img     src='G_5.jpg' height='90'> <img     src='G_8.jpg' height='90'> <img src='G_4.jpg' height='90'> <img src='G_2.jpg' height='90'> <img src='G_6.jpg' height='90'>","null","Animation1",""
"","","","","","html-keyboard-response","145","1761663","0.0-87.0","34","1","2025-02-02 04:07:06","bc01a2b6f61d06f6604adb8657495020","223.29.140.155","Mozilla/5.0 (Windows NT 10.0; Win64; x64) AppleWebKit/537.36 (KHTML, like Gecko) Chrome/129.0.0.0 Safari/537.36","WebKit","Chrome","129.0.0.0","Windows","10.0","https://app.prolific.com/","en,en-US;q=0.9;q=0.9","677118ea07815f27b6073ccd","679edb085803f58d6bbd31ca","679eed734d1f034397408f24","","null","<img     src='G_3.jpg' height='90'> <img     src='G_1.jpg' height='90'> <img     src='G_7.jpg' height='90'> <img     src='G_5.jpg' height='90'> <img id='selected'     src='G_8.jpg' height='90'> <img src='G_4.jpg' height='90'> <img src='G_2.jpg' height='90'> <img src='G_6.jpg' height='90'>","null","Animation1",""
"","","","","","html-keyboard-response","146","1762173","0.0-88.0","34","1","2025-02-02 04:07:06","bc01a2b6f61d06f6604adb8657495020","223.29.140.155","Mozilla/5.0 (Windows NT 10.0; Win64; x64) AppleWebKit/537.36 (KHTML, like Gecko) Chrome/129.0.0.0 Safari/537.36","WebKit","Chrome","129.0.0.0","Windows","10.0","https://app.prolific.com/","en,en-US;q=0.9;q=0.9","677118ea07815f27b6073ccd","679edb085803f58d6bbd31ca","679eed734d1f034397408f24","","null","<img     src='G_3.jpg' height='90'> <img     src='G_1.jpg' height='90'> <img     src='G_7.jpg' height='90'> <img     src='G_5.jpg' height='90'> <img id='selected'     src='G_8.jpg' height='90'> <img id='selected' src='G_4.jpg' height='90'> <img src='G_2.jpg' height='90'> <img src='G_6.jpg' height='90'>","null","Animation1",""
"","","","","","html-keyboard-response","147","1762683","0.0-89.0","34","1","2025-02-02 04:07:06","bc01a2b6f61d06f6604adb8657495020","223.29.140.155","Mozilla/5.0 (Windows NT 10.0; Win64; x64) AppleWebKit/537.36 (KHTML, like Gecko) Chrome/129.0.0.0 Safari/537.36","WebKit","Chrome","129.0.0.0","Windows","10.0","https://app.prolific.com/","en,en-US;q=0.9;q=0.9","677118ea07815f27b6073ccd","679edb085803f58d6bbd31ca","679eed734d1f034397408f24","","null","<img     src='G_3.jpg' height='90'> <img     src='G_1.jpg' height='90'> <img     src='G_7.jpg' height='90'> <img     src='G_5.jpg' height='90'> <img id='swapped' src='G_4.jpg' height='90'> <img id='swapped'     src='G_8.jpg' height='90'> <img src='G_2.jpg' height='90'> <img src='G_6.jpg' height='90'>","null","Animation1",""
"","","","","","html-keyboard-response","148","1762993","0.0-90.0","34","1","2025-02-02 04:07:06","bc01a2b6f61d06f6604adb8657495020","223.29.140.155","Mozilla/5.0 (Windows NT 10.0; Win64; x64) AppleWebKit/537.36 (KHTML, like Gecko) Chrome/129.0.0.0 Safari/537.36","WebKit","Chrome","129.0.0.0","Windows","10.0","https://app.prolific.com/","en,en-US;q=0.9;q=0.9","677118ea07815f27b6073ccd","679edb085803f58d6bbd31ca","679eed734d1f034397408f24","","null","<img     src='G_3.jpg' height='90'> <img     src='G_1.jpg' height='90'> <img     src='G_7.jpg' height='90'> <img     src='G_5.jpg' height='90'> <img  src='G_4.jpg' height='90'> <img      src='G_8.jpg' height='90'> <img src='G_2.jpg' height='90'> <img src='G_6.jpg' height='90'>","null","Animation1",""
"","","","","","html-keyboard-response","149","1763503","0.0-91.0","34","1","2025-02-02 04:07:06","bc01a2b6f61d06f6604adb8657495020","223.29.140.155","Mozilla/5.0 (Windows NT 10.0; Win64; x64) AppleWebKit/537.36 (KHTML, like Gecko) Chrome/129.0.0.0 Safari/537.36","WebKit","Chrome","129.0.0.0","Windows","10.0","https://app.prolific.com/","en,en-US;q=0.9;q=0.9","677118ea07815f27b6073ccd","679edb085803f58d6bbd31ca","679eed734d1f034397408f24","","null","<img     src='G_3.jpg' height='90'> <img     src='G_1.jpg' height='90'> <img     src='G_7.jpg' height='90'> <img id='selected'     src='G_5.jpg' height='90'> <img  src='G_4.jpg' height='90'> <img      src='G_8.jpg' height='90'> <img src='G_2.jpg' height='90'> <img src='G_6.jpg' height='90'>","null","Animation1",""
"","","","","","html-keyboard-response","150","1764014","0.0-92.0","34","1","2025-02-02 04:07:06","bc01a2b6f61d06f6604adb8657495020","223.29.140.155","Mozilla/5.0 (Windows NT 10.0; Win64; x64) AppleWebKit/537.36 (KHTML, like Gecko) Chrome/129.0.0.0 Safari/537.36","WebKit","Chrome","129.0.0.0","Windows","10.0","https://app.prolific.com/","en,en-US;q=0.9;q=0.9","677118ea07815f27b6073ccd","679edb085803f58d6bbd31ca","679eed734d1f034397408f24","","null","<img     src='G_3.jpg' height='90'> <img     src='G_1.jpg' height='90'> <img     src='G_7.jpg' height='90'> <img id='selected'     src='G_5.jpg' height='90'> <img id='selected'  src='G_4.jpg' height='90'> <img      src='G_8.jpg' height='90'> <img src='G_2.jpg' height='90'> <img src='G_6.jpg' height='90'>","null","Animation1",""
"","","","","","html-keyboard-response","151","1764520","0.0-93.0","34","1","2025-02-02 04:07:06","bc01a2b6f61d06f6604adb8657495020","223.29.140.155","Mozilla/5.0 (Windows NT 10.0; Win64; x64) AppleWebKit/537.36 (KHTML, like Gecko) Chrome/129.0.0.0 Safari/537.36","WebKit","Chrome","129.0.0.0","Windows","10.0","https://app.prolific.com/","en,en-US;q=0.9;q=0.9","677118ea07815f27b6073ccd","679edb085803f58d6bbd31ca","679eed734d1f034397408f24","","null","<img     src='G_3.jpg' height='90'> <img     src='G_1.jpg' height='90'> <img     src='G_7.jpg' height='90'> <img id='selected'     src='G_5.jpg' height='90'> <img id='selected'  src='G_4.jpg' height='90'> <img      src='G_8.jpg' height='90'> <img src='G_2.jpg' height='90'> <img src='G_6.jpg' height='90'>","null","Animation1",""
"","","","","","html-keyboard-response","152","1764837","0.0-94.0","34","1","2025-02-02 04:07:06","bc01a2b6f61d06f6604adb8657495020","223.29.140.155","Mozilla/5.0 (Windows NT 10.0; Win64; x64) AppleWebKit/537.36 (KHTML, like Gecko) Chrome/129.0.0.0 Safari/537.36","WebKit","Chrome","129.0.0.0","Windows","10.0","https://app.prolific.com/","en,en-US;q=0.9;q=0.9","677118ea07815f27b6073ccd","679edb085803f58d6bbd31ca","679eed734d1f034397408f24","","null","<img     src='G_3.jpg' height='90'> <img     src='G_1.jpg' height='90'> <img     src='G_7.jpg' height='90'> <img      src='G_5.jpg' height='90'> <img   src='G_4.jpg' height='90'> <img      src='G_8.jpg' height='90'> <img src='G_2.jpg' height='90'> <img src='G_6.jpg' height='90'>","null","Animation1",""
"","","","","","html-keyboard-response","153","1765347","0.0-95.0","34","1","2025-02-02 04:07:06","bc01a2b6f61d06f6604adb8657495020","223.29.140.155","Mozilla/5.0 (Windows NT 10.0; Win64; x64) AppleWebKit/537.36 (KHTML, like Gecko) Chrome/129.0.0.0 Safari/537.36","WebKit","Chrome","129.0.0.0","Windows","10.0","https://app.prolific.com/","en,en-US;q=0.9;q=0.9","677118ea07815f27b6073ccd","679edb085803f58d6bbd31ca","679eed734d1f034397408f24","","null","<img     src='G_3.jpg' height='90'> <img     src='G_1.jpg' height='90'> <img     src='G_7.jpg' height='90'> <img      src='G_5.jpg' height='90'> <img   src='G_4.jpg' height='90'> <img id='selected'      src='G_8.jpg' height='90'> <img src='G_2.jpg' height='90'> <img src='G_6.jpg' height='90'>","null","Animation1",""
"","","","","","html-keyboard-response","154","1765858","0.0-96.0","34","1","2025-02-02 04:07:06","bc01a2b6f61d06f6604adb8657495020","223.29.140.155","Mozilla/5.0 (Windows NT 10.0; Win64; x64) AppleWebKit/537.36 (KHTML, like Gecko) Chrome/129.0.0.0 Safari/537.36","WebKit","Chrome","129.0.0.0","Windows","10.0","https://app.prolific.com/","en,en-US;q=0.9;q=0.9","677118ea07815f27b6073ccd","679edb085803f58d6bbd31ca","679eed734d1f034397408f24","","null","<img     src='G_3.jpg' height='90'> <img     src='G_1.jpg' height='90'> <img     src='G_7.jpg' height='90'> <img      src='G_5.jpg' height='90'> <img   src='G_4.jpg' height='90'> <img id='selected'      src='G_8.jpg' height='90'> <img id='selected' src='G_2.jpg' height='90'> <img src='G_6.jpg' height='90'>","null","Animation1",""
"","","","","","html-keyboard-response","155","1766370","0.0-97.0","34","1","2025-02-02 04:07:06","bc01a2b6f61d06f6604adb8657495020","223.29.140.155","Mozilla/5.0 (Windows NT 10.0; Win64; x64) AppleWebKit/537.36 (KHTML, like Gecko) Chrome/129.0.0.0 Safari/537.36","WebKit","Chrome","129.0.0.0","Windows","10.0","https://app.prolific.com/","en,en-US;q=0.9;q=0.9","677118ea07815f27b6073ccd","679edb085803f58d6bbd31ca","679eed734d1f034397408f24","","null","<img     src='G_3.jpg' height='90'> <img     src='G_1.jpg' height='90'> <img     src='G_7.jpg' height='90'> <img      src='G_5.jpg' height='90'> <img   src='G_4.jpg' height='90'> <img id='selected'      src='G_8.jpg' height='90'> <img id='selected' src='G_2.jpg' height='90'> <img src='G_6.jpg' height='90'>","null","Animation1",""
"","","","","","html-keyboard-response","156","1766680","0.0-98.0","34","1","2025-02-02 04:07:06","bc01a2b6f61d06f6604adb8657495020","223.29.140.155","Mozilla/5.0 (Windows NT 10.0; Win64; x64) AppleWebKit/537.36 (KHTML, like Gecko) Chrome/129.0.0.0 Safari/537.36","WebKit","Chrome","129.0.0.0","Windows","10.0","https://app.prolific.com/","en,en-US;q=0.9;q=0.9","677118ea07815f27b6073ccd","679edb085803f58d6bbd31ca","679eed734d1f034397408f24","","null","<img     src='G_3.jpg' height='90'> <img     src='G_1.jpg' height='90'> <img     src='G_7.jpg' height='90'> <img      src='G_5.jpg' height='90'> <img   src='G_4.jpg' height='90'> <img       src='G_8.jpg' height='90'> <img  src='G_2.jpg' height='90'> <img src='G_6.jpg' height='90'>","null","Animation1",""
