"success","timeout","failed_images","failed_audio","failed_video","trial_type","trial_index","time_elapsed","internal_node_id","run_id","condition","recorded_at","source_code_version","ip","user_agent","device","browser","browser_version","platform","platform_version","referer","accept_language","PROLIFIC_PID","STUDY_ID","SESSION_ID","view_history","rt","stimulus","response","phase","question_order","presented_choices"
"true","false","[]","[]","[]","preload","0","310","0.0-0.0","36","1","2025-02-02 04:11:25","bc01a2b6f61d06f6604adb8657495020","67.167.170.137","Mozilla/5.0 (Windows NT 10.0; Win64; x64) AppleWebKit/537.36 (KHTML, like Gecko) Chrome/132.0.0.0 Safari/537.36","WebKit","Chrome","132.0.0.0","Windows","10.0","https://app.prolific.com/","en-US,en;q=0.9,es;q=0.8","67007d655b10fbe2d93c3508","679edb085803f58d6bbd31ca","679ef04f47198feecf467dad","","","","","","",""
"","","","","","instructions","1","9225","0.0-1.0","36","1","2025-02-02 04:11:25","bc01a2b6f61d06f6604adb8657495020","67.167.170.137","Mozilla/5.0 (Windows NT 10.0; Win64; x64) AppleWebKit/537.36 (KHTML, like Gecko) Chrome/132.0.0.0 Safari/537.36","WebKit","Chrome","132.0.0.0","Windows","10.0","https://app.prolific.com/","en-US,en;q=0.9,es;q=0.8","67007d655b10fbe2d93c3508","679edb085803f58d6bbd31ca","679ef04f47198feecf467dad","[{""page_index"":0,""viewing_time"":8913}]","8913","","","","",""
"","","","","","html-keyboard-response","2","9739","0.0-2.0","36","1","2025-02-02 04:11:25","bc01a2b6f61d06f6604adb8657495020","67.167.170.137","Mozilla/5.0 (Windows NT 10.0; Win64; x64) AppleWebKit/537.36 (KHTML, like Gecko) Chrome/132.0.0.0 Safari/537.36","WebKit","Chrome","132.0.0.0","Windows","10.0","https://app.prolific.com/","en-US,en;q=0.9,es;q=0.8","67007d655b10fbe2d93c3508","679edb085803f58d6bbd31ca","679ef04f47198feecf467dad","","null","<p> + <p/>","null","","",""
"","","","","","instructions","3","58905","0.0-3.0","36","1","2025-02-02 04:11:25","bc01a2b6f61d06f6604adb8657495020","67.167.170.137","Mozilla/5.0 (Windows NT 10.0; Win64; x64) AppleWebKit/537.36 (KHTML, like Gecko) Chrome/132.0.0.0 Safari/537.36","WebKit","Chrome","132.0.0.0","Windows","10.0","https://app.prolific.com/","en-US,en;q=0.9,es;q=0.8","67007d655b10fbe2d93c3508","679edb085803f58d6bbd31ca","679ef04f47198feecf467dad","[{""page_index"":0,""viewing_time"":2641},{""page_index"":1,""viewing_time"":17944},{""page_index"":2,""viewing_time"":12198},{""page_index"":3,""viewing_time"":7737},{""page_index"":4,""viewing_time"":8646}]","49165","","","","",""
"","","","","","html-button-response","4","78285","0.0-4.0-0.0-0.0","36","1","2025-02-02 04:11:25","bc01a2b6f61d06f6604adb8657495020","67.167.170.137","Mozilla/5.0 (Windows NT 10.0; Win64; x64) AppleWebKit/537.36 (KHTML, like Gecko) Chrome/132.0.0.0 Safari/537.36","WebKit","Chrome","132.0.0.0","Windows","10.0","https://app.prolific.com/","en-US,en;q=0.9,es;q=0.8","67007d655b10fbe2d93c3508","679edb085803f58d6bbd31ca","679ef04f47198feecf467dad","","19378","","2","Intro Trial","",""
"","","","","","html-button-response","5","79975","0.0-4.1-0.1-0.1","36","1","2025-02-02 04:11:25","bc01a2b6f61d06f6604adb8657495020","67.167.170.137","Mozilla/5.0 (Windows NT 10.0; Win64; x64) AppleWebKit/537.36 (KHTML, like Gecko) Chrome/132.0.0.0 Safari/537.36","WebKit","Chrome","132.0.0.0","Windows","10.0","https://app.prolific.com/","en-US,en;q=0.9,es;q=0.8","67007d655b10fbe2d93c3508","679edb085803f58d6bbd31ca","679ef04f47198feecf467dad","","1688","","4","Intro Trial","",""
"","","","","","html-button-response","6","84889","0.0-4.2-0.2-0.2","36","1","2025-02-02 04:11:25","bc01a2b6f61d06f6604adb8657495020","67.167.170.137","Mozilla/5.0 (Windows NT 10.0; Win64; x64) AppleWebKit/537.36 (KHTML, like Gecko) Chrome/132.0.0.0 Safari/537.36","WebKit","Chrome","132.0.0.0","Windows","10.0","https://app.prolific.com/","en-US,en;q=0.9,es;q=0.8","67007d655b10fbe2d93c3508","679edb085803f58d6bbd31ca","679ef04f47198feecf467dad","","4912","","1","Intro Trial","",""
"","","","","","html-button-response","7","85827","0.0-4.3-0.3-0.3","36","1","2025-02-02 04:11:25","bc01a2b6f61d06f6604adb8657495020","67.167.170.137","Mozilla/5.0 (Windows NT 10.0; Win64; x64) AppleWebKit/537.36 (KHTML, like Gecko) Chrome/132.0.0.0 Safari/537.36","WebKit","Chrome","132.0.0.0","Windows","10.0","https://app.prolific.com/","en-US,en;q=0.9,es;q=0.8","67007d655b10fbe2d93c3508","679edb085803f58d6bbd31ca","679ef04f47198feecf467dad","","937","","3","Intro Trial","",""
"","","","","","html-button-response","8","88193","0.0-4.4-0.4-0.4","36","1","2025-02-02 04:11:25","bc01a2b6f61d06f6604adb8657495020","67.167.170.137","Mozilla/5.0 (Windows NT 10.0; Win64; x64) AppleWebKit/537.36 (KHTML, like Gecko) Chrome/132.0.0.0 Safari/537.36","WebKit","Chrome","132.0.0.0","Windows","10.0","https://app.prolific.com/","en-US,en;q=0.9,es;q=0.8","67007d655b10fbe2d93c3508","679edb085803f58d6bbd31ca","679ef04f47198feecf467dad","","2364","","2","Intro Trial","",""
"","","","","","html-button-response","9","88872","0.0-4.5-0.5-0.5","36","1","2025-02-02 04:11:25","bc01a2b6f61d06f6604adb8657495020","67.167.170.137","Mozilla/5.0 (Windows NT 10.0; Win64; x64) AppleWebKit/537.36 (KHTML, like Gecko) Chrome/132.0.0.0 Safari/537.36","WebKit","Chrome","132.0.0.0","Windows","10.0","https://app.prolific.com/","en-US,en;q=0.9,es;q=0.8","67007d655b10fbe2d93c3508","679edb085803f58d6bbd31ca","679ef04f47198feecf467dad","","678","","3","Intro Trial","",""
"","","","","","html-button-response","10","90513","0.0-4.6-0.6-0.6","36","1","2025-02-02 04:11:25","bc01a2b6f61d06f6604adb8657495020","67.167.170.137","Mozilla/5.0 (Windows NT 10.0; Win64; x64) AppleWebKit/537.36 (KHTML, like Gecko) Chrome/132.0.0.0 Safari/537.36","WebKit","Chrome","132.0.0.0","Windows","10.0","https://app.prolific.com/","en-US,en;q=0.9,es;q=0.8","67007d655b10fbe2d93c3508","679edb085803f58d6bbd31ca","679ef04f47198feecf467dad","","1640","","0","Intro Trial","",""
"","","","","","html-button-response","11","92019","0.0-4.7-0.7-0.7","36","1","2025-02-02 04:11:25","bc01a2b6f61d06f6604adb8657495020","67.167.170.137","Mozilla/5.0 (Windows NT 10.0; Win64; x64) AppleWebKit/537.36 (KHTML, like Gecko) Chrome/132.0.0.0 Safari/537.36","WebKit","Chrome","132.0.0.0","Windows","10.0","https://app.prolific.com/","en-US,en;q=0.9,es;q=0.8","67007d655b10fbe2d93c3508","679edb085803f58d6bbd31ca","679ef04f47198feecf467dad","","1505","","3","Intro Trial","",""
"","","","","","html-button-response","12","95342","0.0-4.8-0.8-0.8","36","1","2025-02-02 04:11:25","bc01a2b6f61d06f6604adb8657495020","67.167.170.137","Mozilla/5.0 (Windows NT 10.0; Win64; x64) AppleWebKit/537.36 (KHTML, like Gecko) Chrome/132.0.0.0 Safari/537.36","WebKit","Chrome","132.0.0.0","Windows","10.0","https://app.prolific.com/","en-US,en;q=0.9,es;q=0.8","67007d655b10fbe2d93c3508","679edb085803f58d6bbd31ca","679ef04f47198feecf467dad","","3321","","4","Intro Trial","",""
"","","","","","html-button-response","13","96852","0.0-4.9-0.9-0.9","36","1","2025-02-02 04:11:25","bc01a2b6f61d06f6604adb8657495020","67.167.170.137","Mozilla/5.0 (Windows NT 10.0; Win64; x64) AppleWebKit/537.36 (KHTML, like Gecko) Chrome/132.0.0.0 Safari/537.36","WebKit","Chrome","132.0.0.0","Windows","10.0","https://app.prolific.com/","en-US,en;q=0.9,es;q=0.8","67007d655b10fbe2d93c3508","679edb085803f58d6bbd31ca","679ef04f47198feecf467dad","","1508","","2","Intro Trial","",""
"","","","","","html-button-response","14","102610","0.0-4.10-0.10-0.10","36","1","2025-02-02 04:11:25","bc01a2b6f61d06f6604adb8657495020","67.167.170.137","Mozilla/5.0 (Windows NT 10.0; Win64; x64) AppleWebKit/537.36 (KHTML, like Gecko) Chrome/132.0.0.0 Safari/537.36","WebKit","Chrome","132.0.0.0","Windows","10.0","https://app.prolific.com/","en-US,en;q=0.9,es;q=0.8","67007d655b10fbe2d93c3508","679edb085803f58d6bbd31ca","679ef04f47198feecf467dad","","5756","","2","Intro Trial","",""
"","","","","","html-button-response","15","104603","0.0-4.11-0.11-0.11","36","1","2025-02-02 04:11:25","bc01a2b6f61d06f6604adb8657495020","67.167.170.137","Mozilla/5.0 (Windows NT 10.0; Win64; x64) AppleWebKit/537.36 (KHTML, like Gecko) Chrome/132.0.0.0 Safari/537.36","WebKit","Chrome","132.0.0.0","Windows","10.0","https://app.prolific.com/","en-US,en;q=0.9,es;q=0.8","67007d655b10fbe2d93c3508","679edb085803f58d6bbd31ca","679ef04f47198feecf467dad","","1991","","4","Intro Trial","",""
"","","","","","html-button-response","16","105159","0.0-4.12-0.12-0.12","36","1","2025-02-02 04:11:25","bc01a2b6f61d06f6604adb8657495020","67.167.170.137","Mozilla/5.0 (Windows NT 10.0; Win64; x64) AppleWebKit/537.36 (KHTML, like Gecko) Chrome/132.0.0.0 Safari/537.36","WebKit","Chrome","132.0.0.0","Windows","10.0","https://app.prolific.com/","en-US,en;q=0.9,es;q=0.8","67007d655b10fbe2d93c3508","679edb085803f58d6bbd31ca","679ef04f47198feecf467dad","","555","","4","Intro Trial","",""
"","","","","","html-button-response","17","106689","0.0-4.13-0.13-0.13","36","1","2025-02-02 04:11:25","bc01a2b6f61d06f6604adb8657495020","67.167.170.137","Mozilla/5.0 (Windows NT 10.0; Win64; x64) AppleWebKit/537.36 (KHTML, like Gecko) Chrome/132.0.0.0 Safari/537.36","WebKit","Chrome","132.0.0.0","Windows","10.0","https://app.prolific.com/","en-US,en;q=0.9,es;q=0.8","67007d655b10fbe2d93c3508","679edb085803f58d6bbd31ca","679ef04f47198feecf467dad","","1528","","3","Intro Trial","",""
"","","","","","html-button-response","18","108057","0.0-4.14-0.14-0.14","36","1","2025-02-02 04:11:25","bc01a2b6f61d06f6604adb8657495020","67.167.170.137","Mozilla/5.0 (Windows NT 10.0; Win64; x64) AppleWebKit/537.36 (KHTML, like Gecko) Chrome/132.0.0.0 Safari/537.36","WebKit","Chrome","132.0.0.0","Windows","10.0","https://app.prolific.com/","en-US,en;q=0.9,es;q=0.8","67007d655b10fbe2d93c3508","679edb085803f58d6bbd31ca","679ef04f47198feecf467dad","","1367","","3","Intro Trial","",""
"","","","","","html-button-response","19","109128","0.0-4.15-0.15-0.15","36","1","2025-02-02 04:11:25","bc01a2b6f61d06f6604adb8657495020","67.167.170.137","Mozilla/5.0 (Windows NT 10.0; Win64; x64) AppleWebKit/537.36 (KHTML, like Gecko) Chrome/132.0.0.0 Safari/537.36","WebKit","Chrome","132.0.0.0","Windows","10.0","https://app.prolific.com/","en-US,en;q=0.9,es;q=0.8","67007d655b10fbe2d93c3508","679edb085803f58d6bbd31ca","679ef04f47198feecf467dad","","1070","","4","Intro Trial","",""
"","","","","","html-button-response","20","109740","0.0-4.16-0.16-0.16","36","1","2025-02-02 04:11:25","bc01a2b6f61d06f6604adb8657495020","67.167.170.137","Mozilla/5.0 (Windows NT 10.0; Win64; x64) AppleWebKit/537.36 (KHTML, like Gecko) Chrome/132.0.0.0 Safari/537.36","WebKit","Chrome","132.0.0.0","Windows","10.0","https://app.prolific.com/","en-US,en;q=0.9,es;q=0.8","67007d655b10fbe2d93c3508","679edb085803f58d6bbd31ca","679ef04f47198feecf467dad","","610","","4","Intro Trial","",""
"","","","","","html-button-response","21","110819","0.0-4.17-0.17-0.17","36","1","2025-02-02 04:11:25","bc01a2b6f61d06f6604adb8657495020","67.167.170.137","Mozilla/5.0 (Windows NT 10.0; Win64; x64) AppleWebKit/537.36 (KHTML, like Gecko) Chrome/132.0.0.0 Safari/537.36","WebKit","Chrome","132.0.0.0","Windows","10.0","https://app.prolific.com/","en-US,en;q=0.9,es;q=0.8","67007d655b10fbe2d93c3508","679edb085803f58d6bbd31ca","679ef04f47198feecf467dad","","1077","","3","Intro Trial","",""
"","","","","","html-button-response","22","111294","0.0-4.18-0.18-0.18","36","1","2025-02-02 04:11:25","bc01a2b6f61d06f6604adb8657495020","67.167.170.137","Mozilla/5.0 (Windows NT 10.0; Win64; x64) AppleWebKit/537.36 (KHTML, like Gecko) Chrome/132.0.0.0 Safari/537.36","WebKit","Chrome","132.0.0.0","Windows","10.0","https://app.prolific.com/","en-US,en;q=0.9,es;q=0.8","67007d655b10fbe2d93c3508","679edb085803f58d6bbd31ca","679ef04f47198feecf467dad","","474","","3","Intro Trial","",""
"","","","","","html-button-response","23","112301","0.0-4.19-0.19-0.19","36","1","2025-02-02 04:11:25","bc01a2b6f61d06f6604adb8657495020","67.167.170.137","Mozilla/5.0 (Windows NT 10.0; Win64; x64) AppleWebKit/537.36 (KHTML, like Gecko) Chrome/132.0.0.0 Safari/537.36","WebKit","Chrome","132.0.0.0","Windows","10.0","https://app.prolific.com/","en-US,en;q=0.9,es;q=0.8","67007d655b10fbe2d93c3508","679edb085803f58d6bbd31ca","679ef04f47198feecf467dad","","1006","","4","Intro Trial","",""
"","","","","","html-button-response","24","112705","0.0-4.20-0.20-0.20","36","1","2025-02-02 04:11:25","bc01a2b6f61d06f6604adb8657495020","67.167.170.137","Mozilla/5.0 (Windows NT 10.0; Win64; x64) AppleWebKit/537.36 (KHTML, like Gecko) Chrome/132.0.0.0 Safari/537.36","WebKit","Chrome","132.0.0.0","Windows","10.0","https://app.prolific.com/","en-US,en;q=0.9,es;q=0.8","67007d655b10fbe2d93c3508","679edb085803f58d6bbd31ca","679ef04f47198feecf467dad","","402","","4","Intro Trial","",""
"","","","","","html-button-response","25","113805","0.0-4.21-0.21-0.21","36","1","2025-02-02 04:11:25","bc01a2b6f61d06f6604adb8657495020","67.167.170.137","Mozilla/5.0 (Windows NT 10.0; Win64; x64) AppleWebKit/537.36 (KHTML, like Gecko) Chrome/132.0.0.0 Safari/537.36","WebKit","Chrome","132.0.0.0","Windows","10.0","https://app.prolific.com/","en-US,en;q=0.9,es;q=0.8","67007d655b10fbe2d93c3508","679edb085803f58d6bbd31ca","679ef04f47198feecf467dad","","1099","","3","Intro Trial","",""
"","","","","","html-button-response","26","113970","0.0-4.22-0.22-0.22","36","1","2025-02-02 04:11:25","bc01a2b6f61d06f6604adb8657495020","67.167.170.137","Mozilla/5.0 (Windows NT 10.0; Win64; x64) AppleWebKit/537.36 (KHTML, like Gecko) Chrome/132.0.0.0 Safari/537.36","WebKit","Chrome","132.0.0.0","Windows","10.0","https://app.prolific.com/","en-US,en;q=0.9,es;q=0.8","67007d655b10fbe2d93c3508","679edb085803f58d6bbd31ca","679ef04f47198feecf467dad","","164","","3","Intro Trial","",""
"","","","","","html-button-response","27","114424","0.0-4.23-0.23-0.23","36","1","2025-02-02 04:11:25","bc01a2b6f61d06f6604adb8657495020","67.167.170.137","Mozilla/5.0 (Windows NT 10.0; Win64; x64) AppleWebKit/537.36 (KHTML, like Gecko) Chrome/132.0.0.0 Safari/537.36","WebKit","Chrome","132.0.0.0","Windows","10.0","https://app.prolific.com/","en-US,en;q=0.9,es;q=0.8","67007d655b10fbe2d93c3508","679edb085803f58d6bbd31ca","679ef04f47198feecf467dad","","452","","3","Intro Trial","",""
"","","","","","html-button-response","28","116920","0.0-4.24-0.24-0.24","36","1","2025-02-02 04:11:25","bc01a2b6f61d06f6604adb8657495020","67.167.170.137","Mozilla/5.0 (Windows NT 10.0; Win64; x64) AppleWebKit/537.36 (KHTML, like Gecko) Chrome/132.0.0.0 Safari/537.36","WebKit","Chrome","132.0.0.0","Windows","10.0","https://app.prolific.com/","en-US,en;q=0.9,es;q=0.8","67007d655b10fbe2d93c3508","679edb085803f58d6bbd31ca","679ef04f47198feecf467dad","","2495","","1","Intro Trial","",""
"","","","","","html-button-response","29","117179","0.0-4.25-0.25-0.25","36","1","2025-02-02 04:11:25","bc01a2b6f61d06f6604adb8657495020","67.167.170.137","Mozilla/5.0 (Windows NT 10.0; Win64; x64) AppleWebKit/537.36 (KHTML, like Gecko) Chrome/132.0.0.0 Safari/537.36","WebKit","Chrome","132.0.0.0","Windows","10.0","https://app.prolific.com/","en-US,en;q=0.9,es;q=0.8","67007d655b10fbe2d93c3508","679edb085803f58d6bbd31ca","679ef04f47198feecf467dad","","257","","1","Intro Trial","",""
"","","","","","html-button-response","30","118158","0.0-4.26-0.26-0.26","36","1","2025-02-02 04:11:25","bc01a2b6f61d06f6604adb8657495020","67.167.170.137","Mozilla/5.0 (Windows NT 10.0; Win64; x64) AppleWebKit/537.36 (KHTML, like Gecko) Chrome/132.0.0.0 Safari/537.36","WebKit","Chrome","132.0.0.0","Windows","10.0","https://app.prolific.com/","en-US,en;q=0.9,es;q=0.8","67007d655b10fbe2d93c3508","679edb085803f58d6bbd31ca","679ef04f47198feecf467dad","","977","","1","Intro Trial","",""
"","","","","","html-button-response","31","119303","0.0-4.27-0.27-0.27","36","1","2025-02-02 04:11:25","bc01a2b6f61d06f6604adb8657495020","67.167.170.137","Mozilla/5.0 (Windows NT 10.0; Win64; x64) AppleWebKit/537.36 (KHTML, like Gecko) Chrome/132.0.0.0 Safari/537.36","WebKit","Chrome","132.0.0.0","Windows","10.0","https://app.prolific.com/","en-US,en;q=0.9,es;q=0.8","67007d655b10fbe2d93c3508","679edb085803f58d6bbd31ca","679ef04f47198feecf467dad","","1144","","4","Intro Trial","",""
"","","","","","html-button-response","32","119820","0.0-4.28-0.28-0.28","36","1","2025-02-02 04:11:25","bc01a2b6f61d06f6604adb8657495020","67.167.170.137","Mozilla/5.0 (Windows NT 10.0; Win64; x64) AppleWebKit/537.36 (KHTML, like Gecko) Chrome/132.0.0.0 Safari/537.36","WebKit","Chrome","132.0.0.0","Windows","10.0","https://app.prolific.com/","en-US,en;q=0.9,es;q=0.8","67007d655b10fbe2d93c3508","679edb085803f58d6bbd31ca","679ef04f47198feecf467dad","","515","","4","Intro Trial","",""
"","","","","","html-button-response","33","120583","0.0-4.29-0.29-0.29","36","1","2025-02-02 04:11:25","bc01a2b6f61d06f6604adb8657495020","67.167.170.137","Mozilla/5.0 (Windows NT 10.0; Win64; x64) AppleWebKit/537.36 (KHTML, like Gecko) Chrome/132.0.0.0 Safari/537.36","WebKit","Chrome","132.0.0.0","Windows","10.0","https://app.prolific.com/","en-US,en;q=0.9,es;q=0.8","67007d655b10fbe2d93c3508","679edb085803f58d6bbd31ca","679ef04f47198feecf467dad","","761","","4","Intro Trial","",""
"","","","","","html-button-response","34","121251","0.0-4.30-0.30-0.30","36","1","2025-02-02 04:11:25","bc01a2b6f61d06f6604adb8657495020","67.167.170.137","Mozilla/5.0 (Windows NT 10.0; Win64; x64) AppleWebKit/537.36 (KHTML, like Gecko) Chrome/132.0.0.0 Safari/537.36","WebKit","Chrome","132.0.0.0","Windows","10.0","https://app.prolific.com/","en-US,en;q=0.9,es;q=0.8","67007d655b10fbe2d93c3508","679edb085803f58d6bbd31ca","679ef04f47198feecf467dad","","667","","1","Intro Trial","",""
"","","","","","html-button-response","35","121418","0.0-4.31-0.31-0.31","36","1","2025-02-02 04:11:25","bc01a2b6f61d06f6604adb8657495020","67.167.170.137","Mozilla/5.0 (Windows NT 10.0; Win64; x64) AppleWebKit/537.36 (KHTML, like Gecko) Chrome/132.0.0.0 Safari/537.36","WebKit","Chrome","132.0.0.0","Windows","10.0","https://app.prolific.com/","en-US,en;q=0.9,es;q=0.8","67007d655b10fbe2d93c3508","679edb085803f58d6bbd31ca","679ef04f47198feecf467dad","","165","","1","Intro Trial","",""
"","","","","","html-button-response","36","122486","0.0-4.32-0.32-0.32","36","1","2025-02-02 04:11:25","bc01a2b6f61d06f6604adb8657495020","67.167.170.137","Mozilla/5.0 (Windows NT 10.0; Win64; x64) AppleWebKit/537.36 (KHTML, like Gecko) Chrome/132.0.0.0 Safari/537.36","WebKit","Chrome","132.0.0.0","Windows","10.0","https://app.prolific.com/","en-US,en;q=0.9,es;q=0.8","67007d655b10fbe2d93c3508","679edb085803f58d6bbd31ca","679ef04f47198feecf467dad","","1067","","5","Intro Trial","",""
"","","","","","html-keyboard-response","37","143511","0.0-5.0","36","1","2025-02-02 04:11:25","bc01a2b6f61d06f6604adb8657495020","67.167.170.137","Mozilla/5.0 (Windows NT 10.0; Win64; x64) AppleWebKit/537.36 (KHTML, like Gecko) Chrome/132.0.0.0 Safari/537.36","WebKit","Chrome","132.0.0.0","Windows","10.0","https://app.prolific.com/","en-US,en;q=0.9,es;q=0.8","67007d655b10fbe2d93c3508","679edb085803f58d6bbd31ca","679ef04f47198feecf467dad","","21023","[""You sorted incorrectly by using the balance 12 times. <br><br> <img src='G_1.jpg' height='90'><img src='G_2.jpg' height='90'><img src='G_5.jpg' height='90'><img src='G_3.jpg' height='90'><img src='G_4.jpg' height='90'><br><br> Your final order is 4,2,1,3,5<br><br><br>Omgne Sort in this game will allow you to sort correctly by using the balance 8 times. Press Enter to learn it!""]","enter","","",""
"","","","","","html-keyboard-response","38","170292","0.0-6.0","36","1","2025-02-02 04:11:25","bc01a2b6f61d06f6604adb8657495020","67.167.170.137","Mozilla/5.0 (Windows NT 10.0; Win64; x64) AppleWebKit/537.36 (KHTML, like Gecko) Chrome/132.0.0.0 Safari/537.36","WebKit","Chrome","132.0.0.0","Windows","10.0","https://app.prolific.com/","en-US,en;q=0.9,es;q=0.8","67007d655b10fbe2d93c3508","679edb085803f58d6bbd31ca","679ef04f47198feecf467dad","","26779","<p>Welcome to the learning phase! <br><br> You will learn by six examples. The following learning trials will not be used to calculate your performance. <br><br> Press Enter to continue.<p/>","audiovolumeup","","",""
"","","","","","html-keyboard-response","39","178475","0.0-7.0","36","1","2025-02-02 04:11:25","bc01a2b6f61d06f6604adb8657495020","67.167.170.137","Mozilla/5.0 (Windows NT 10.0; Win64; x64) AppleWebKit/537.36 (KHTML, like Gecko) Chrome/132.0.0.0 Safari/537.36","WebKit","Chrome","132.0.0.0","Windows","10.0","https://app.prolific.com/","en-US,en;q=0.9,es;q=0.8","67007d655b10fbe2d93c3508","679edb085803f58d6bbd31ca","679ef04f47198feecf467dad","","8182","[""Example 1<br><br>You will watch Omnge Sort in action. Try to identify any patterns in the comparisons made by this method. <br><br>Press Enter to continue.""]","enter","","",""
"","","","","","html-keyboard-response","40","178991","0.0-8.0","36","1","2025-02-02 04:11:25","bc01a2b6f61d06f6604adb8657495020","67.167.170.137","Mozilla/5.0 (Windows NT 10.0; Win64; x64) AppleWebKit/537.36 (KHTML, like Gecko) Chrome/132.0.0.0 Safari/537.36","WebKit","Chrome","132.0.0.0","Windows","10.0","https://app.prolific.com/","en-US,en;q=0.9,es;q=0.8","67007d655b10fbe2d93c3508","679edb085803f58d6bbd31ca","679ef04f47198feecf467dad","","null","<img id='selected' src='G_5.jpg' height='90'> <img src='G_1.jpg' height='90'> <img src='G_7.jpg' height='90'> <img src='G_9.jpg' height='90'> <img src='G_3.jpg' height='90'>","null","Animation0","",""
"","","","","","html-keyboard-response","41","179509","0.0-9.0","36","1","2025-02-02 04:11:25","bc01a2b6f61d06f6604adb8657495020","67.167.170.137","Mozilla/5.0 (Windows NT 10.0; Win64; x64) AppleWebKit/537.36 (KHTML, like Gecko) Chrome/132.0.0.0 Safari/537.36","WebKit","Chrome","132.0.0.0","Windows","10.0","https://app.prolific.com/","en-US,en;q=0.9,es;q=0.8","67007d655b10fbe2d93c3508","679edb085803f58d6bbd31ca","679ef04f47198feecf467dad","","null","<img id='selected' src='G_5.jpg' height='90'> <img id='selected' src='G_1.jpg' height='90'> <img src='G_7.jpg' height='90'> <img src='G_9.jpg' height='90'> <img src='G_3.jpg' height='90'>","null","Animation0","",""
"","","","","","html-keyboard-response","42","180023","0.0-10.0","36","1","2025-02-02 04:11:25","bc01a2b6f61d06f6604adb8657495020","67.167.170.137","Mozilla/5.0 (Windows NT 10.0; Win64; x64) AppleWebKit/537.36 (KHTML, like Gecko) Chrome/132.0.0.0 Safari/537.36","WebKit","Chrome","132.0.0.0","Windows","10.0","https://app.prolific.com/","en-US,en;q=0.9,es;q=0.8","67007d655b10fbe2d93c3508","679edb085803f58d6bbd31ca","679ef04f47198feecf467dad","","null","<img id='swapped' src='G_1.jpg' height='90'> <img id='swapped' src='G_5.jpg' height='90'> <img src='G_7.jpg' height='90'> <img src='G_9.jpg' height='90'> <img src='G_3.jpg' height='90'>","null","Animation0","",""
"","","","","","html-keyboard-response","43","180336","0.0-11.0","36","1","2025-02-02 04:11:25","bc01a2b6f61d06f6604adb8657495020","67.167.170.137","Mozilla/5.0 (Windows NT 10.0; Win64; x64) AppleWebKit/537.36 (KHTML, like Gecko) Chrome/132.0.0.0 Safari/537.36","WebKit","Chrome","132.0.0.0","Windows","10.0","https://app.prolific.com/","en-US,en;q=0.9,es;q=0.8","67007d655b10fbe2d93c3508","679edb085803f58d6bbd31ca","679ef04f47198feecf467dad","","null","<img  src='G_1.jpg' height='90'> <img  src='G_5.jpg' height='90'> <img src='G_7.jpg' height='90'> <img src='G_9.jpg' height='90'> <img src='G_3.jpg' height='90'>","null","Animation0","",""
"","","","","","html-keyboard-response","44","180853","0.0-12.0","36","1","2025-02-02 04:11:25","bc01a2b6f61d06f6604adb8657495020","67.167.170.137","Mozilla/5.0 (Windows NT 10.0; Win64; x64) AppleWebKit/537.36 (KHTML, like Gecko) Chrome/132.0.0.0 Safari/537.36","WebKit","Chrome","132.0.0.0","Windows","10.0","https://app.prolific.com/","en-US,en;q=0.9,es;q=0.8","67007d655b10fbe2d93c3508","679edb085803f58d6bbd31ca","679ef04f47198feecf467dad","","null","<img  src='G_1.jpg' height='90'> <img id='selected'  src='G_5.jpg' height='90'> <img src='G_7.jpg' height='90'> <img src='G_9.jpg' height='90'> <img src='G_3.jpg' height='90'>","null","Animation0","",""
"","","","","","html-keyboard-response","45","181369","0.0-13.0","36","1","2025-02-02 04:11:25","bc01a2b6f61d06f6604adb8657495020","67.167.170.137","Mozilla/5.0 (Windows NT 10.0; Win64; x64) AppleWebKit/537.36 (KHTML, like Gecko) Chrome/132.0.0.0 Safari/537.36","WebKit","Chrome","132.0.0.0","Windows","10.0","https://app.prolific.com/","en-US,en;q=0.9,es;q=0.8","67007d655b10fbe2d93c3508","679edb085803f58d6bbd31ca","679ef04f47198feecf467dad","","null","<img  src='G_1.jpg' height='90'> <img id='selected'  src='G_5.jpg' height='90'> <img id='selected' src='G_7.jpg' height='90'> <img src='G_9.jpg' height='90'> <img src='G_3.jpg' height='90'>","null","Animation0","",""
"","","","","","html-keyboard-response","46","181884","0.0-14.0","36","1","2025-02-02 04:11:25","bc01a2b6f61d06f6604adb8657495020","67.167.170.137","Mozilla/5.0 (Windows NT 10.0; Win64; x64) AppleWebKit/537.36 (KHTML, like Gecko) Chrome/132.0.0.0 Safari/537.36","WebKit","Chrome","132.0.0.0","Windows","10.0","https://app.prolific.com/","en-US,en;q=0.9,es;q=0.8","67007d655b10fbe2d93c3508","679edb085803f58d6bbd31ca","679ef04f47198feecf467dad","","null","<img  src='G_1.jpg' height='90'> <img id='selected'  src='G_5.jpg' height='90'> <img id='selected' src='G_7.jpg' height='90'> <img src='G_9.jpg' height='90'> <img src='G_3.jpg' height='90'>","null","Animation0","",""
"","","","","","html-keyboard-response","47","182199","0.0-15.0","36","1","2025-02-02 04:11:25","bc01a2b6f61d06f6604adb8657495020","67.167.170.137","Mozilla/5.0 (Windows NT 10.0; Win64; x64) AppleWebKit/537.36 (KHTML, like Gecko) Chrome/132.0.0.0 Safari/537.36","WebKit","Chrome","132.0.0.0","Windows","10.0","https://app.prolific.com/","en-US,en;q=0.9,es;q=0.8","67007d655b10fbe2d93c3508","679edb085803f58d6bbd31ca","679ef04f47198feecf467dad","","null","<img  src='G_1.jpg' height='90'> <img   src='G_5.jpg' height='90'> <img  src='G_7.jpg' height='90'> <img src='G_9.jpg' height='90'> <img src='G_3.jpg' height='90'>","null","Animation0","",""
"","","","","","html-keyboard-response","48","182701","0.0-16.0","36","1","2025-02-02 04:11:25","bc01a2b6f61d06f6604adb8657495020","67.167.170.137","Mozilla/5.0 (Windows NT 10.0; Win64; x64) AppleWebKit/537.36 (KHTML, like Gecko) Chrome/132.0.0.0 Safari/537.36","WebKit","Chrome","132.0.0.0","Windows","10.0","https://app.prolific.com/","en-US,en;q=0.9,es;q=0.8","67007d655b10fbe2d93c3508","679edb085803f58d6bbd31ca","679ef04f47198feecf467dad","","null","<img  src='G_1.jpg' height='90'> <img   src='G_5.jpg' height='90'> <img id='selected'  src='G_7.jpg' height='90'> <img src='G_9.jpg' height='90'> <img src='G_3.jpg' height='90'>","null","Animation0","",""
"","","","","","html-keyboard-response","49","183215","0.0-17.0","36","1","2025-02-02 04:11:25","bc01a2b6f61d06f6604adb8657495020","67.167.170.137","Mozilla/5.0 (Windows NT 10.0; Win64; x64) AppleWebKit/537.36 (KHTML, like Gecko) Chrome/132.0.0.0 Safari/537.36","WebKit","Chrome","132.0.0.0","Windows","10.0","https://app.prolific.com/","en-US,en;q=0.9,es;q=0.8","67007d655b10fbe2d93c3508","679edb085803f58d6bbd31ca","679ef04f47198feecf467dad","","null","<img  src='G_1.jpg' height='90'> <img   src='G_5.jpg' height='90'> <img id='selected'  src='G_7.jpg' height='90'> <img id='selected' src='G_9.jpg' height='90'> <img src='G_3.jpg' height='90'>","null","Animation0","",""
"","","","","","html-keyboard-response","50","183728","0.0-18.0","36","1","2025-02-02 04:11:25","bc01a2b6f61d06f6604adb8657495020","67.167.170.137","Mozilla/5.0 (Windows NT 10.0; Win64; x64) AppleWebKit/537.36 (KHTML, like Gecko) Chrome/132.0.0.0 Safari/537.36","WebKit","Chrome","132.0.0.0","Windows","10.0","https://app.prolific.com/","en-US,en;q=0.9,es;q=0.8","67007d655b10fbe2d93c3508","679edb085803f58d6bbd31ca","679ef04f47198feecf467dad","","null","<img  src='G_1.jpg' height='90'> <img   src='G_5.jpg' height='90'> <img id='selected'  src='G_7.jpg' height='90'> <img id='selected' src='G_9.jpg' height='90'> <img src='G_3.jpg' height='90'>","null","Animation0","",""
"","","","","","html-keyboard-response","51","184043","0.0-19.0","36","1","2025-02-02 04:11:25","bc01a2b6f61d06f6604adb8657495020","67.167.170.137","Mozilla/5.0 (Windows NT 10.0; Win64; x64) AppleWebKit/537.36 (KHTML, like Gecko) Chrome/132.0.0.0 Safari/537.36","WebKit","Chrome","132.0.0.0","Windows","10.0","https://app.prolific.com/","en-US,en;q=0.9,es;q=0.8","67007d655b10fbe2d93c3508","679edb085803f58d6bbd31ca","679ef04f47198feecf467dad","","null","<img  src='G_1.jpg' height='90'> <img   src='G_5.jpg' height='90'> <img   src='G_7.jpg' height='90'> <img  src='G_9.jpg' height='90'> <img src='G_3.jpg' height='90'>","null","Animation0","",""
"","","","","","html-keyboard-response","52","184558","0.0-20.0","36","1","2025-02-02 04:11:25","bc01a2b6f61d06f6604adb8657495020","67.167.170.137","Mozilla/5.0 (Windows NT 10.0; Win64; x64) AppleWebKit/537.36 (KHTML, like Gecko) Chrome/132.0.0.0 Safari/537.36","WebKit","Chrome","132.0.0.0","Windows","10.0","https://app.prolific.com/","en-US,en;q=0.9,es;q=0.8","67007d655b10fbe2d93c3508","679edb085803f58d6bbd31ca","679ef04f47198feecf467dad","","null","<img  src='G_1.jpg' height='90'> <img   src='G_5.jpg' height='90'> <img   src='G_7.jpg' height='90'> <img id='selected'  src='G_9.jpg' height='90'> <img src='G_3.jpg' height='90'>","null","Animation0","",""
"","","","","","html-keyboard-response","53","185074","0.0-21.0","36","1","2025-02-02 04:11:25","bc01a2b6f61d06f6604adb8657495020","67.167.170.137","Mozilla/5.0 (Windows NT 10.0; Win64; x64) AppleWebKit/537.36 (KHTML, like Gecko) Chrome/132.0.0.0 Safari/537.36","WebKit","Chrome","132.0.0.0","Windows","10.0","https://app.prolific.com/","en-US,en;q=0.9,es;q=0.8","67007d655b10fbe2d93c3508","679edb085803f58d6bbd31ca","679ef04f47198feecf467dad","","null","<img  src='G_1.jpg' height='90'> <img   src='G_5.jpg' height='90'> <img   src='G_7.jpg' height='90'> <img id='selected'  src='G_9.jpg' height='90'> <img id='selected' src='G_3.jpg' height='90'>","null","Animation0","",""
"","","","","","html-keyboard-response","54","185590","0.0-22.0","36","1","2025-02-02 04:11:25","bc01a2b6f61d06f6604adb8657495020","67.167.170.137","Mozilla/5.0 (Windows NT 10.0; Win64; x64) AppleWebKit/537.36 (KHTML, like Gecko) Chrome/132.0.0.0 Safari/537.36","WebKit","Chrome","132.0.0.0","Windows","10.0","https://app.prolific.com/","en-US,en;q=0.9,es;q=0.8","67007d655b10fbe2d93c3508","679edb085803f58d6bbd31ca","679ef04f47198feecf467dad","","null","<img  src='G_1.jpg' height='90'> <img   src='G_5.jpg' height='90'> <img   src='G_7.jpg' height='90'> <img id='selected'  src='G_9.jpg' height='90'> <img id='selected' src='G_3.jpg' height='90'>","null","Animation0","",""
"","","","","","html-keyboard-response","55","185903","0.0-23.0","36","1","2025-02-02 04:11:25","bc01a2b6f61d06f6604adb8657495020","67.167.170.137","Mozilla/5.0 (Windows NT 10.0; Win64; x64) AppleWebKit/537.36 (KHTML, like Gecko) Chrome/132.0.0.0 Safari/537.36","WebKit","Chrome","132.0.0.0","Windows","10.0","https://app.prolific.com/","en-US,en;q=0.9,es;q=0.8","67007d655b10fbe2d93c3508","679edb085803f58d6bbd31ca","679ef04f47198feecf467dad","","null","<img  src='G_1.jpg' height='90'> <img   src='G_5.jpg' height='90'> <img   src='G_7.jpg' height='90'> <img   src='G_9.jpg' height='90'> <img  src='G_3.jpg' height='90'>","null","Animation0","",""
"","","","","","html-keyboard-response","56","189610","0.0-24.0","36","1","2025-02-02 04:11:25","bc01a2b6f61d06f6604adb8657495020","67.167.170.137","Mozilla/5.0 (Windows NT 10.0; Win64; x64) AppleWebKit/537.36 (KHTML, like Gecko) Chrome/132.0.0.0 Safari/537.36","WebKit","Chrome","132.0.0.0","Windows","10.0","https://app.prolific.com/","en-US,en;q=0.9,es;q=0.8","67007d655b10fbe2d93c3508","679edb085803f58d6bbd31ca","679ef04f47198feecf467dad","","3706","[""Did you notice any patterns? <br><br>Press Enter to watch that example again and follow the steps of Omgne Sort.""]","enter","","",""
"","","","","","html-button-response","57","190026","0.0-25.0","36","1","2025-02-02 04:11:25","bc01a2b6f61d06f6604adb8657495020","67.167.170.137","Mozilla/5.0 (Windows NT 10.0; Win64; x64) AppleWebKit/537.36 (KHTML, like Gecko) Chrome/132.0.0.0 Safari/537.36","WebKit","Chrome","132.0.0.0","Windows","10.0","https://app.prolific.com/","en-US,en;q=0.9,es;q=0.8","67007d655b10fbe2d93c3508","679edb085803f58d6bbd31ca","679ef04f47198feecf467dad","","null","<img id='selected' src='G_5.jpg' height='90'> <img src='G_1.jpg' height='90'> <img src='G_7.jpg' height='90'> <img src='G_9.jpg' height='90'> <img src='G_3.jpg' height='90'>","null","Learning example 0","",""
"","","","","","html-button-response","58","190336","0.0-26.0","36","1","2025-02-02 04:11:25","bc01a2b6f61d06f6604adb8657495020","67.167.170.137","Mozilla/5.0 (Windows NT 10.0; Win64; x64) AppleWebKit/537.36 (KHTML, like Gecko) Chrome/132.0.0.0 Safari/537.36","WebKit","Chrome","132.0.0.0","Windows","10.0","https://app.prolific.com/","en-US,en;q=0.9,es;q=0.8","67007d655b10fbe2d93c3508","679edb085803f58d6bbd31ca","679ef04f47198feecf467dad","","null","<img id='selected' src='G_5.jpg' height='90'> <img id='selected' src='G_1.jpg' height='90'> <img src='G_7.jpg' height='90'> <img src='G_9.jpg' height='90'> <img src='G_3.jpg' height='90'>","null","Learning example 0","",""
"","","","","","html-button-response","59","190649","0.0-27.0","36","1","2025-02-02 04:11:25","bc01a2b6f61d06f6604adb8657495020","67.167.170.137","Mozilla/5.0 (Windows NT 10.0; Win64; x64) AppleWebKit/537.36 (KHTML, like Gecko) Chrome/132.0.0.0 Safari/537.36","WebKit","Chrome","132.0.0.0","Windows","10.0","https://app.prolific.com/","en-US,en;q=0.9,es;q=0.8","67007d655b10fbe2d93c3508","679edb085803f58d6bbd31ca","679ef04f47198feecf467dad","","null","<img id='swapped' src='G_1.jpg' height='90'> <img id='swapped' src='G_5.jpg' height='90'> <img src='G_7.jpg' height='90'> <img src='G_9.jpg' height='90'> <img src='G_3.jpg' height='90'>","null","Learning example 0","",""
"","","","","","html-button-response","60","196546","0.0-28.0-0.0-0.0","36","1","2025-02-02 04:11:25","bc01a2b6f61d06f6604adb8657495020","67.167.170.137","Mozilla/5.0 (Windows NT 10.0; Win64; x64) AppleWebKit/537.36 (KHTML, like Gecko) Chrome/132.0.0.0 Safari/537.36","WebKit","Chrome","132.0.0.0","Windows","10.0","https://app.prolific.com/","en-US,en;q=0.9,es;q=0.8","67007d655b10fbe2d93c3508","679edb085803f58d6bbd31ca","679ef04f47198feecf467dad","","5894","<img id='swapped' src='G_1.jpg' height='90'> <img id='swapped' src='G_5.jpg' height='90'> <img src='G_7.jpg' height='90'> <img src='G_9.jpg' height='90'> <img src='G_3.jpg' height='90'>","0","Learning example 0","",""
"","","","","","html-button-response","61","197323","0.0-28.1-0.1-0.1","36","1","2025-02-02 04:11:25","bc01a2b6f61d06f6604adb8657495020","67.167.170.137","Mozilla/5.0 (Windows NT 10.0; Win64; x64) AppleWebKit/537.36 (KHTML, like Gecko) Chrome/132.0.0.0 Safari/537.36","WebKit","Chrome","132.0.0.0","Windows","10.0","https://app.prolific.com/","en-US,en;q=0.9,es;q=0.8","67007d655b10fbe2d93c3508","679edb085803f58d6bbd31ca","679ef04f47198feecf467dad","","775","<img id='swapped' src='G_1.jpg' height='90'> <img id='swapped' src='G_5.jpg' height='90'> <img src='G_7.jpg' height='90'> <img src='G_9.jpg' height='90'> <img src='G_3.jpg' height='90'>","1","Learning example 0","",""
"","","","","","html-button-response","62","197532","0.0-29.0","36","1","2025-02-02 04:11:25","bc01a2b6f61d06f6604adb8657495020","67.167.170.137","Mozilla/5.0 (Windows NT 10.0; Win64; x64) AppleWebKit/537.36 (KHTML, like Gecko) Chrome/132.0.0.0 Safari/537.36","WebKit","Chrome","132.0.0.0","Windows","10.0","https://app.prolific.com/","en-US,en;q=0.9,es;q=0.8","67007d655b10fbe2d93c3508","679edb085803f58d6bbd31ca","679ef04f47198feecf467dad","","null","<img  src='G_1.jpg' height='90'> <img  src='G_5.jpg' height='90'> <img src='G_7.jpg' height='90'> <img src='G_9.jpg' height='90'> <img src='G_3.jpg' height='90'>","null","Learning example 0","",""
"","","","","","html-button-response","63","197939","0.0-30.0","36","1","2025-02-02 04:11:25","bc01a2b6f61d06f6604adb8657495020","67.167.170.137","Mozilla/5.0 (Windows NT 10.0; Win64; x64) AppleWebKit/537.36 (KHTML, like Gecko) Chrome/132.0.0.0 Safari/537.36","WebKit","Chrome","132.0.0.0","Windows","10.0","https://app.prolific.com/","en-US,en;q=0.9,es;q=0.8","67007d655b10fbe2d93c3508","679edb085803f58d6bbd31ca","679ef04f47198feecf467dad","","null","<img  src='G_1.jpg' height='90'> <img id='selected'  src='G_5.jpg' height='90'> <img src='G_7.jpg' height='90'> <img src='G_9.jpg' height='90'> <img src='G_3.jpg' height='90'>","null","Learning example 0","",""
"","","","","","html-button-response","64","198253","0.0-31.0","36","1","2025-02-02 04:11:25","bc01a2b6f61d06f6604adb8657495020","67.167.170.137","Mozilla/5.0 (Windows NT 10.0; Win64; x64) AppleWebKit/537.36 (KHTML, like Gecko) Chrome/132.0.0.0 Safari/537.36","WebKit","Chrome","132.0.0.0","Windows","10.0","https://app.prolific.com/","en-US,en;q=0.9,es;q=0.8","67007d655b10fbe2d93c3508","679edb085803f58d6bbd31ca","679ef04f47198feecf467dad","","null","<img  src='G_1.jpg' height='90'> <img id='selected'  src='G_5.jpg' height='90'> <img id='selected' src='G_7.jpg' height='90'> <img src='G_9.jpg' height='90'> <img src='G_3.jpg' height='90'>","null","Learning example 0","",""
"","","","","","html-button-response","65","198565","0.0-32.0","36","1","2025-02-02 04:11:25","bc01a2b6f61d06f6604adb8657495020","67.167.170.137","Mozilla/5.0 (Windows NT 10.0; Win64; x64) AppleWebKit/537.36 (KHTML, like Gecko) Chrome/132.0.0.0 Safari/537.36","WebKit","Chrome","132.0.0.0","Windows","10.0","https://app.prolific.com/","en-US,en;q=0.9,es;q=0.8","67007d655b10fbe2d93c3508","679edb085803f58d6bbd31ca","679ef04f47198feecf467dad","","null","<img  src='G_1.jpg' height='90'> <img id='selected'  src='G_5.jpg' height='90'> <img id='selected' src='G_7.jpg' height='90'> <img src='G_9.jpg' height='90'> <img src='G_3.jpg' height='90'>","null","Learning example 0","",""
"","","","","","html-button-response","66","199223","0.0-33.0-0.0-0.0","36","1","2025-02-02 04:11:25","bc01a2b6f61d06f6604adb8657495020","67.167.170.137","Mozilla/5.0 (Windows NT 10.0; Win64; x64) AppleWebKit/537.36 (KHTML, like Gecko) Chrome/132.0.0.0 Safari/537.36","WebKit","Chrome","132.0.0.0","Windows","10.0","https://app.prolific.com/","en-US,en;q=0.9,es;q=0.8","67007d655b10fbe2d93c3508","679edb085803f58d6bbd31ca","679ef04f47198feecf467dad","","657","<img  src='G_1.jpg' height='90'> <img id='selected'  src='G_5.jpg' height='90'> <img id='selected' src='G_7.jpg' height='90'> <img src='G_9.jpg' height='90'> <img src='G_3.jpg' height='90'>","1","Learning example 0","",""
"","","","","","html-button-response","67","200073","0.0-33.1-0.1-0.1","36","1","2025-02-02 04:11:25","bc01a2b6f61d06f6604adb8657495020","67.167.170.137","Mozilla/5.0 (Windows NT 10.0; Win64; x64) AppleWebKit/537.36 (KHTML, like Gecko) Chrome/132.0.0.0 Safari/537.36","WebKit","Chrome","132.0.0.0","Windows","10.0","https://app.prolific.com/","en-US,en;q=0.9,es;q=0.8","67007d655b10fbe2d93c3508","679edb085803f58d6bbd31ca","679ef04f47198feecf467dad","","847","<img  src='G_1.jpg' height='90'> <img id='selected'  src='G_5.jpg' height='90'> <img id='selected' src='G_7.jpg' height='90'> <img src='G_9.jpg' height='90'> <img src='G_3.jpg' height='90'>","2","Learning example 0","",""
"","","","","","html-button-response","68","200275","0.0-34.0","36","1","2025-02-02 04:11:25","bc01a2b6f61d06f6604adb8657495020","67.167.170.137","Mozilla/5.0 (Windows NT 10.0; Win64; x64) AppleWebKit/537.36 (KHTML, like Gecko) Chrome/132.0.0.0 Safari/537.36","WebKit","Chrome","132.0.0.0","Windows","10.0","https://app.prolific.com/","en-US,en;q=0.9,es;q=0.8","67007d655b10fbe2d93c3508","679edb085803f58d6bbd31ca","679ef04f47198feecf467dad","","null","<img  src='G_1.jpg' height='90'> <img   src='G_5.jpg' height='90'> <img  src='G_7.jpg' height='90'> <img src='G_9.jpg' height='90'> <img src='G_3.jpg' height='90'>","null","Learning example 0","",""
"","","","","","html-button-response","69","200681","0.0-35.0","36","1","2025-02-02 04:11:25","bc01a2b6f61d06f6604adb8657495020","67.167.170.137","Mozilla/5.0 (Windows NT 10.0; Win64; x64) AppleWebKit/537.36 (KHTML, like Gecko) Chrome/132.0.0.0 Safari/537.36","WebKit","Chrome","132.0.0.0","Windows","10.0","https://app.prolific.com/","en-US,en;q=0.9,es;q=0.8","67007d655b10fbe2d93c3508","679edb085803f58d6bbd31ca","679ef04f47198feecf467dad","","null","<img  src='G_1.jpg' height='90'> <img   src='G_5.jpg' height='90'> <img id='selected'  src='G_7.jpg' height='90'> <img src='G_9.jpg' height='90'> <img src='G_3.jpg' height='90'>","null","Learning example 0","",""
"","","","","","html-button-response","70","200993","0.0-36.0","36","1","2025-02-02 04:11:25","bc01a2b6f61d06f6604adb8657495020","67.167.170.137","Mozilla/5.0 (Windows NT 10.0; Win64; x64) AppleWebKit/537.36 (KHTML, like Gecko) Chrome/132.0.0.0 Safari/537.36","WebKit","Chrome","132.0.0.0","Windows","10.0","https://app.prolific.com/","en-US,en;q=0.9,es;q=0.8","67007d655b10fbe2d93c3508","679edb085803f58d6bbd31ca","679ef04f47198feecf467dad","","null","<img  src='G_1.jpg' height='90'> <img   src='G_5.jpg' height='90'> <img id='selected'  src='G_7.jpg' height='90'> <img id='selected' src='G_9.jpg' height='90'> <img src='G_3.jpg' height='90'>","null","Learning example 0","",""
"","","","","","html-button-response","71","201306","0.0-37.0","36","1","2025-02-02 04:11:25","bc01a2b6f61d06f6604adb8657495020","67.167.170.137","Mozilla/5.0 (Windows NT 10.0; Win64; x64) AppleWebKit/537.36 (KHTML, like Gecko) Chrome/132.0.0.0 Safari/537.36","WebKit","Chrome","132.0.0.0","Windows","10.0","https://app.prolific.com/","en-US,en;q=0.9,es;q=0.8","67007d655b10fbe2d93c3508","679edb085803f58d6bbd31ca","679ef04f47198feecf467dad","","null","<img  src='G_1.jpg' height='90'> <img   src='G_5.jpg' height='90'> <img id='selected'  src='G_7.jpg' height='90'> <img id='selected' src='G_9.jpg' height='90'> <img src='G_3.jpg' height='90'>","null","Learning example 0","",""
"","","","","","html-button-response","72","202069","0.0-38.0-0.0-0.0","36","1","2025-02-02 04:11:25","bc01a2b6f61d06f6604adb8657495020","67.167.170.137","Mozilla/5.0 (Windows NT 10.0; Win64; x64) AppleWebKit/537.36 (KHTML, like Gecko) Chrome/132.0.0.0 Safari/537.36","WebKit","Chrome","132.0.0.0","Windows","10.0","https://app.prolific.com/","en-US,en;q=0.9,es;q=0.8","67007d655b10fbe2d93c3508","679edb085803f58d6bbd31ca","679ef04f47198feecf467dad","","761","<img  src='G_1.jpg' height='90'> <img   src='G_5.jpg' height='90'> <img id='selected'  src='G_7.jpg' height='90'> <img id='selected' src='G_9.jpg' height='90'> <img src='G_3.jpg' height='90'>","2","Learning example 0","",""
"","","","","","html-button-response","73","202819","0.0-38.1-0.1-0.1","36","1","2025-02-02 04:11:25","bc01a2b6f61d06f6604adb8657495020","67.167.170.137","Mozilla/5.0 (Windows NT 10.0; Win64; x64) AppleWebKit/537.36 (KHTML, like Gecko) Chrome/132.0.0.0 Safari/537.36","WebKit","Chrome","132.0.0.0","Windows","10.0","https://app.prolific.com/","en-US,en;q=0.9,es;q=0.8","67007d655b10fbe2d93c3508","679edb085803f58d6bbd31ca","679ef04f47198feecf467dad","","748","<img  src='G_1.jpg' height='90'> <img   src='G_5.jpg' height='90'> <img id='selected'  src='G_7.jpg' height='90'> <img id='selected' src='G_9.jpg' height='90'> <img src='G_3.jpg' height='90'>","3","Learning example 0","",""
"","","","","","html-button-response","74","203032","0.0-39.0","36","1","2025-02-02 04:11:25","bc01a2b6f61d06f6604adb8657495020","67.167.170.137","Mozilla/5.0 (Windows NT 10.0; Win64; x64) AppleWebKit/537.36 (KHTML, like Gecko) Chrome/132.0.0.0 Safari/537.36","WebKit","Chrome","132.0.0.0","Windows","10.0","https://app.prolific.com/","en-US,en;q=0.9,es;q=0.8","67007d655b10fbe2d93c3508","679edb085803f58d6bbd31ca","679ef04f47198feecf467dad","","null","<img  src='G_1.jpg' height='90'> <img   src='G_5.jpg' height='90'> <img   src='G_7.jpg' height='90'> <img  src='G_9.jpg' height='90'> <img src='G_3.jpg' height='90'>","null","Learning example 0","",""
"","","","","","html-button-response","75","203439","0.0-40.0","36","1","2025-02-02 04:11:25","bc01a2b6f61d06f6604adb8657495020","67.167.170.137","Mozilla/5.0 (Windows NT 10.0; Win64; x64) AppleWebKit/537.36 (KHTML, like Gecko) Chrome/132.0.0.0 Safari/537.36","WebKit","Chrome","132.0.0.0","Windows","10.0","https://app.prolific.com/","en-US,en;q=0.9,es;q=0.8","67007d655b10fbe2d93c3508","679edb085803f58d6bbd31ca","679ef04f47198feecf467dad","","null","<img  src='G_1.jpg' height='90'> <img   src='G_5.jpg' height='90'> <img   src='G_7.jpg' height='90'> <img id='selected'  src='G_9.jpg' height='90'> <img src='G_3.jpg' height='90'>","null","Learning example 0","",""
"","","","","","html-button-response","76","203753","0.0-41.0","36","1","2025-02-02 04:11:25","bc01a2b6f61d06f6604adb8657495020","67.167.170.137","Mozilla/5.0 (Windows NT 10.0; Win64; x64) AppleWebKit/537.36 (KHTML, like Gecko) Chrome/132.0.0.0 Safari/537.36","WebKit","Chrome","132.0.0.0","Windows","10.0","https://app.prolific.com/","en-US,en;q=0.9,es;q=0.8","67007d655b10fbe2d93c3508","679edb085803f58d6bbd31ca","679ef04f47198feecf467dad","","null","<img  src='G_1.jpg' height='90'> <img   src='G_5.jpg' height='90'> <img   src='G_7.jpg' height='90'> <img id='selected'  src='G_9.jpg' height='90'> <img id='selected' src='G_3.jpg' height='90'>","null","Learning example 0","",""
"","","","","","html-button-response","77","204065","0.0-42.0","36","1","2025-02-02 04:11:25","bc01a2b6f61d06f6604adb8657495020","67.167.170.137","Mozilla/5.0 (Windows NT 10.0; Win64; x64) AppleWebKit/537.36 (KHTML, like Gecko) Chrome/132.0.0.0 Safari/537.36","WebKit","Chrome","132.0.0.0","Windows","10.0","https://app.prolific.com/","en-US,en;q=0.9,es;q=0.8","67007d655b10fbe2d93c3508","679edb085803f58d6bbd31ca","679ef04f47198feecf467dad","","null","<img  src='G_1.jpg' height='90'> <img   src='G_5.jpg' height='90'> <img   src='G_7.jpg' height='90'> <img id='selected'  src='G_9.jpg' height='90'> <img id='selected' src='G_3.jpg' height='90'>","null","Learning example 0","",""
"","","","","","html-button-response","78","204707","0.0-43.0-0.0-0.0","36","1","2025-02-02 04:11:25","bc01a2b6f61d06f6604adb8657495020","67.167.170.137","Mozilla/5.0 (Windows NT 10.0; Win64; x64) AppleWebKit/537.36 (KHTML, like Gecko) Chrome/132.0.0.0 Safari/537.36","WebKit","Chrome","132.0.0.0","Windows","10.0","https://app.prolific.com/","en-US,en;q=0.9,es;q=0.8","67007d655b10fbe2d93c3508","679edb085803f58d6bbd31ca","679ef04f47198feecf467dad","","639","<img  src='G_1.jpg' height='90'> <img   src='G_5.jpg' height='90'> <img   src='G_7.jpg' height='90'> <img id='selected'  src='G_9.jpg' height='90'> <img id='selected' src='G_3.jpg' height='90'>","3","Learning example 0","",""
"","","","","","html-button-response","79","205473","0.0-43.1-0.1-0.1","36","1","2025-02-02 04:11:25","bc01a2b6f61d06f6604adb8657495020","67.167.170.137","Mozilla/5.0 (Windows NT 10.0; Win64; x64) AppleWebKit/537.36 (KHTML, like Gecko) Chrome/132.0.0.0 Safari/537.36","WebKit","Chrome","132.0.0.0","Windows","10.0","https://app.prolific.com/","en-US,en;q=0.9,es;q=0.8","67007d655b10fbe2d93c3508","679edb085803f58d6bbd31ca","679ef04f47198feecf467dad","","763","<img  src='G_1.jpg' height='90'> <img   src='G_5.jpg' height='90'> <img   src='G_7.jpg' height='90'> <img id='selected'  src='G_9.jpg' height='90'> <img id='selected' src='G_3.jpg' height='90'>","4","Learning example 0","",""
"","","","","","html-button-response","80","205676","0.0-44.0","36","1","2025-02-02 04:11:25","bc01a2b6f61d06f6604adb8657495020","67.167.170.137","Mozilla/5.0 (Windows NT 10.0; Win64; x64) AppleWebKit/537.36 (KHTML, like Gecko) Chrome/132.0.0.0 Safari/537.36","WebKit","Chrome","132.0.0.0","Windows","10.0","https://app.prolific.com/","en-US,en;q=0.9,es;q=0.8","67007d655b10fbe2d93c3508","679edb085803f58d6bbd31ca","679ef04f47198feecf467dad","","null","<img  src='G_1.jpg' height='90'> <img   src='G_5.jpg' height='90'> <img   src='G_7.jpg' height='90'> <img   src='G_9.jpg' height='90'> <img  src='G_3.jpg' height='90'>","null","Learning example 0","",""
"","","","","","html-keyboard-response","81","212664","0.0-45.0","36","1","2025-02-02 04:11:25","bc01a2b6f61d06f6604adb8657495020","67.167.170.137","Mozilla/5.0 (Windows NT 10.0; Win64; x64) AppleWebKit/537.36 (KHTML, like Gecko) Chrome/132.0.0.0 Safari/537.36","WebKit","Chrome","132.0.0.0","Windows","10.0","https://app.prolific.com/","en-US,en;q=0.9,es;q=0.8","67007d655b10fbe2d93c3508","679edb085803f58d6bbd31ca","679ef04f47198feecf467dad","","6985","[""Final order was 1,2,3,4,5. The initial order was 2,1,3,4,5.<br>It took 1 swaps to sort it correctly with Omgne Sort. <br><br>Press Enter to continue.""]","enter","","",""
"","","","","","html-keyboard-response","82","219782","0.0-46.0","36","1","2025-02-02 04:11:25","bc01a2b6f61d06f6604adb8657495020","67.167.170.137","Mozilla/5.0 (Windows NT 10.0; Win64; x64) AppleWebKit/537.36 (KHTML, like Gecko) Chrome/132.0.0.0 Safari/537.36","WebKit","Chrome","132.0.0.0","Windows","10.0","https://app.prolific.com/","en-US,en;q=0.9,es;q=0.8","67007d655b10fbe2d93c3508","679edb085803f58d6bbd31ca","679ef04f47198feecf467dad","","7117","[""Example 2<br><br>You will watch Omnge Sort in action. Try to identify any patterns in the comparisons made by this method. <br><br>Press Enter to continue.""]","enter","","",""
"","","","","","html-keyboard-response","83","220284","0.0-47.0","36","1","2025-02-02 04:11:25","bc01a2b6f61d06f6604adb8657495020","67.167.170.137","Mozilla/5.0 (Windows NT 10.0; Win64; x64) AppleWebKit/537.36 (KHTML, like Gecko) Chrome/132.0.0.0 Safari/537.36","WebKit","Chrome","132.0.0.0","Windows","10.0","https://app.prolific.com/","en-US,en;q=0.9,es;q=0.8","67007d655b10fbe2d93c3508","679edb085803f58d6bbd31ca","679ef04f47198feecf467dad","","null","<img id='selected' src='G_1.jpg' height='90'> <img src='G_2.jpg' height='90'> <img src='G_8.jpg' height='90'> <img src='G_3.jpg' height='90'> <img src='G_7.jpg' height='90'> <img src='G_5.jpg' height='90'> <img src='G_6.jpg' height='90'> <img src='G_4.jpg' height='90'>","null","Animation1","",""
"","","","","","html-keyboard-response","84","220800","0.0-48.0","36","1","2025-02-02 04:11:25","bc01a2b6f61d06f6604adb8657495020","67.167.170.137","Mozilla/5.0 (Windows NT 10.0; Win64; x64) AppleWebKit/537.36 (KHTML, like Gecko) Chrome/132.0.0.0 Safari/537.36","WebKit","Chrome","132.0.0.0","Windows","10.0","https://app.prolific.com/","en-US,en;q=0.9,es;q=0.8","67007d655b10fbe2d93c3508","679edb085803f58d6bbd31ca","679ef04f47198feecf467dad","","null","<img id='selected' src='G_1.jpg' height='90'> <img id='selected' src='G_2.jpg' height='90'> <img src='G_8.jpg' height='90'> <img src='G_3.jpg' height='90'> <img src='G_7.jpg' height='90'> <img src='G_5.jpg' height='90'> <img src='G_6.jpg' height='90'> <img src='G_4.jpg' height='90'>","null","Animation1","",""
"","","","","","html-keyboard-response","85","221316","0.0-49.0","36","1","2025-02-02 04:11:25","bc01a2b6f61d06f6604adb8657495020","67.167.170.137","Mozilla/5.0 (Windows NT 10.0; Win64; x64) AppleWebKit/537.36 (KHTML, like Gecko) Chrome/132.0.0.0 Safari/537.36","WebKit","Chrome","132.0.0.0","Windows","10.0","https://app.prolific.com/","en-US,en;q=0.9,es;q=0.8","67007d655b10fbe2d93c3508","679edb085803f58d6bbd31ca","679ef04f47198feecf467dad","","null","<img id='selected' src='G_1.jpg' height='90'> <img id='selected' src='G_2.jpg' height='90'> <img src='G_8.jpg' height='90'> <img src='G_3.jpg' height='90'> <img src='G_7.jpg' height='90'> <img src='G_5.jpg' height='90'> <img src='G_6.jpg' height='90'> <img src='G_4.jpg' height='90'>","null","Animation1","",""
"","","","","","html-keyboard-response","86","221630","0.0-50.0","36","1","2025-02-02 04:11:25","bc01a2b6f61d06f6604adb8657495020","67.167.170.137","Mozilla/5.0 (Windows NT 10.0; Win64; x64) AppleWebKit/537.36 (KHTML, like Gecko) Chrome/132.0.0.0 Safari/537.36","WebKit","Chrome","132.0.0.0","Windows","10.0","https://app.prolific.com/","en-US,en;q=0.9,es;q=0.8","67007d655b10fbe2d93c3508","679edb085803f58d6bbd31ca","679ef04f47198feecf467dad","","null","<img  src='G_1.jpg' height='90'> <img  src='G_2.jpg' height='90'> <img src='G_8.jpg' height='90'> <img src='G_3.jpg' height='90'> <img src='G_7.jpg' height='90'> <img src='G_5.jpg' height='90'> <img src='G_6.jpg' height='90'> <img src='G_4.jpg' height='90'>","null","Animation1","",""
"","","","","","html-keyboard-response","87","222146","0.0-51.0","36","1","2025-02-02 04:11:25","bc01a2b6f61d06f6604adb8657495020","67.167.170.137","Mozilla/5.0 (Windows NT 10.0; Win64; x64) AppleWebKit/537.36 (KHTML, like Gecko) Chrome/132.0.0.0 Safari/537.36","WebKit","Chrome","132.0.0.0","Windows","10.0","https://app.prolific.com/","en-US,en;q=0.9,es;q=0.8","67007d655b10fbe2d93c3508","679edb085803f58d6bbd31ca","679ef04f47198feecf467dad","","null","<img  src='G_1.jpg' height='90'> <img id='selected'  src='G_2.jpg' height='90'> <img src='G_8.jpg' height='90'> <img src='G_3.jpg' height='90'> <img src='G_7.jpg' height='90'> <img src='G_5.jpg' height='90'> <img src='G_6.jpg' height='90'> <img src='G_4.jpg' height='90'>","null","Animation1","",""
"","","","","","html-keyboard-response","88","222661","0.0-52.0","36","1","2025-02-02 04:11:25","bc01a2b6f61d06f6604adb8657495020","67.167.170.137","Mozilla/5.0 (Windows NT 10.0; Win64; x64) AppleWebKit/537.36 (KHTML, like Gecko) Chrome/132.0.0.0 Safari/537.36","WebKit","Chrome","132.0.0.0","Windows","10.0","https://app.prolific.com/","en-US,en;q=0.9,es;q=0.8","67007d655b10fbe2d93c3508","679edb085803f58d6bbd31ca","679ef04f47198feecf467dad","","null","<img  src='G_1.jpg' height='90'> <img id='selected'  src='G_2.jpg' height='90'> <img id='selected' src='G_8.jpg' height='90'> <img src='G_3.jpg' height='90'> <img src='G_7.jpg' height='90'> <img src='G_5.jpg' height='90'> <img src='G_6.jpg' height='90'> <img src='G_4.jpg' height='90'>","null","Animation1","",""
"","","","","","html-keyboard-response","89","223178","0.0-53.0","36","1","2025-02-02 04:11:25","bc01a2b6f61d06f6604adb8657495020","67.167.170.137","Mozilla/5.0 (Windows NT 10.0; Win64; x64) AppleWebKit/537.36 (KHTML, like Gecko) Chrome/132.0.0.0 Safari/537.36","WebKit","Chrome","132.0.0.0","Windows","10.0","https://app.prolific.com/","en-US,en;q=0.9,es;q=0.8","67007d655b10fbe2d93c3508","679edb085803f58d6bbd31ca","679ef04f47198feecf467dad","","null","<img  src='G_1.jpg' height='90'> <img id='swapped' src='G_8.jpg' height='90'> <img id='swapped'  src='G_2.jpg' height='90'> <img src='G_3.jpg' height='90'> <img src='G_7.jpg' height='90'> <img src='G_5.jpg' height='90'> <img src='G_6.jpg' height='90'> <img src='G_4.jpg' height='90'>","null","Animation1","",""
"","","","","","html-keyboard-response","90","223489","0.0-54.0","36","1","2025-02-02 04:11:25","bc01a2b6f61d06f6604adb8657495020","67.167.170.137","Mozilla/5.0 (Windows NT 10.0; Win64; x64) AppleWebKit/537.36 (KHTML, like Gecko) Chrome/132.0.0.0 Safari/537.36","WebKit","Chrome","132.0.0.0","Windows","10.0","https://app.prolific.com/","en-US,en;q=0.9,es;q=0.8","67007d655b10fbe2d93c3508","679edb085803f58d6bbd31ca","679ef04f47198feecf467dad","","null","<img  src='G_1.jpg' height='90'> <img  src='G_8.jpg' height='90'> <img   src='G_2.jpg' height='90'> <img src='G_3.jpg' height='90'> <img src='G_7.jpg' height='90'> <img src='G_5.jpg' height='90'> <img src='G_6.jpg' height='90'> <img src='G_4.jpg' height='90'>","null","Animation1","",""
"","","","","","html-keyboard-response","91","224006","0.0-55.0","36","1","2025-02-02 04:11:25","bc01a2b6f61d06f6604adb8657495020","67.167.170.137","Mozilla/5.0 (Windows NT 10.0; Win64; x64) AppleWebKit/537.36 (KHTML, like Gecko) Chrome/132.0.0.0 Safari/537.36","WebKit","Chrome","132.0.0.0","Windows","10.0","https://app.prolific.com/","en-US,en;q=0.9,es;q=0.8","67007d655b10fbe2d93c3508","679edb085803f58d6bbd31ca","679ef04f47198feecf467dad","","null","<img id='selected'  src='G_1.jpg' height='90'> <img  src='G_8.jpg' height='90'> <img   src='G_2.jpg' height='90'> <img src='G_3.jpg' height='90'> <img src='G_7.jpg' height='90'> <img src='G_5.jpg' height='90'> <img src='G_6.jpg' height='90'> <img src='G_4.jpg' height='90'>","null","Animation1","",""
"","","","","","html-keyboard-response","92","224520","0.0-56.0","36","1","2025-02-02 04:11:25","bc01a2b6f61d06f6604adb8657495020","67.167.170.137","Mozilla/5.0 (Windows NT 10.0; Win64; x64) AppleWebKit/537.36 (KHTML, like Gecko) Chrome/132.0.0.0 Safari/537.36","WebKit","Chrome","132.0.0.0","Windows","10.0","https://app.prolific.com/","en-US,en;q=0.9,es;q=0.8","67007d655b10fbe2d93c3508","679edb085803f58d6bbd31ca","679ef04f47198feecf467dad","","null","<img id='selected'  src='G_1.jpg' height='90'> <img id='selected'  src='G_8.jpg' height='90'> <img   src='G_2.jpg' height='90'> <img src='G_3.jpg' height='90'> <img src='G_7.jpg' height='90'> <img src='G_5.jpg' height='90'> <img src='G_6.jpg' height='90'> <img src='G_4.jpg' height='90'>","null","Animation1","",""
"","","","","","html-keyboard-response","93","225036","0.0-57.0","36","1","2025-02-02 04:11:25","bc01a2b6f61d06f6604adb8657495020","67.167.170.137","Mozilla/5.0 (Windows NT 10.0; Win64; x64) AppleWebKit/537.36 (KHTML, like Gecko) Chrome/132.0.0.0 Safari/537.36","WebKit","Chrome","132.0.0.0","Windows","10.0","https://app.prolific.com/","en-US,en;q=0.9,es;q=0.8","67007d655b10fbe2d93c3508","679edb085803f58d6bbd31ca","679ef04f47198feecf467dad","","null","<img id='swapped'  src='G_8.jpg' height='90'> <img id='swapped'  src='G_1.jpg' height='90'> <img   src='G_2.jpg' height='90'> <img src='G_3.jpg' height='90'> <img src='G_7.jpg' height='90'> <img src='G_5.jpg' height='90'> <img src='G_6.jpg' height='90'> <img src='G_4.jpg' height='90'>","null","Animation1","",""
"","","","","","html-keyboard-response","94","225346","0.0-58.0","36","1","2025-02-02 04:11:25","bc01a2b6f61d06f6604adb8657495020","67.167.170.137","Mozilla/5.0 (Windows NT 10.0; Win64; x64) AppleWebKit/537.36 (KHTML, like Gecko) Chrome/132.0.0.0 Safari/537.36","WebKit","Chrome","132.0.0.0","Windows","10.0","https://app.prolific.com/","en-US,en;q=0.9,es;q=0.8","67007d655b10fbe2d93c3508","679edb085803f58d6bbd31ca","679ef04f47198feecf467dad","","null","<img   src='G_8.jpg' height='90'> <img   src='G_1.jpg' height='90'> <img   src='G_2.jpg' height='90'> <img src='G_3.jpg' height='90'> <img src='G_7.jpg' height='90'> <img src='G_5.jpg' height='90'> <img src='G_6.jpg' height='90'> <img src='G_4.jpg' height='90'>","null","Animation1","",""
"","","","","","html-keyboard-response","95","225860","0.0-59.0","36","1","2025-02-02 04:11:25","bc01a2b6f61d06f6604adb8657495020","67.167.170.137","Mozilla/5.0 (Windows NT 10.0; Win64; x64) AppleWebKit/537.36 (KHTML, like Gecko) Chrome/132.0.0.0 Safari/537.36","WebKit","Chrome","132.0.0.0","Windows","10.0","https://app.prolific.com/","en-US,en;q=0.9,es;q=0.8","67007d655b10fbe2d93c3508","679edb085803f58d6bbd31ca","679ef04f47198feecf467dad","","null","<img   src='G_8.jpg' height='90'> <img   src='G_1.jpg' height='90'> <img id='selected'   src='G_2.jpg' height='90'> <img src='G_3.jpg' height='90'> <img src='G_7.jpg' height='90'> <img src='G_5.jpg' height='90'> <img src='G_6.jpg' height='90'> <img src='G_4.jpg' height='90'>","null","Animation1","",""
"","","","","","html-keyboard-response","96","226377","0.0-60.0","36","1","2025-02-02 04:11:25","bc01a2b6f61d06f6604adb8657495020","67.167.170.137","Mozilla/5.0 (Windows NT 10.0; Win64; x64) AppleWebKit/537.36 (KHTML, like Gecko) Chrome/132.0.0.0 Safari/537.36","WebKit","Chrome","132.0.0.0","Windows","10.0","https://app.prolific.com/","en-US,en;q=0.9,es;q=0.8","67007d655b10fbe2d93c3508","679edb085803f58d6bbd31ca","679ef04f47198feecf467dad","","null","<img   src='G_8.jpg' height='90'> <img   src='G_1.jpg' height='90'> <img id='selected'   src='G_2.jpg' height='90'> <img id='selected' src='G_3.jpg' height='90'> <img src='G_7.jpg' height='90'> <img src='G_5.jpg' height='90'> <img src='G_6.jpg' height='90'> <img src='G_4.jpg' height='90'>","null","Animation1","",""
"","","","","","html-keyboard-response","97","226894","0.0-61.0","36","1","2025-02-02 04:11:25","bc01a2b6f61d06f6604adb8657495020","67.167.170.137","Mozilla/5.0 (Windows NT 10.0; Win64; x64) AppleWebKit/537.36 (KHTML, like Gecko) Chrome/132.0.0.0 Safari/537.36","WebKit","Chrome","132.0.0.0","Windows","10.0","https://app.prolific.com/","en-US,en;q=0.9,es;q=0.8","67007d655b10fbe2d93c3508","679edb085803f58d6bbd31ca","679ef04f47198feecf467dad","","null","<img   src='G_8.jpg' height='90'> <img   src='G_1.jpg' height='90'> <img id='swapped' src='G_3.jpg' height='90'> <img id='swapped'   src='G_2.jpg' height='90'> <img src='G_7.jpg' height='90'> <img src='G_5.jpg' height='90'> <img src='G_6.jpg' height='90'> <img src='G_4.jpg' height='90'>","null","Animation1","",""
"","","","","","html-keyboard-response","98","227207","0.0-62.0","36","1","2025-02-02 04:11:25","bc01a2b6f61d06f6604adb8657495020","67.167.170.137","Mozilla/5.0 (Windows NT 10.0; Win64; x64) AppleWebKit/537.36 (KHTML, like Gecko) Chrome/132.0.0.0 Safari/537.36","WebKit","Chrome","132.0.0.0","Windows","10.0","https://app.prolific.com/","en-US,en;q=0.9,es;q=0.8","67007d655b10fbe2d93c3508","679edb085803f58d6bbd31ca","679ef04f47198feecf467dad","","null","<img   src='G_8.jpg' height='90'> <img   src='G_1.jpg' height='90'> <img  src='G_3.jpg' height='90'> <img    src='G_2.jpg' height='90'> <img src='G_7.jpg' height='90'> <img src='G_5.jpg' height='90'> <img src='G_6.jpg' height='90'> <img src='G_4.jpg' height='90'>","null","Animation1","",""
"","","","","","html-keyboard-response","99","227722","0.0-63.0","36","1","2025-02-02 04:11:25","bc01a2b6f61d06f6604adb8657495020","67.167.170.137","Mozilla/5.0 (Windows NT 10.0; Win64; x64) AppleWebKit/537.36 (KHTML, like Gecko) Chrome/132.0.0.0 Safari/537.36","WebKit","Chrome","132.0.0.0","Windows","10.0","https://app.prolific.com/","en-US,en;q=0.9,es;q=0.8","67007d655b10fbe2d93c3508","679edb085803f58d6bbd31ca","679ef04f47198feecf467dad","","null","<img   src='G_8.jpg' height='90'> <img id='selected'   src='G_1.jpg' height='90'> <img  src='G_3.jpg' height='90'> <img    src='G_2.jpg' height='90'> <img src='G_7.jpg' height='90'> <img src='G_5.jpg' height='90'> <img src='G_6.jpg' height='90'> <img src='G_4.jpg' height='90'>","null","Animation1","",""
"","","","","","html-keyboard-response","100","228238","0.0-64.0","36","1","2025-02-02 04:11:25","bc01a2b6f61d06f6604adb8657495020","67.167.170.137","Mozilla/5.0 (Windows NT 10.0; Win64; x64) AppleWebKit/537.36 (KHTML, like Gecko) Chrome/132.0.0.0 Safari/537.36","WebKit","Chrome","132.0.0.0","Windows","10.0","https://app.prolific.com/","en-US,en;q=0.9,es;q=0.8","67007d655b10fbe2d93c3508","679edb085803f58d6bbd31ca","679ef04f47198feecf467dad","","null","<img   src='G_8.jpg' height='90'> <img id='selected'   src='G_1.jpg' height='90'> <img id='selected'  src='G_3.jpg' height='90'> <img    src='G_2.jpg' height='90'> <img src='G_7.jpg' height='90'> <img src='G_5.jpg' height='90'> <img src='G_6.jpg' height='90'> <img src='G_4.jpg' height='90'>","null","Animation1","",""
"","","","","","html-keyboard-response","101","228756","0.0-65.0","36","1","2025-02-02 04:11:25","bc01a2b6f61d06f6604adb8657495020","67.167.170.137","Mozilla/5.0 (Windows NT 10.0; Win64; x64) AppleWebKit/537.36 (KHTML, like Gecko) Chrome/132.0.0.0 Safari/537.36","WebKit","Chrome","132.0.0.0","Windows","10.0","https://app.prolific.com/","en-US,en;q=0.9,es;q=0.8","67007d655b10fbe2d93c3508","679edb085803f58d6bbd31ca","679ef04f47198feecf467dad","","null","<img   src='G_8.jpg' height='90'> <img id='swapped'  src='G_3.jpg' height='90'> <img id='swapped'   src='G_1.jpg' height='90'> <img    src='G_2.jpg' height='90'> <img src='G_7.jpg' height='90'> <img src='G_5.jpg' height='90'> <img src='G_6.jpg' height='90'> <img src='G_4.jpg' height='90'>","null","Animation1","",""
"","","","","","html-keyboard-response","102","229070","0.0-66.0","36","1","2025-02-02 04:11:25","bc01a2b6f61d06f6604adb8657495020","67.167.170.137","Mozilla/5.0 (Windows NT 10.0; Win64; x64) AppleWebKit/537.36 (KHTML, like Gecko) Chrome/132.0.0.0 Safari/537.36","WebKit","Chrome","132.0.0.0","Windows","10.0","https://app.prolific.com/","en-US,en;q=0.9,es;q=0.8","67007d655b10fbe2d93c3508","679edb085803f58d6bbd31ca","679ef04f47198feecf467dad","","null","<img   src='G_8.jpg' height='90'> <img   src='G_3.jpg' height='90'> <img    src='G_1.jpg' height='90'> <img    src='G_2.jpg' height='90'> <img src='G_7.jpg' height='90'> <img src='G_5.jpg' height='90'> <img src='G_6.jpg' height='90'> <img src='G_4.jpg' height='90'>","null","Animation1","",""
"","","","","","html-keyboard-response","103","229573","0.0-67.0","36","1","2025-02-02 04:11:25","bc01a2b6f61d06f6604adb8657495020","67.167.170.137","Mozilla/5.0 (Windows NT 10.0; Win64; x64) AppleWebKit/537.36 (KHTML, like Gecko) Chrome/132.0.0.0 Safari/537.36","WebKit","Chrome","132.0.0.0","Windows","10.0","https://app.prolific.com/","en-US,en;q=0.9,es;q=0.8","67007d655b10fbe2d93c3508","679edb085803f58d6bbd31ca","679ef04f47198feecf467dad","","null","<img id='selected'   src='G_8.jpg' height='90'> <img   src='G_3.jpg' height='90'> <img    src='G_1.jpg' height='90'> <img    src='G_2.jpg' height='90'> <img src='G_7.jpg' height='90'> <img src='G_5.jpg' height='90'> <img src='G_6.jpg' height='90'> <img src='G_4.jpg' height='90'>","null","Animation1","",""
"","","","","","html-keyboard-response","104","230087","0.0-68.0","36","1","2025-02-02 04:11:25","bc01a2b6f61d06f6604adb8657495020","67.167.170.137","Mozilla/5.0 (Windows NT 10.0; Win64; x64) AppleWebKit/537.36 (KHTML, like Gecko) Chrome/132.0.0.0 Safari/537.36","WebKit","Chrome","132.0.0.0","Windows","10.0","https://app.prolific.com/","en-US,en;q=0.9,es;q=0.8","67007d655b10fbe2d93c3508","679edb085803f58d6bbd31ca","679ef04f47198feecf467dad","","null","<img id='selected'   src='G_8.jpg' height='90'> <img id='selected'   src='G_3.jpg' height='90'> <img    src='G_1.jpg' height='90'> <img    src='G_2.jpg' height='90'> <img src='G_7.jpg' height='90'> <img src='G_5.jpg' height='90'> <img src='G_6.jpg' height='90'> <img src='G_4.jpg' height='90'>","null","Animation1","",""
"","","","","","html-keyboard-response","105","230604","0.0-69.0","36","1","2025-02-02 04:11:25","bc01a2b6f61d06f6604adb8657495020","67.167.170.137","Mozilla/5.0 (Windows NT 10.0; Win64; x64) AppleWebKit/537.36 (KHTML, like Gecko) Chrome/132.0.0.0 Safari/537.36","WebKit","Chrome","132.0.0.0","Windows","10.0","https://app.prolific.com/","en-US,en;q=0.9,es;q=0.8","67007d655b10fbe2d93c3508","679edb085803f58d6bbd31ca","679ef04f47198feecf467dad","","null","<img id='swapped'   src='G_3.jpg' height='90'> <img id='swapped'   src='G_8.jpg' height='90'> <img    src='G_1.jpg' height='90'> <img    src='G_2.jpg' height='90'> <img src='G_7.jpg' height='90'> <img src='G_5.jpg' height='90'> <img src='G_6.jpg' height='90'> <img src='G_4.jpg' height='90'>","null","Animation1","",""
"","","","","","html-keyboard-response","106","230913","0.0-70.0","36","1","2025-02-02 04:11:25","bc01a2b6f61d06f6604adb8657495020","67.167.170.137","Mozilla/5.0 (Windows NT 10.0; Win64; x64) AppleWebKit/537.36 (KHTML, like Gecko) Chrome/132.0.0.0 Safari/537.36","WebKit","Chrome","132.0.0.0","Windows","10.0","https://app.prolific.com/","en-US,en;q=0.9,es;q=0.8","67007d655b10fbe2d93c3508","679edb085803f58d6bbd31ca","679ef04f47198feecf467dad","","null","<img    src='G_3.jpg' height='90'> <img    src='G_8.jpg' height='90'> <img    src='G_1.jpg' height='90'> <img    src='G_2.jpg' height='90'> <img src='G_7.jpg' height='90'> <img src='G_5.jpg' height='90'> <img src='G_6.jpg' height='90'> <img src='G_4.jpg' height='90'>","null","Animation1","",""
"","","","","","html-keyboard-response","107","231428","0.0-71.0","36","1","2025-02-02 04:11:25","bc01a2b6f61d06f6604adb8657495020","67.167.170.137","Mozilla/5.0 (Windows NT 10.0; Win64; x64) AppleWebKit/537.36 (KHTML, like Gecko) Chrome/132.0.0.0 Safari/537.36","WebKit","Chrome","132.0.0.0","Windows","10.0","https://app.prolific.com/","en-US,en;q=0.9,es;q=0.8","67007d655b10fbe2d93c3508","679edb085803f58d6bbd31ca","679ef04f47198feecf467dad","","null","<img    src='G_3.jpg' height='90'> <img    src='G_8.jpg' height='90'> <img    src='G_1.jpg' height='90'> <img id='selected'    src='G_2.jpg' height='90'> <img src='G_7.jpg' height='90'> <img src='G_5.jpg' height='90'> <img src='G_6.jpg' height='90'> <img src='G_4.jpg' height='90'>","null","Animation1","",""
"","","","","","html-keyboard-response","108","231943","0.0-72.0","36","1","2025-02-02 04:11:25","bc01a2b6f61d06f6604adb8657495020","67.167.170.137","Mozilla/5.0 (Windows NT 10.0; Win64; x64) AppleWebKit/537.36 (KHTML, like Gecko) Chrome/132.0.0.0 Safari/537.36","WebKit","Chrome","132.0.0.0","Windows","10.0","https://app.prolific.com/","en-US,en;q=0.9,es;q=0.8","67007d655b10fbe2d93c3508","679edb085803f58d6bbd31ca","679ef04f47198feecf467dad","","null","<img    src='G_3.jpg' height='90'> <img    src='G_8.jpg' height='90'> <img    src='G_1.jpg' height='90'> <img id='selected'    src='G_2.jpg' height='90'> <img id='selected' src='G_7.jpg' height='90'> <img src='G_5.jpg' height='90'> <img src='G_6.jpg' height='90'> <img src='G_4.jpg' height='90'>","null","Animation1","",""
"","","","","","html-keyboard-response","109","232460","0.0-73.0","36","1","2025-02-02 04:11:25","bc01a2b6f61d06f6604adb8657495020","67.167.170.137","Mozilla/5.0 (Windows NT 10.0; Win64; x64) AppleWebKit/537.36 (KHTML, like Gecko) Chrome/132.0.0.0 Safari/537.36","WebKit","Chrome","132.0.0.0","Windows","10.0","https://app.prolific.com/","en-US,en;q=0.9,es;q=0.8","67007d655b10fbe2d93c3508","679edb085803f58d6bbd31ca","679ef04f47198feecf467dad","","null","<img    src='G_3.jpg' height='90'> <img    src='G_8.jpg' height='90'> <img    src='G_1.jpg' height='90'> <img id='swapped' src='G_7.jpg' height='90'> <img id='swapped'    src='G_2.jpg' height='90'> <img src='G_5.jpg' height='90'> <img src='G_6.jpg' height='90'> <img src='G_4.jpg' height='90'>","null","Animation1","",""
"","","","","","html-keyboard-response","110","232772","0.0-74.0","36","1","2025-02-02 04:11:25","bc01a2b6f61d06f6604adb8657495020","67.167.170.137","Mozilla/5.0 (Windows NT 10.0; Win64; x64) AppleWebKit/537.36 (KHTML, like Gecko) Chrome/132.0.0.0 Safari/537.36","WebKit","Chrome","132.0.0.0","Windows","10.0","https://app.prolific.com/","en-US,en;q=0.9,es;q=0.8","67007d655b10fbe2d93c3508","679edb085803f58d6bbd31ca","679ef04f47198feecf467dad","","null","<img    src='G_3.jpg' height='90'> <img    src='G_8.jpg' height='90'> <img    src='G_1.jpg' height='90'> <img  src='G_7.jpg' height='90'> <img     src='G_2.jpg' height='90'> <img src='G_5.jpg' height='90'> <img src='G_6.jpg' height='90'> <img src='G_4.jpg' height='90'>","null","Animation1","",""
"","","","","","html-keyboard-response","111","233284","0.0-75.0","36","1","2025-02-02 04:11:25","bc01a2b6f61d06f6604adb8657495020","67.167.170.137","Mozilla/5.0 (Windows NT 10.0; Win64; x64) AppleWebKit/537.36 (KHTML, like Gecko) Chrome/132.0.0.0 Safari/537.36","WebKit","Chrome","132.0.0.0","Windows","10.0","https://app.prolific.com/","en-US,en;q=0.9,es;q=0.8","67007d655b10fbe2d93c3508","679edb085803f58d6bbd31ca","679ef04f47198feecf467dad","","null","<img    src='G_3.jpg' height='90'> <img    src='G_8.jpg' height='90'> <img id='selected'    src='G_1.jpg' height='90'> <img  src='G_7.jpg' height='90'> <img     src='G_2.jpg' height='90'> <img src='G_5.jpg' height='90'> <img src='G_6.jpg' height='90'> <img src='G_4.jpg' height='90'>","null","Animation1","",""
"","","","","","html-keyboard-response","112","233802","0.0-76.0","36","1","2025-02-02 04:11:25","bc01a2b6f61d06f6604adb8657495020","67.167.170.137","Mozilla/5.0 (Windows NT 10.0; Win64; x64) AppleWebKit/537.36 (KHTML, like Gecko) Chrome/132.0.0.0 Safari/537.36","WebKit","Chrome","132.0.0.0","Windows","10.0","https://app.prolific.com/","en-US,en;q=0.9,es;q=0.8","67007d655b10fbe2d93c3508","679edb085803f58d6bbd31ca","679ef04f47198feecf467dad","","null","<img    src='G_3.jpg' height='90'> <img    src='G_8.jpg' height='90'> <img id='selected'    src='G_1.jpg' height='90'> <img id='selected'  src='G_7.jpg' height='90'> <img     src='G_2.jpg' height='90'> <img src='G_5.jpg' height='90'> <img src='G_6.jpg' height='90'> <img src='G_4.jpg' height='90'>","null","Animation1","",""
"","","","","","html-keyboard-response","113","234316","0.0-77.0","36","1","2025-02-02 04:11:25","bc01a2b6f61d06f6604adb8657495020","67.167.170.137","Mozilla/5.0 (Windows NT 10.0; Win64; x64) AppleWebKit/537.36 (KHTML, like Gecko) Chrome/132.0.0.0 Safari/537.36","WebKit","Chrome","132.0.0.0","Windows","10.0","https://app.prolific.com/","en-US,en;q=0.9,es;q=0.8","67007d655b10fbe2d93c3508","679edb085803f58d6bbd31ca","679ef04f47198feecf467dad","","null","<img    src='G_3.jpg' height='90'> <img    src='G_8.jpg' height='90'> <img id='swapped'  src='G_7.jpg' height='90'> <img id='swapped'    src='G_1.jpg' height='90'> <img     src='G_2.jpg' height='90'> <img src='G_5.jpg' height='90'> <img src='G_6.jpg' height='90'> <img src='G_4.jpg' height='90'>","null","Animation1","",""
"","","","","","html-keyboard-response","114","234629","0.0-78.0","36","1","2025-02-02 04:11:25","bc01a2b6f61d06f6604adb8657495020","67.167.170.137","Mozilla/5.0 (Windows NT 10.0; Win64; x64) AppleWebKit/537.36 (KHTML, like Gecko) Chrome/132.0.0.0 Safari/537.36","WebKit","Chrome","132.0.0.0","Windows","10.0","https://app.prolific.com/","en-US,en;q=0.9,es;q=0.8","67007d655b10fbe2d93c3508","679edb085803f58d6bbd31ca","679ef04f47198feecf467dad","","null","<img    src='G_3.jpg' height='90'> <img    src='G_8.jpg' height='90'> <img   src='G_7.jpg' height='90'> <img     src='G_1.jpg' height='90'> <img     src='G_2.jpg' height='90'> <img src='G_5.jpg' height='90'> <img src='G_6.jpg' height='90'> <img src='G_4.jpg' height='90'>","null","Animation1","",""
"","","","","","html-keyboard-response","115","235143","0.0-79.0","36","1","2025-02-02 04:11:25","bc01a2b6f61d06f6604adb8657495020","67.167.170.137","Mozilla/5.0 (Windows NT 10.0; Win64; x64) AppleWebKit/537.36 (KHTML, like Gecko) Chrome/132.0.0.0 Safari/537.36","WebKit","Chrome","132.0.0.0","Windows","10.0","https://app.prolific.com/","en-US,en;q=0.9,es;q=0.8","67007d655b10fbe2d93c3508","679edb085803f58d6bbd31ca","679ef04f47198feecf467dad","","null","<img    src='G_3.jpg' height='90'> <img id='selected'    src='G_8.jpg' height='90'> <img   src='G_7.jpg' height='90'> <img     src='G_1.jpg' height='90'> <img     src='G_2.jpg' height='90'> <img src='G_5.jpg' height='90'> <img src='G_6.jpg' height='90'> <img src='G_4.jpg' height='90'>","null","Animation1","",""
"","","","","","html-keyboard-response","116","235659","0.0-80.0","36","1","2025-02-02 04:11:25","bc01a2b6f61d06f6604adb8657495020","67.167.170.137","Mozilla/5.0 (Windows NT 10.0; Win64; x64) AppleWebKit/537.36 (KHTML, like Gecko) Chrome/132.0.0.0 Safari/537.36","WebKit","Chrome","132.0.0.0","Windows","10.0","https://app.prolific.com/","en-US,en;q=0.9,es;q=0.8","67007d655b10fbe2d93c3508","679edb085803f58d6bbd31ca","679ef04f47198feecf467dad","","null","<img    src='G_3.jpg' height='90'> <img id='selected'    src='G_8.jpg' height='90'> <img id='selected'   src='G_7.jpg' height='90'> <img     src='G_1.jpg' height='90'> <img     src='G_2.jpg' height='90'> <img src='G_5.jpg' height='90'> <img src='G_6.jpg' height='90'> <img src='G_4.jpg' height='90'>","null","Animation1","",""
"","","","","","html-keyboard-response","117","236173","0.0-81.0","36","1","2025-02-02 04:11:25","bc01a2b6f61d06f6604adb8657495020","67.167.170.137","Mozilla/5.0 (Windows NT 10.0; Win64; x64) AppleWebKit/537.36 (KHTML, like Gecko) Chrome/132.0.0.0 Safari/537.36","WebKit","Chrome","132.0.0.0","Windows","10.0","https://app.prolific.com/","en-US,en;q=0.9,es;q=0.8","67007d655b10fbe2d93c3508","679edb085803f58d6bbd31ca","679ef04f47198feecf467dad","","null","<img    src='G_3.jpg' height='90'> <img id='swapped'   src='G_7.jpg' height='90'> <img id='swapped'    src='G_8.jpg' height='90'> <img     src='G_1.jpg' height='90'> <img     src='G_2.jpg' height='90'> <img src='G_5.jpg' height='90'> <img src='G_6.jpg' height='90'> <img src='G_4.jpg' height='90'>","null","Animation1","",""
"","","","","","html-keyboard-response","118","236484","0.0-82.0","36","1","2025-02-02 04:11:25","bc01a2b6f61d06f6604adb8657495020","67.167.170.137","Mozilla/5.0 (Windows NT 10.0; Win64; x64) AppleWebKit/537.36 (KHTML, like Gecko) Chrome/132.0.0.0 Safari/537.36","WebKit","Chrome","132.0.0.0","Windows","10.0","https://app.prolific.com/","en-US,en;q=0.9,es;q=0.8","67007d655b10fbe2d93c3508","679edb085803f58d6bbd31ca","679ef04f47198feecf467dad","","null","<img    src='G_3.jpg' height='90'> <img    src='G_7.jpg' height='90'> <img     src='G_8.jpg' height='90'> <img     src='G_1.jpg' height='90'> <img     src='G_2.jpg' height='90'> <img src='G_5.jpg' height='90'> <img src='G_6.jpg' height='90'> <img src='G_4.jpg' height='90'>","null","Animation1","",""
"","","","","","html-keyboard-response","119","237001","0.0-83.0","36","1","2025-02-02 04:11:25","bc01a2b6f61d06f6604adb8657495020","67.167.170.137","Mozilla/5.0 (Windows NT 10.0; Win64; x64) AppleWebKit/537.36 (KHTML, like Gecko) Chrome/132.0.0.0 Safari/537.36","WebKit","Chrome","132.0.0.0","Windows","10.0","https://app.prolific.com/","en-US,en;q=0.9,es;q=0.8","67007d655b10fbe2d93c3508","679edb085803f58d6bbd31ca","679ef04f47198feecf467dad","","null","<img id='selected'    src='G_3.jpg' height='90'> <img    src='G_7.jpg' height='90'> <img     src='G_8.jpg' height='90'> <img     src='G_1.jpg' height='90'> <img     src='G_2.jpg' height='90'> <img src='G_5.jpg' height='90'> <img src='G_6.jpg' height='90'> <img src='G_4.jpg' height='90'>","null","Animation1","",""
"","","","","","html-keyboard-response","120","237516","0.0-84.0","36","1","2025-02-02 04:11:25","bc01a2b6f61d06f6604adb8657495020","67.167.170.137","Mozilla/5.0 (Windows NT 10.0; Win64; x64) AppleWebKit/537.36 (KHTML, like Gecko) Chrome/132.0.0.0 Safari/537.36","WebKit","Chrome","132.0.0.0","Windows","10.0","https://app.prolific.com/","en-US,en;q=0.9,es;q=0.8","67007d655b10fbe2d93c3508","679edb085803f58d6bbd31ca","679ef04f47198feecf467dad","","null","<img id='selected'    src='G_3.jpg' height='90'> <img id='selected'    src='G_7.jpg' height='90'> <img     src='G_8.jpg' height='90'> <img     src='G_1.jpg' height='90'> <img     src='G_2.jpg' height='90'> <img src='G_5.jpg' height='90'> <img src='G_6.jpg' height='90'> <img src='G_4.jpg' height='90'>","null","Animation1","",""
"","","","","","html-keyboard-response","121","238031","0.0-85.0","36","1","2025-02-02 04:11:25","bc01a2b6f61d06f6604adb8657495020","67.167.170.137","Mozilla/5.0 (Windows NT 10.0; Win64; x64) AppleWebKit/537.36 (KHTML, like Gecko) Chrome/132.0.0.0 Safari/537.36","WebKit","Chrome","132.0.0.0","Windows","10.0","https://app.prolific.com/","en-US,en;q=0.9,es;q=0.8","67007d655b10fbe2d93c3508","679edb085803f58d6bbd31ca","679ef04f47198feecf467dad","","null","<img id='selected'    src='G_3.jpg' height='90'> <img id='selected'    src='G_7.jpg' height='90'> <img     src='G_8.jpg' height='90'> <img     src='G_1.jpg' height='90'> <img     src='G_2.jpg' height='90'> <img src='G_5.jpg' height='90'> <img src='G_6.jpg' height='90'> <img src='G_4.jpg' height='90'>","null","Animation1","",""
"","","","","","html-keyboard-response","122","238344","0.0-86.0","36","1","2025-02-02 04:11:25","bc01a2b6f61d06f6604adb8657495020","67.167.170.137","Mozilla/5.0 (Windows NT 10.0; Win64; x64) AppleWebKit/537.36 (KHTML, like Gecko) Chrome/132.0.0.0 Safari/537.36","WebKit","Chrome","132.0.0.0","Windows","10.0","https://app.prolific.com/","en-US,en;q=0.9,es;q=0.8","67007d655b10fbe2d93c3508","679edb085803f58d6bbd31ca","679ef04f47198feecf467dad","","null","<img     src='G_3.jpg' height='90'> <img     src='G_7.jpg' height='90'> <img     src='G_8.jpg' height='90'> <img     src='G_1.jpg' height='90'> <img     src='G_2.jpg' height='90'> <img src='G_5.jpg' height='90'> <img src='G_6.jpg' height='90'> <img src='G_4.jpg' height='90'>","null","Animation1","",""
"","","","","","html-keyboard-response","123","238863","0.0-87.0","36","1","2025-02-02 04:11:25","bc01a2b6f61d06f6604adb8657495020","67.167.170.137","Mozilla/5.0 (Windows NT 10.0; Win64; x64) AppleWebKit/537.36 (KHTML, like Gecko) Chrome/132.0.0.0 Safari/537.36","WebKit","Chrome","132.0.0.0","Windows","10.0","https://app.prolific.com/","en-US,en;q=0.9,es;q=0.8","67007d655b10fbe2d93c3508","679edb085803f58d6bbd31ca","679ef04f47198feecf467dad","","null","<img     src='G_3.jpg' height='90'> <img     src='G_7.jpg' height='90'> <img     src='G_8.jpg' height='90'> <img     src='G_1.jpg' height='90'> <img id='selected'     src='G_2.jpg' height='90'> <img src='G_5.jpg' height='90'> <img src='G_6.jpg' height='90'> <img src='G_4.jpg' height='90'>","null","Animation1","",""
"","","","","","html-keyboard-response","124","239368","0.0-88.0","36","1","2025-02-02 04:11:25","bc01a2b6f61d06f6604adb8657495020","67.167.170.137","Mozilla/5.0 (Windows NT 10.0; Win64; x64) AppleWebKit/537.36 (KHTML, like Gecko) Chrome/132.0.0.0 Safari/537.36","WebKit","Chrome","132.0.0.0","Windows","10.0","https://app.prolific.com/","en-US,en;q=0.9,es;q=0.8","67007d655b10fbe2d93c3508","679edb085803f58d6bbd31ca","679ef04f47198feecf467dad","","null","<img     src='G_3.jpg' height='90'> <img     src='G_7.jpg' height='90'> <img     src='G_8.jpg' height='90'> <img     src='G_1.jpg' height='90'> <img id='selected'     src='G_2.jpg' height='90'> <img id='selected' src='G_5.jpg' height='90'> <img src='G_6.jpg' height='90'> <img src='G_4.jpg' height='90'>","null","Animation1","",""
"","","","","","html-keyboard-response","125","239885","0.0-89.0","36","1","2025-02-02 04:11:25","bc01a2b6f61d06f6604adb8657495020","67.167.170.137","Mozilla/5.0 (Windows NT 10.0; Win64; x64) AppleWebKit/537.36 (KHTML, like Gecko) Chrome/132.0.0.0 Safari/537.36","WebKit","Chrome","132.0.0.0","Windows","10.0","https://app.prolific.com/","en-US,en;q=0.9,es;q=0.8","67007d655b10fbe2d93c3508","679edb085803f58d6bbd31ca","679ef04f47198feecf467dad","","null","<img     src='G_3.jpg' height='90'> <img     src='G_7.jpg' height='90'> <img     src='G_8.jpg' height='90'> <img     src='G_1.jpg' height='90'> <img id='swapped' src='G_5.jpg' height='90'> <img id='swapped'     src='G_2.jpg' height='90'> <img src='G_6.jpg' height='90'> <img src='G_4.jpg' height='90'>","null","Animation1","",""
"","","","","","html-keyboard-response","126","240195","0.0-90.0","36","1","2025-02-02 04:11:25","bc01a2b6f61d06f6604adb8657495020","67.167.170.137","Mozilla/5.0 (Windows NT 10.0; Win64; x64) AppleWebKit/537.36 (KHTML, like Gecko) Chrome/132.0.0.0 Safari/537.36","WebKit","Chrome","132.0.0.0","Windows","10.0","https://app.prolific.com/","en-US,en;q=0.9,es;q=0.8","67007d655b10fbe2d93c3508","679edb085803f58d6bbd31ca","679ef04f47198feecf467dad","","null","<img     src='G_3.jpg' height='90'> <img     src='G_7.jpg' height='90'> <img     src='G_8.jpg' height='90'> <img     src='G_1.jpg' height='90'> <img  src='G_5.jpg' height='90'> <img      src='G_2.jpg' height='90'> <img src='G_6.jpg' height='90'> <img src='G_4.jpg' height='90'>","null","Animation1","",""
"","","","","","html-keyboard-response","127","240709","0.0-91.0","36","1","2025-02-02 04:11:25","bc01a2b6f61d06f6604adb8657495020","67.167.170.137","Mozilla/5.0 (Windows NT 10.0; Win64; x64) AppleWebKit/537.36 (KHTML, like Gecko) Chrome/132.0.0.0 Safari/537.36","WebKit","Chrome","132.0.0.0","Windows","10.0","https://app.prolific.com/","en-US,en;q=0.9,es;q=0.8","67007d655b10fbe2d93c3508","679edb085803f58d6bbd31ca","679ef04f47198feecf467dad","","null","<img     src='G_3.jpg' height='90'> <img     src='G_7.jpg' height='90'> <img     src='G_8.jpg' height='90'> <img id='selected'     src='G_1.jpg' height='90'> <img  src='G_5.jpg' height='90'> <img      src='G_2.jpg' height='90'> <img src='G_6.jpg' height='90'> <img src='G_4.jpg' height='90'>","null","Animation1","",""
"","","","","","html-keyboard-response","128","241225","0.0-92.0","36","1","2025-02-02 04:11:25","bc01a2b6f61d06f6604adb8657495020","67.167.170.137","Mozilla/5.0 (Windows NT 10.0; Win64; x64) AppleWebKit/537.36 (KHTML, like Gecko) Chrome/132.0.0.0 Safari/537.36","WebKit","Chrome","132.0.0.0","Windows","10.0","https://app.prolific.com/","en-US,en;q=0.9,es;q=0.8","67007d655b10fbe2d93c3508","679edb085803f58d6bbd31ca","679ef04f47198feecf467dad","","null","<img     src='G_3.jpg' height='90'> <img     src='G_7.jpg' height='90'> <img     src='G_8.jpg' height='90'> <img id='selected'     src='G_1.jpg' height='90'> <img id='selected'  src='G_5.jpg' height='90'> <img      src='G_2.jpg' height='90'> <img src='G_6.jpg' height='90'> <img src='G_4.jpg' height='90'>","null","Animation1","",""
"","","","","","html-keyboard-response","129","241742","0.0-93.0","36","1","2025-02-02 04:11:25","bc01a2b6f61d06f6604adb8657495020","67.167.170.137","Mozilla/5.0 (Windows NT 10.0; Win64; x64) AppleWebKit/537.36 (KHTML, like Gecko) Chrome/132.0.0.0 Safari/537.36","WebKit","Chrome","132.0.0.0","Windows","10.0","https://app.prolific.com/","en-US,en;q=0.9,es;q=0.8","67007d655b10fbe2d93c3508","679edb085803f58d6bbd31ca","679ef04f47198feecf467dad","","null","<img     src='G_3.jpg' height='90'> <img     src='G_7.jpg' height='90'> <img     src='G_8.jpg' height='90'> <img id='selected'     src='G_1.jpg' height='90'> <img id='selected'  src='G_5.jpg' height='90'> <img      src='G_2.jpg' height='90'> <img src='G_6.jpg' height='90'> <img src='G_4.jpg' height='90'>","null","Animation1","",""
"","","","","","html-keyboard-response","130","242056","0.0-94.0","36","1","2025-02-02 04:11:25","bc01a2b6f61d06f6604adb8657495020","67.167.170.137","Mozilla/5.0 (Windows NT 10.0; Win64; x64) AppleWebKit/537.36 (KHTML, like Gecko) Chrome/132.0.0.0 Safari/537.36","WebKit","Chrome","132.0.0.0","Windows","10.0","https://app.prolific.com/","en-US,en;q=0.9,es;q=0.8","67007d655b10fbe2d93c3508","679edb085803f58d6bbd31ca","679ef04f47198feecf467dad","","null","<img     src='G_3.jpg' height='90'> <img     src='G_7.jpg' height='90'> <img     src='G_8.jpg' height='90'> <img      src='G_1.jpg' height='90'> <img   src='G_5.jpg' height='90'> <img      src='G_2.jpg' height='90'> <img src='G_6.jpg' height='90'> <img src='G_4.jpg' height='90'>","null","Animation1","",""
"","","","","","html-keyboard-response","131","242569","0.0-95.0","36","1","2025-02-02 04:11:25","bc01a2b6f61d06f6604adb8657495020","67.167.170.137","Mozilla/5.0 (Windows NT 10.0; Win64; x64) AppleWebKit/537.36 (KHTML, like Gecko) Chrome/132.0.0.0 Safari/537.36","WebKit","Chrome","132.0.0.0","Windows","10.0","https://app.prolific.com/","en-US,en;q=0.9,es;q=0.8","67007d655b10fbe2d93c3508","679edb085803f58d6bbd31ca","679ef04f47198feecf467dad","","null","<img     src='G_3.jpg' height='90'> <img     src='G_7.jpg' height='90'> <img     src='G_8.jpg' height='90'> <img      src='G_1.jpg' height='90'> <img   src='G_5.jpg' height='90'> <img id='selected'      src='G_2.jpg' height='90'> <img src='G_6.jpg' height='90'> <img src='G_4.jpg' height='90'>","null","Animation1","",""
"","","","","","html-keyboard-response","132","243086","0.0-96.0","36","1","2025-02-02 04:11:25","bc01a2b6f61d06f6604adb8657495020","67.167.170.137","Mozilla/5.0 (Windows NT 10.0; Win64; x64) AppleWebKit/537.36 (KHTML, like Gecko) Chrome/132.0.0.0 Safari/537.36","WebKit","Chrome","132.0.0.0","Windows","10.0","https://app.prolific.com/","en-US,en;q=0.9,es;q=0.8","67007d655b10fbe2d93c3508","679edb085803f58d6bbd31ca","679ef04f47198feecf467dad","","null","<img     src='G_3.jpg' height='90'> <img     src='G_7.jpg' height='90'> <img     src='G_8.jpg' height='90'> <img      src='G_1.jpg' height='90'> <img   src='G_5.jpg' height='90'> <img id='selected'      src='G_2.jpg' height='90'> <img id='selected' src='G_6.jpg' height='90'> <img src='G_4.jpg' height='90'>","null","Animation1","",""
"","","","","","html-keyboard-response","133","243600","0.0-97.0","36","1","2025-02-02 04:11:25","bc01a2b6f61d06f6604adb8657495020","67.167.170.137","Mozilla/5.0 (Windows NT 10.0; Win64; x64) AppleWebKit/537.36 (KHTML, like Gecko) Chrome/132.0.0.0 Safari/537.36","WebKit","Chrome","132.0.0.0","Windows","10.0","https://app.prolific.com/","en-US,en;q=0.9,es;q=0.8","67007d655b10fbe2d93c3508","679edb085803f58d6bbd31ca","679ef04f47198feecf467dad","","null","<img     src='G_3.jpg' height='90'> <img     src='G_7.jpg' height='90'> <img     src='G_8.jpg' height='90'> <img      src='G_1.jpg' height='90'> <img   src='G_5.jpg' height='90'> <img id='selected'      src='G_2.jpg' height='90'> <img id='selected' src='G_6.jpg' height='90'> <img src='G_4.jpg' height='90'>","null","Animation1","",""
"","","","","","html-keyboard-response","134","243914","0.0-98.0","36","1","2025-02-02 04:11:25","bc01a2b6f61d06f6604adb8657495020","67.167.170.137","Mozilla/5.0 (Windows NT 10.0; Win64; x64) AppleWebKit/537.36 (KHTML, like Gecko) Chrome/132.0.0.0 Safari/537.36","WebKit","Chrome","132.0.0.0","Windows","10.0","https://app.prolific.com/","en-US,en;q=0.9,es;q=0.8","67007d655b10fbe2d93c3508","679edb085803f58d6bbd31ca","679ef04f47198feecf467dad","","null","<img     src='G_3.jpg' height='90'> <img     src='G_7.jpg' height='90'> <img     src='G_8.jpg' height='90'> <img      src='G_1.jpg' height='90'> <img   src='G_5.jpg' height='90'> <img       src='G_2.jpg' height='90'> <img  src='G_6.jpg' height='90'> <img src='G_4.jpg' height='90'>","null","Animation1","",""
"","","","","","html-keyboard-response","135","244430","0.0-99.0","36","1","2025-02-02 04:11:25","bc01a2b6f61d06f6604adb8657495020","67.167.170.137","Mozilla/5.0 (Windows NT 10.0; Win64; x64) AppleWebKit/537.36 (KHTML, like Gecko) Chrome/132.0.0.0 Safari/537.36","WebKit","Chrome","132.0.0.0","Windows","10.0","https://app.prolific.com/","en-US,en;q=0.9,es;q=0.8","67007d655b10fbe2d93c3508","679edb085803f58d6bbd31ca","679ef04f47198feecf467dad","","null","<img     src='G_3.jpg' height='90'> <img     src='G_7.jpg' height='90'> <img     src='G_8.jpg' height='90'> <img      src='G_1.jpg' height='90'> <img   src='G_5.jpg' height='90'> <img       src='G_2.jpg' height='90'> <img id='selected'  src='G_6.jpg' height='90'> <img src='G_4.jpg' height='90'>","null","Animation1","",""
"","","","","","html-keyboard-response","136","244946","0.0-100.0","36","1","2025-02-02 04:11:25","bc01a2b6f61d06f6604adb8657495020","67.167.170.137","Mozilla/5.0 (Windows NT 10.0; Win64; x64) AppleWebKit/537.36 (KHTML, like Gecko) Chrome/132.0.0.0 Safari/537.36","WebKit","Chrome","132.0.0.0","Windows","10.0","https://app.prolific.com/","en-US,en;q=0.9,es;q=0.8","67007d655b10fbe2d93c3508","679edb085803f58d6bbd31ca","679ef04f47198feecf467dad","","null","<img     src='G_3.jpg' height='90'> <img     src='G_7.jpg' height='90'> <img     src='G_8.jpg' height='90'> <img      src='G_1.jpg' height='90'> <img   src='G_5.jpg' height='90'> <img       src='G_2.jpg' height='90'> <img id='selected'  src='G_6.jpg' height='90'> <img id='selected' src='G_4.jpg' height='90'>","null","Animation1","",""
"","","","","","html-keyboard-response","137","245463","0.0-101.0","36","1","2025-02-02 04:11:25","bc01a2b6f61d06f6604adb8657495020","67.167.170.137","Mozilla/5.0 (Windows NT 10.0; Win64; x64) AppleWebKit/537.36 (KHTML, like Gecko) Chrome/132.0.0.0 Safari/537.36","WebKit","Chrome","132.0.0.0","Windows","10.0","https://app.prolific.com/","en-US,en;q=0.9,es;q=0.8","67007d655b10fbe2d93c3508","679edb085803f58d6bbd31ca","679ef04f47198feecf467dad","","null","<img     src='G_3.jpg' height='90'> <img     src='G_7.jpg' height='90'> <img     src='G_8.jpg' height='90'> <img      src='G_1.jpg' height='90'> <img   src='G_5.jpg' height='90'> <img       src='G_2.jpg' height='90'> <img id='swapped' src='G_4.jpg' height='90'> <img id='swapped'  src='G_6.jpg' height='90'>","null","Animation1","",""
"","","","","","html-keyboard-response","138","245777","0.0-102.0","36","1","2025-02-02 04:11:25","bc01a2b6f61d06f6604adb8657495020","67.167.170.137","Mozilla/5.0 (Windows NT 10.0; Win64; x64) AppleWebKit/537.36 (KHTML, like Gecko) Chrome/132.0.0.0 Safari/537.36","WebKit","Chrome","132.0.0.0","Windows","10.0","https://app.prolific.com/","en-US,en;q=0.9,es;q=0.8","67007d655b10fbe2d93c3508","679edb085803f58d6bbd31ca","679ef04f47198feecf467dad","","null","<img     src='G_3.jpg' height='90'> <img     src='G_7.jpg' height='90'> <img     src='G_8.jpg' height='90'> <img      src='G_1.jpg' height='90'> <img   src='G_5.jpg' height='90'> <img       src='G_2.jpg' height='90'> <img  src='G_4.jpg' height='90'> <img   src='G_6.jpg' height='90'>","null","Animation1","",""
"","","","","","html-keyboard-response","139","246290","0.0-103.0","36","1","2025-02-02 04:11:25","bc01a2b6f61d06f6604adb8657495020","67.167.170.137","Mozilla/5.0 (Windows NT 10.0; Win64; x64) AppleWebKit/537.36 (KHTML, like Gecko) Chrome/132.0.0.0 Safari/537.36","WebKit","Chrome","132.0.0.0","Windows","10.0","https://app.prolific.com/","en-US,en;q=0.9,es;q=0.8","67007d655b10fbe2d93c3508","679edb085803f58d6bbd31ca","679ef04f47198feecf467dad","","null","<img     src='G_3.jpg' height='90'> <img     src='G_7.jpg' height='90'> <img     src='G_8.jpg' height='90'> <img      src='G_1.jpg' height='90'> <img   src='G_5.jpg' height='90'> <img id='selected'       src='G_2.jpg' height='90'> <img  src='G_4.jpg' height='90'> <img   src='G_6.jpg' height='90'>","null","Animation1","",""
"","","","","","html-keyboard-response","140","246806","0.0-104.0","36","1","2025-02-02 04:11:25","bc01a2b6f61d06f6604adb8657495020","67.167.170.137","Mozilla/5.0 (Windows NT 10.0; Win64; x64) AppleWebKit/537.36 (KHTML, like Gecko) Chrome/132.0.0.0 Safari/537.36","WebKit","Chrome","132.0.0.0","Windows","10.0","https://app.prolific.com/","en-US,en;q=0.9,es;q=0.8","67007d655b10fbe2d93c3508","679edb085803f58d6bbd31ca","679ef04f47198feecf467dad","","null","<img     src='G_3.jpg' height='90'> <img     src='G_7.jpg' height='90'> <img     src='G_8.jpg' height='90'> <img      src='G_1.jpg' height='90'> <img   src='G_5.jpg' height='90'> <img id='selected'       src='G_2.jpg' height='90'> <img id='selected'  src='G_4.jpg' height='90'> <img   src='G_6.jpg' height='90'>","null","Animation1","",""
"","","","","","html-keyboard-response","141","247323","0.0-105.0","36","1","2025-02-02 04:11:25","bc01a2b6f61d06f6604adb8657495020","67.167.170.137","Mozilla/5.0 (Windows NT 10.0; Win64; x64) AppleWebKit/537.36 (KHTML, like Gecko) Chrome/132.0.0.0 Safari/537.36","WebKit","Chrome","132.0.0.0","Windows","10.0","https://app.prolific.com/","en-US,en;q=0.9,es;q=0.8","67007d655b10fbe2d93c3508","679edb085803f58d6bbd31ca","679ef04f47198feecf467dad","","null","<img     src='G_3.jpg' height='90'> <img     src='G_7.jpg' height='90'> <img     src='G_8.jpg' height='90'> <img      src='G_1.jpg' height='90'> <img   src='G_5.jpg' height='90'> <img id='selected'       src='G_2.jpg' height='90'> <img id='selected'  src='G_4.jpg' height='90'> <img   src='G_6.jpg' height='90'>","null","Animation1","",""
"","","","","","html-keyboard-response","142","247633","0.0-106.0","36","1","2025-02-02 04:11:25","bc01a2b6f61d06f6604adb8657495020","67.167.170.137","Mozilla/5.0 (Windows NT 10.0; Win64; x64) AppleWebKit/537.36 (KHTML, like Gecko) Chrome/132.0.0.0 Safari/537.36","WebKit","Chrome","132.0.0.0","Windows","10.0","https://app.prolific.com/","en-US,en;q=0.9,es;q=0.8","67007d655b10fbe2d93c3508","679edb085803f58d6bbd31ca","679ef04f47198feecf467dad","","null","<img     src='G_3.jpg' height='90'> <img     src='G_7.jpg' height='90'> <img     src='G_8.jpg' height='90'> <img      src='G_1.jpg' height='90'> <img   src='G_5.jpg' height='90'> <img        src='G_2.jpg' height='90'> <img   src='G_4.jpg' height='90'> <img   src='G_6.jpg' height='90'>","null","Animation1","",""
"","","","","","html-keyboard-response","143","249710","0.0-107.0","36","1","2025-02-02 04:11:25","bc01a2b6f61d06f6604adb8657495020","67.167.170.137","Mozilla/5.0 (Windows NT 10.0; Win64; x64) AppleWebKit/537.36 (KHTML, like Gecko) Chrome/132.0.0.0 Safari/537.36","WebKit","Chrome","132.0.0.0","Windows","10.0","https://app.prolific.com/","en-US,en;q=0.9,es;q=0.8","67007d655b10fbe2d93c3508","679edb085803f58d6bbd31ca","679ef04f47198feecf467dad","","2073","[""Did you notice any patterns? <br><br>Press Enter to watch that example again and follow the steps of Omgne Sort.""]","enter","","",""
"","","","","","html-button-response","144","250114","0.0-108.0","36","1","2025-02-02 04:11:25","bc01a2b6f61d06f6604adb8657495020","67.167.170.137","Mozilla/5.0 (Windows NT 10.0; Win64; x64) AppleWebKit/537.36 (KHTML, like Gecko) Chrome/132.0.0.0 Safari/537.36","WebKit","Chrome","132.0.0.0","Windows","10.0","https://app.prolific.com/","en-US,en;q=0.9,es;q=0.8","67007d655b10fbe2d93c3508","679edb085803f58d6bbd31ca","679ef04f47198feecf467dad","","null","<img id='selected' src='G_1.jpg' height='90'> <img src='G_2.jpg' height='90'> <img src='G_8.jpg' height='90'> <img src='G_3.jpg' height='90'> <img src='G_7.jpg' height='90'> <img src='G_5.jpg' height='90'> <img src='G_6.jpg' height='90'> <img src='G_4.jpg' height='90'>","null","Learning example 1","",""
"","","","","","html-button-response","145","250427","0.0-109.0","36","1","2025-02-02 04:11:25","bc01a2b6f61d06f6604adb8657495020","67.167.170.137","Mozilla/5.0 (Windows NT 10.0; Win64; x64) AppleWebKit/537.36 (KHTML, like Gecko) Chrome/132.0.0.0 Safari/537.36","WebKit","Chrome","132.0.0.0","Windows","10.0","https://app.prolific.com/","en-US,en;q=0.9,es;q=0.8","67007d655b10fbe2d93c3508","679edb085803f58d6bbd31ca","679ef04f47198feecf467dad","","null","<img id='selected' src='G_1.jpg' height='90'> <img id='selected' src='G_2.jpg' height='90'> <img src='G_8.jpg' height='90'> <img src='G_3.jpg' height='90'> <img src='G_7.jpg' height='90'> <img src='G_5.jpg' height='90'> <img src='G_6.jpg' height='90'> <img src='G_4.jpg' height='90'>","null","Learning example 1","",""
"","","","","","html-button-response","146","250740","0.0-110.0","36","1","2025-02-02 04:11:25","bc01a2b6f61d06f6604adb8657495020","67.167.170.137","Mozilla/5.0 (Windows NT 10.0; Win64; x64) AppleWebKit/537.36 (KHTML, like Gecko) Chrome/132.0.0.0 Safari/537.36","WebKit","Chrome","132.0.0.0","Windows","10.0","https://app.prolific.com/","en-US,en;q=0.9,es;q=0.8","67007d655b10fbe2d93c3508","679edb085803f58d6bbd31ca","679ef04f47198feecf467dad","","null","<img id='selected' src='G_1.jpg' height='90'> <img id='selected' src='G_2.jpg' height='90'> <img src='G_8.jpg' height='90'> <img src='G_3.jpg' height='90'> <img src='G_7.jpg' height='90'> <img src='G_5.jpg' height='90'> <img src='G_6.jpg' height='90'> <img src='G_4.jpg' height='90'>","null","Learning example 1","",""
"","","","","","html-button-response","147","251735","0.0-111.0-0.0-0.0","36","1","2025-02-02 04:11:25","bc01a2b6f61d06f6604adb8657495020","67.167.170.137","Mozilla/5.0 (Windows NT 10.0; Win64; x64) AppleWebKit/537.36 (KHTML, like Gecko) Chrome/132.0.0.0 Safari/537.36","WebKit","Chrome","132.0.0.0","Windows","10.0","https://app.prolific.com/","en-US,en;q=0.9,es;q=0.8","67007d655b10fbe2d93c3508","679edb085803f58d6bbd31ca","679ef04f47198feecf467dad","","991","<img id='selected' src='G_1.jpg' height='90'> <img id='selected' src='G_2.jpg' height='90'> <img src='G_8.jpg' height='90'> <img src='G_3.jpg' height='90'> <img src='G_7.jpg' height='90'> <img src='G_5.jpg' height='90'> <img src='G_6.jpg' height='90'> <img src='G_4.jpg' height='90'>","0","Learning example 1","",""
