"success","timeout","failed_images","failed_audio","failed_video","trial_type","trial_index","time_elapsed","internal_node_id","run_id","condition","recorded_at","source_code_version","ip","user_agent","device","browser","browser_version","platform","platform_version","referer","accept_language","PROLIFIC_PID","STUDY_ID","SESSION_ID","view_history","rt","stimulus","response","phase","question_order","presented_choices"
"true","false","[]","[]","[]","preload","0","323","0.0-0.0","38","1","2025-02-02 04:23:03","bc01a2b6f61d06f6604adb8657495020","66.42.132.135","Mozilla/5.0 (Windows NT 10.0; Win64; x64; rv:134.0) Gecko/20100101 Firefox/134.0","","Firefox","134.0","Windows","10.0","https://app.prolific.com/","en-US,en;q=0.5","673a8d64bf587131fa065ec5","679edb085803f58d6bbd31ca","679ef29efb6d9f4d6222c25c","","","","","","",""
"","","","","","instructions","1","13783","0.0-1.0","38","1","2025-02-02 04:23:03","bc01a2b6f61d06f6604adb8657495020","66.42.132.135","Mozilla/5.0 (Windows NT 10.0; Win64; x64; rv:134.0) Gecko/20100101 Firefox/134.0","","Firefox","134.0","Windows","10.0","https://app.prolific.com/","en-US,en;q=0.5","673a8d64bf587131fa065ec5","679edb085803f58d6bbd31ca","679ef29efb6d9f4d6222c25c","[{""page_index"":0,""viewing_time"":13458}]","13458","","","","",""
"","","","","","html-keyboard-response","2","14315","0.0-2.0","38","1","2025-02-02 04:23:03","bc01a2b6f61d06f6604adb8657495020","66.42.132.135","Mozilla/5.0 (Windows NT 10.0; Win64; x64; rv:134.0) Gecko/20100101 Firefox/134.0","","Firefox","134.0","Windows","10.0","https://app.prolific.com/","en-US,en;q=0.5","673a8d64bf587131fa065ec5","679edb085803f58d6bbd31ca","679ef29efb6d9f4d6222c25c","","null","<p> + <p/>","null","","",""
"","","","","","instructions","3","92712","0.0-3.0","38","1","2025-02-02 04:23:03","bc01a2b6f61d06f6604adb8657495020","66.42.132.135","Mozilla/5.0 (Windows NT 10.0; Win64; x64; rv:134.0) Gecko/20100101 Firefox/134.0","","Firefox","134.0","Windows","10.0","https://app.prolific.com/","en-US,en;q=0.5","673a8d64bf587131fa065ec5","679edb085803f58d6bbd31ca","679ef29efb6d9f4d6222c25c","[{""page_index"":0,""viewing_time"":3087},{""page_index"":1,""viewing_time"":33094},{""page_index"":2,""viewing_time"":13150},{""page_index"":3,""viewing_time"":14949},{""page_index"":4,""viewing_time"":14116}]","78396","","","","",""
"","","","","","html-button-response","4","95355","0.0-4.0-0.0-0.0","38","1","2025-02-02 04:23:03","bc01a2b6f61d06f6604adb8657495020","66.42.132.135","Mozilla/5.0 (Windows NT 10.0; Win64; x64; rv:134.0) Gecko/20100101 Firefox/134.0","","Firefox","134.0","Windows","10.0","https://app.prolific.com/","en-US,en;q=0.5","673a8d64bf587131fa065ec5","679edb085803f58d6bbd31ca","679ef29efb6d9f4d6222c25c","","2642","","0","Intro Trial","",""
"","","","","","html-button-response","5","98837","0.0-4.1-0.1-0.1","38","1","2025-02-02 04:23:03","bc01a2b6f61d06f6604adb8657495020","66.42.132.135","Mozilla/5.0 (Windows NT 10.0; Win64; x64; rv:134.0) Gecko/20100101 Firefox/134.0","","Firefox","134.0","Windows","10.0","https://app.prolific.com/","en-US,en;q=0.5","673a8d64bf587131fa065ec5","679edb085803f58d6bbd31ca","679ef29efb6d9f4d6222c25c","","3479","","3","Intro Trial","",""
"","","","","","html-button-response","6","101646","0.0-4.2-0.2-0.2","38","1","2025-02-02 04:23:03","bc01a2b6f61d06f6604adb8657495020","66.42.132.135","Mozilla/5.0 (Windows NT 10.0; Win64; x64; rv:134.0) Gecko/20100101 Firefox/134.0","","Firefox","134.0","Windows","10.0","https://app.prolific.com/","en-US,en;q=0.5","673a8d64bf587131fa065ec5","679edb085803f58d6bbd31ca","679ef29efb6d9f4d6222c25c","","2808","","3","Intro Trial","",""
"","","","","","html-button-response","7","102927","0.0-4.3-0.3-0.3","38","1","2025-02-02 04:23:03","bc01a2b6f61d06f6604adb8657495020","66.42.132.135","Mozilla/5.0 (Windows NT 10.0; Win64; x64; rv:134.0) Gecko/20100101 Firefox/134.0","","Firefox","134.0","Windows","10.0","https://app.prolific.com/","en-US,en;q=0.5","673a8d64bf587131fa065ec5","679edb085803f58d6bbd31ca","679ef29efb6d9f4d6222c25c","","1281","","0","Intro Trial","",""
"","","","","","html-button-response","8","103578","0.0-4.4-0.4-0.4","38","1","2025-02-02 04:23:03","bc01a2b6f61d06f6604adb8657495020","66.42.132.135","Mozilla/5.0 (Windows NT 10.0; Win64; x64; rv:134.0) Gecko/20100101 Firefox/134.0","","Firefox","134.0","Windows","10.0","https://app.prolific.com/","en-US,en;q=0.5","673a8d64bf587131fa065ec5","679edb085803f58d6bbd31ca","679ef29efb6d9f4d6222c25c","","648","","0","Intro Trial","",""
"","","","","","html-button-response","9","103788","0.0-4.5-0.5-0.5","38","1","2025-02-02 04:23:03","bc01a2b6f61d06f6604adb8657495020","66.42.132.135","Mozilla/5.0 (Windows NT 10.0; Win64; x64; rv:134.0) Gecko/20100101 Firefox/134.0","","Firefox","134.0","Windows","10.0","https://app.prolific.com/","en-US,en;q=0.5","673a8d64bf587131fa065ec5","679edb085803f58d6bbd31ca","679ef29efb6d9f4d6222c25c","","209","","0","Intro Trial","",""
"","","","","","html-button-response","10","104138","0.0-4.6-0.6-0.6","38","1","2025-02-02 04:23:03","bc01a2b6f61d06f6604adb8657495020","66.42.132.135","Mozilla/5.0 (Windows NT 10.0; Win64; x64; rv:134.0) Gecko/20100101 Firefox/134.0","","Firefox","134.0","Windows","10.0","https://app.prolific.com/","en-US,en;q=0.5","673a8d64bf587131fa065ec5","679edb085803f58d6bbd31ca","679ef29efb6d9f4d6222c25c","","349","","0","Intro Trial","",""
"","","","","","html-button-response","11","105900","0.0-4.7-0.7-0.7","38","1","2025-02-02 04:23:03","bc01a2b6f61d06f6604adb8657495020","66.42.132.135","Mozilla/5.0 (Windows NT 10.0; Win64; x64; rv:134.0) Gecko/20100101 Firefox/134.0","","Firefox","134.0","Windows","10.0","https://app.prolific.com/","en-US,en;q=0.5","673a8d64bf587131fa065ec5","679edb085803f58d6bbd31ca","679ef29efb6d9f4d6222c25c","","1760","","3","Intro Trial","",""
"","","","","","html-button-response","12","106119","0.0-4.8-0.8-0.8","38","1","2025-02-02 04:23:03","bc01a2b6f61d06f6604adb8657495020","66.42.132.135","Mozilla/5.0 (Windows NT 10.0; Win64; x64; rv:134.0) Gecko/20100101 Firefox/134.0","","Firefox","134.0","Windows","10.0","https://app.prolific.com/","en-US,en;q=0.5","673a8d64bf587131fa065ec5","679edb085803f58d6bbd31ca","679ef29efb6d9f4d6222c25c","","219","","3","Intro Trial","",""
"","","","","","html-button-response","13","107903","0.0-4.9-0.9-0.9","38","1","2025-02-02 04:23:03","bc01a2b6f61d06f6604adb8657495020","66.42.132.135","Mozilla/5.0 (Windows NT 10.0; Win64; x64; rv:134.0) Gecko/20100101 Firefox/134.0","","Firefox","134.0","Windows","10.0","https://app.prolific.com/","en-US,en;q=0.5","673a8d64bf587131fa065ec5","679edb085803f58d6bbd31ca","679ef29efb6d9f4d6222c25c","","1781","","2","Intro Trial","",""
"","","","","","html-button-response","14","108145","0.0-4.10-0.10-0.10","38","1","2025-02-02 04:23:03","bc01a2b6f61d06f6604adb8657495020","66.42.132.135","Mozilla/5.0 (Windows NT 10.0; Win64; x64; rv:134.0) Gecko/20100101 Firefox/134.0","","Firefox","134.0","Windows","10.0","https://app.prolific.com/","en-US,en;q=0.5","673a8d64bf587131fa065ec5","679edb085803f58d6bbd31ca","679ef29efb6d9f4d6222c25c","","241","","2","Intro Trial","",""
"","","","","","html-button-response","15","109198","0.0-4.11-0.11-0.11","38","1","2025-02-02 04:23:03","bc01a2b6f61d06f6604adb8657495020","66.42.132.135","Mozilla/5.0 (Windows NT 10.0; Win64; x64; rv:134.0) Gecko/20100101 Firefox/134.0","","Firefox","134.0","Windows","10.0","https://app.prolific.com/","en-US,en;q=0.5","673a8d64bf587131fa065ec5","679edb085803f58d6bbd31ca","679ef29efb6d9f4d6222c25c","","1052","","1","Intro Trial","",""
"","","","","","html-button-response","16","109440","0.0-4.12-0.12-0.12","38","1","2025-02-02 04:23:03","bc01a2b6f61d06f6604adb8657495020","66.42.132.135","Mozilla/5.0 (Windows NT 10.0; Win64; x64; rv:134.0) Gecko/20100101 Firefox/134.0","","Firefox","134.0","Windows","10.0","https://app.prolific.com/","en-US,en;q=0.5","673a8d64bf587131fa065ec5","679edb085803f58d6bbd31ca","679ef29efb6d9f4d6222c25c","","240","","1","Intro Trial","",""
"","","","","","html-button-response","17","110098","0.0-4.13-0.13-0.13","38","1","2025-02-02 04:23:03","bc01a2b6f61d06f6604adb8657495020","66.42.132.135","Mozilla/5.0 (Windows NT 10.0; Win64; x64; rv:134.0) Gecko/20100101 Firefox/134.0","","Firefox","134.0","Windows","10.0","https://app.prolific.com/","en-US,en;q=0.5","673a8d64bf587131fa065ec5","679edb085803f58d6bbd31ca","679ef29efb6d9f4d6222c25c","","656","","1","Intro Trial","",""
"","","","","","html-button-response","18","122606","0.0-4.14-0.14-0.14","38","1","2025-02-02 04:23:03","bc01a2b6f61d06f6604adb8657495020","66.42.132.135","Mozilla/5.0 (Windows NT 10.0; Win64; x64; rv:134.0) Gecko/20100101 Firefox/134.0","","Firefox","134.0","Windows","10.0","https://app.prolific.com/","en-US,en;q=0.5","673a8d64bf587131fa065ec5","679edb085803f58d6bbd31ca","679ef29efb6d9f4d6222c25c","","12507","","0","Intro Trial","",""
"","","","","","html-button-response","19","123464","0.0-4.15-0.15-0.15","38","1","2025-02-02 04:23:03","bc01a2b6f61d06f6604adb8657495020","66.42.132.135","Mozilla/5.0 (Windows NT 10.0; Win64; x64; rv:134.0) Gecko/20100101 Firefox/134.0","","Firefox","134.0","Windows","10.0","https://app.prolific.com/","en-US,en;q=0.5","673a8d64bf587131fa065ec5","679edb085803f58d6bbd31ca","679ef29efb6d9f4d6222c25c","","856","","1","Intro Trial","",""
"","","","","","html-button-response","20","137362","0.0-4.16-0.16-0.16","38","1","2025-02-02 04:23:03","bc01a2b6f61d06f6604adb8657495020","66.42.132.135","Mozilla/5.0 (Windows NT 10.0; Win64; x64; rv:134.0) Gecko/20100101 Firefox/134.0","","Firefox","134.0","Windows","10.0","https://app.prolific.com/","en-US,en;q=0.5","673a8d64bf587131fa065ec5","679edb085803f58d6bbd31ca","679ef29efb6d9f4d6222c25c","","13896","","3","Intro Trial","",""
"","","","","","html-button-response","21","138387","0.0-4.17-0.17-0.17","38","1","2025-02-02 04:23:03","bc01a2b6f61d06f6604adb8657495020","66.42.132.135","Mozilla/5.0 (Windows NT 10.0; Win64; x64; rv:134.0) Gecko/20100101 Firefox/134.0","","Firefox","134.0","Windows","10.0","https://app.prolific.com/","en-US,en;q=0.5","673a8d64bf587131fa065ec5","679edb085803f58d6bbd31ca","679ef29efb6d9f4d6222c25c","","1024","","1","Intro Trial","",""
"","","","","","html-button-response","22","139407","0.0-4.18-0.18-0.18","38","1","2025-02-02 04:23:03","bc01a2b6f61d06f6604adb8657495020","66.42.132.135","Mozilla/5.0 (Windows NT 10.0; Win64; x64; rv:134.0) Gecko/20100101 Firefox/134.0","","Firefox","134.0","Windows","10.0","https://app.prolific.com/","en-US,en;q=0.5","673a8d64bf587131fa065ec5","679edb085803f58d6bbd31ca","679ef29efb6d9f4d6222c25c","","1018","","2","Intro Trial","",""
"","","","","","html-button-response","23","141388","0.0-4.19-0.19-0.19","38","1","2025-02-02 04:23:03","bc01a2b6f61d06f6604adb8657495020","66.42.132.135","Mozilla/5.0 (Windows NT 10.0; Win64; x64; rv:134.0) Gecko/20100101 Firefox/134.0","","Firefox","134.0","Windows","10.0","https://app.prolific.com/","en-US,en;q=0.5","673a8d64bf587131fa065ec5","679edb085803f58d6bbd31ca","679ef29efb6d9f4d6222c25c","","1979","","1","Intro Trial","",""
"","","","","","html-button-response","24","141686","0.0-4.20-0.20-0.20","38","1","2025-02-02 04:23:03","bc01a2b6f61d06f6604adb8657495020","66.42.132.135","Mozilla/5.0 (Windows NT 10.0; Win64; x64; rv:134.0) Gecko/20100101 Firefox/134.0","","Firefox","134.0","Windows","10.0","https://app.prolific.com/","en-US,en;q=0.5","673a8d64bf587131fa065ec5","679edb085803f58d6bbd31ca","679ef29efb6d9f4d6222c25c","","296","","1","Intro Trial","",""
"","","","","","html-button-response","25","151284","0.0-4.21-0.21-0.21","38","1","2025-02-02 04:23:03","bc01a2b6f61d06f6604adb8657495020","66.42.132.135","Mozilla/5.0 (Windows NT 10.0; Win64; x64; rv:134.0) Gecko/20100101 Firefox/134.0","","Firefox","134.0","Windows","10.0","https://app.prolific.com/","en-US,en;q=0.5","673a8d64bf587131fa065ec5","679edb085803f58d6bbd31ca","679ef29efb6d9f4d6222c25c","","9596","","0","Intro Trial","",""
"","","","","","html-button-response","26","151845","0.0-4.22-0.22-0.22","38","1","2025-02-02 04:23:03","bc01a2b6f61d06f6604adb8657495020","66.42.132.135","Mozilla/5.0 (Windows NT 10.0; Win64; x64; rv:134.0) Gecko/20100101 Firefox/134.0","","Firefox","134.0","Windows","10.0","https://app.prolific.com/","en-US,en;q=0.5","673a8d64bf587131fa065ec5","679edb085803f58d6bbd31ca","679ef29efb6d9f4d6222c25c","","560","","0","Intro Trial","",""
"","","","","","html-button-response","27","152051","0.0-4.23-0.23-0.23","38","1","2025-02-02 04:23:03","bc01a2b6f61d06f6604adb8657495020","66.42.132.135","Mozilla/5.0 (Windows NT 10.0; Win64; x64; rv:134.0) Gecko/20100101 Firefox/134.0","","Firefox","134.0","Windows","10.0","https://app.prolific.com/","en-US,en;q=0.5","673a8d64bf587131fa065ec5","679edb085803f58d6bbd31ca","679ef29efb6d9f4d6222c25c","","204","","0","Intro Trial","",""
"","","","","","html-button-response","28","152533","0.0-4.24-0.24-0.24","38","1","2025-02-02 04:23:03","bc01a2b6f61d06f6604adb8657495020","66.42.132.135","Mozilla/5.0 (Windows NT 10.0; Win64; x64; rv:134.0) Gecko/20100101 Firefox/134.0","","Firefox","134.0","Windows","10.0","https://app.prolific.com/","en-US,en;q=0.5","673a8d64bf587131fa065ec5","679edb085803f58d6bbd31ca","679ef29efb6d9f4d6222c25c","","481","","0","Intro Trial","",""
"","","","","","html-button-response","29","153332","0.0-4.25-0.25-0.25","38","1","2025-02-02 04:23:03","bc01a2b6f61d06f6604adb8657495020","66.42.132.135","Mozilla/5.0 (Windows NT 10.0; Win64; x64; rv:134.0) Gecko/20100101 Firefox/134.0","","Firefox","134.0","Windows","10.0","https://app.prolific.com/","en-US,en;q=0.5","673a8d64bf587131fa065ec5","679edb085803f58d6bbd31ca","679ef29efb6d9f4d6222c25c","","797","","1","Intro Trial","",""
"","","","","","html-button-response","30","153564","0.0-4.26-0.26-0.26","38","1","2025-02-02 04:23:03","bc01a2b6f61d06f6604adb8657495020","66.42.132.135","Mozilla/5.0 (Windows NT 10.0; Win64; x64; rv:134.0) Gecko/20100101 Firefox/134.0","","Firefox","134.0","Windows","10.0","https://app.prolific.com/","en-US,en;q=0.5","673a8d64bf587131fa065ec5","679edb085803f58d6bbd31ca","679ef29efb6d9f4d6222c25c","","230","","1","Intro Trial","",""
"","","","","","html-button-response","31","154050","0.0-4.27-0.27-0.27","38","1","2025-02-02 04:23:03","bc01a2b6f61d06f6604adb8657495020","66.42.132.135","Mozilla/5.0 (Windows NT 10.0; Win64; x64; rv:134.0) Gecko/20100101 Firefox/134.0","","Firefox","134.0","Windows","10.0","https://app.prolific.com/","en-US,en;q=0.5","673a8d64bf587131fa065ec5","679edb085803f58d6bbd31ca","679ef29efb6d9f4d6222c25c","","484","","1","Intro Trial","",""
"","","","","","html-button-response","32","154568","0.0-4.28-0.28-0.28","38","1","2025-02-02 04:23:03","bc01a2b6f61d06f6604adb8657495020","66.42.132.135","Mozilla/5.0 (Windows NT 10.0; Win64; x64; rv:134.0) Gecko/20100101 Firefox/134.0","","Firefox","134.0","Windows","10.0","https://app.prolific.com/","en-US,en;q=0.5","673a8d64bf587131fa065ec5","679edb085803f58d6bbd31ca","679ef29efb6d9f4d6222c25c","","516","","1","Intro Trial","",""
"","","","","","html-button-response","33","155455","0.0-4.29-0.29-0.29","38","1","2025-02-02 04:23:03","bc01a2b6f61d06f6604adb8657495020","66.42.132.135","Mozilla/5.0 (Windows NT 10.0; Win64; x64; rv:134.0) Gecko/20100101 Firefox/134.0","","Firefox","134.0","Windows","10.0","https://app.prolific.com/","en-US,en;q=0.5","673a8d64bf587131fa065ec5","679edb085803f58d6bbd31ca","679ef29efb6d9f4d6222c25c","","884","","0","Intro Trial","",""
"","","","","","html-button-response","34","155674","0.0-4.30-0.30-0.30","38","1","2025-02-02 04:23:03","bc01a2b6f61d06f6604adb8657495020","66.42.132.135","Mozilla/5.0 (Windows NT 10.0; Win64; x64; rv:134.0) Gecko/20100101 Firefox/134.0","","Firefox","134.0","Windows","10.0","https://app.prolific.com/","en-US,en;q=0.5","673a8d64bf587131fa065ec5","679edb085803f58d6bbd31ca","679ef29efb6d9f4d6222c25c","","218","","0","Intro Trial","",""
"","","","","","html-button-response","35","157983","0.0-4.31-0.31-0.31","38","1","2025-02-02 04:23:03","bc01a2b6f61d06f6604adb8657495020","66.42.132.135","Mozilla/5.0 (Windows NT 10.0; Win64; x64; rv:134.0) Gecko/20100101 Firefox/134.0","","Firefox","134.0","Windows","10.0","https://app.prolific.com/","en-US,en;q=0.5","673a8d64bf587131fa065ec5","679edb085803f58d6bbd31ca","679ef29efb6d9f4d6222c25c","","2307","","3","Intro Trial","",""
"","","","","","html-button-response","36","158173","0.0-4.32-0.32-0.32","38","1","2025-02-02 04:23:03","bc01a2b6f61d06f6604adb8657495020","66.42.132.135","Mozilla/5.0 (Windows NT 10.0; Win64; x64; rv:134.0) Gecko/20100101 Firefox/134.0","","Firefox","134.0","Windows","10.0","https://app.prolific.com/","en-US,en;q=0.5","673a8d64bf587131fa065ec5","679edb085803f58d6bbd31ca","679ef29efb6d9f4d6222c25c","","189","","3","Intro Trial","",""
"","","","","","html-button-response","37","159200","0.0-4.33-0.33-0.33","38","1","2025-02-02 04:23:03","bc01a2b6f61d06f6604adb8657495020","66.42.132.135","Mozilla/5.0 (Windows NT 10.0; Win64; x64; rv:134.0) Gecko/20100101 Firefox/134.0","","Firefox","134.0","Windows","10.0","https://app.prolific.com/","en-US,en;q=0.5","673a8d64bf587131fa065ec5","679edb085803f58d6bbd31ca","679ef29efb6d9f4d6222c25c","","1025","","2","Intro Trial","",""
"","","","","","html-button-response","38","159398","0.0-4.34-0.34-0.34","38","1","2025-02-02 04:23:03","bc01a2b6f61d06f6604adb8657495020","66.42.132.135","Mozilla/5.0 (Windows NT 10.0; Win64; x64; rv:134.0) Gecko/20100101 Firefox/134.0","","Firefox","134.0","Windows","10.0","https://app.prolific.com/","en-US,en;q=0.5","673a8d64bf587131fa065ec5","679edb085803f58d6bbd31ca","679ef29efb6d9f4d6222c25c","","196","","2","Intro Trial","",""
"","","","","","html-button-response","39","160043","0.0-4.35-0.35-0.35","38","1","2025-02-02 04:23:03","bc01a2b6f61d06f6604adb8657495020","66.42.132.135","Mozilla/5.0 (Windows NT 10.0; Win64; x64; rv:134.0) Gecko/20100101 Firefox/134.0","","Firefox","134.0","Windows","10.0","https://app.prolific.com/","en-US,en;q=0.5","673a8d64bf587131fa065ec5","679edb085803f58d6bbd31ca","679ef29efb6d9f4d6222c25c","","642","","2","Intro Trial","",""
"","","","","","html-button-response","40","160421","0.0-4.36-0.36-0.36","38","1","2025-02-02 04:23:03","bc01a2b6f61d06f6604adb8657495020","66.42.132.135","Mozilla/5.0 (Windows NT 10.0; Win64; x64; rv:134.0) Gecko/20100101 Firefox/134.0","","Firefox","134.0","Windows","10.0","https://app.prolific.com/","en-US,en;q=0.5","673a8d64bf587131fa065ec5","679edb085803f58d6bbd31ca","679ef29efb6d9f4d6222c25c","","376","","2","Intro Trial","",""
"","","","","","html-button-response","41","160618","0.0-4.37-0.37-0.37","38","1","2025-02-02 04:23:03","bc01a2b6f61d06f6604adb8657495020","66.42.132.135","Mozilla/5.0 (Windows NT 10.0; Win64; x64; rv:134.0) Gecko/20100101 Firefox/134.0","","Firefox","134.0","Windows","10.0","https://app.prolific.com/","en-US,en;q=0.5","673a8d64bf587131fa065ec5","679edb085803f58d6bbd31ca","679ef29efb6d9f4d6222c25c","","196","","2","Intro Trial","",""
"","","","","","html-button-response","42","161002","0.0-4.38-0.38-0.38","38","1","2025-02-02 04:23:03","bc01a2b6f61d06f6604adb8657495020","66.42.132.135","Mozilla/5.0 (Windows NT 10.0; Win64; x64; rv:134.0) Gecko/20100101 Firefox/134.0","","Firefox","134.0","Windows","10.0","https://app.prolific.com/","en-US,en;q=0.5","673a8d64bf587131fa065ec5","679edb085803f58d6bbd31ca","679ef29efb6d9f4d6222c25c","","381","","2","Intro Trial","",""
"","","","","","html-button-response","43","161521","0.0-4.39-0.39-0.39","38","1","2025-02-02 04:23:03","bc01a2b6f61d06f6604adb8657495020","66.42.132.135","Mozilla/5.0 (Windows NT 10.0; Win64; x64; rv:134.0) Gecko/20100101 Firefox/134.0","","Firefox","134.0","Windows","10.0","https://app.prolific.com/","en-US,en;q=0.5","673a8d64bf587131fa065ec5","679edb085803f58d6bbd31ca","679ef29efb6d9f4d6222c25c","","517","","2","Intro Trial","",""
"","","","","","html-button-response","44","161997","0.0-4.40-0.40-0.40","38","1","2025-02-02 04:23:03","bc01a2b6f61d06f6604adb8657495020","66.42.132.135","Mozilla/5.0 (Windows NT 10.0; Win64; x64; rv:134.0) Gecko/20100101 Firefox/134.0","","Firefox","134.0","Windows","10.0","https://app.prolific.com/","en-US,en;q=0.5","673a8d64bf587131fa065ec5","679edb085803f58d6bbd31ca","679ef29efb6d9f4d6222c25c","","474","","2","Intro Trial","",""
"","","","","","html-button-response","45","163297","0.0-4.41-0.41-0.41","38","1","2025-02-02 04:23:03","bc01a2b6f61d06f6604adb8657495020","66.42.132.135","Mozilla/5.0 (Windows NT 10.0; Win64; x64; rv:134.0) Gecko/20100101 Firefox/134.0","","Firefox","134.0","Windows","10.0","https://app.prolific.com/","en-US,en;q=0.5","673a8d64bf587131fa065ec5","679edb085803f58d6bbd31ca","679ef29efb6d9f4d6222c25c","","1298","","3","Intro Trial","",""
"","","","","","html-button-response","46","163485","0.0-4.42-0.42-0.42","38","1","2025-02-02 04:23:03","bc01a2b6f61d06f6604adb8657495020","66.42.132.135","Mozilla/5.0 (Windows NT 10.0; Win64; x64; rv:134.0) Gecko/20100101 Firefox/134.0","","Firefox","134.0","Windows","10.0","https://app.prolific.com/","en-US,en;q=0.5","673a8d64bf587131fa065ec5","679edb085803f58d6bbd31ca","679ef29efb6d9f4d6222c25c","","186","","3","Intro Trial","",""
"","","","","","html-button-response","47","163722","0.0-4.43-0.43-0.43","38","1","2025-02-02 04:23:03","bc01a2b6f61d06f6604adb8657495020","66.42.132.135","Mozilla/5.0 (Windows NT 10.0; Win64; x64; rv:134.0) Gecko/20100101 Firefox/134.0","","Firefox","134.0","Windows","10.0","https://app.prolific.com/","en-US,en;q=0.5","673a8d64bf587131fa065ec5","679edb085803f58d6bbd31ca","679ef29efb6d9f4d6222c25c","","236","","3","Intro Trial","",""
"","","","","","html-button-response","48","164769","0.0-4.44-0.44-0.44","38","1","2025-02-02 04:23:03","bc01a2b6f61d06f6604adb8657495020","66.42.132.135","Mozilla/5.0 (Windows NT 10.0; Win64; x64; rv:134.0) Gecko/20100101 Firefox/134.0","","Firefox","134.0","Windows","10.0","https://app.prolific.com/","en-US,en;q=0.5","673a8d64bf587131fa065ec5","679edb085803f58d6bbd31ca","679ef29efb6d9f4d6222c25c","","1045","","4","Intro Trial","",""
"","","","","","html-button-response","49","164981","0.0-4.45-0.45-0.45","38","1","2025-02-02 04:23:03","bc01a2b6f61d06f6604adb8657495020","66.42.132.135","Mozilla/5.0 (Windows NT 10.0; Win64; x64; rv:134.0) Gecko/20100101 Firefox/134.0","","Firefox","134.0","Windows","10.0","https://app.prolific.com/","en-US,en;q=0.5","673a8d64bf587131fa065ec5","679edb085803f58d6bbd31ca","679ef29efb6d9f4d6222c25c","","210","","4","Intro Trial","",""
"","","","","","html-button-response","50","165440","0.0-4.46-0.46-0.46","38","1","2025-02-02 04:23:03","bc01a2b6f61d06f6604adb8657495020","66.42.132.135","Mozilla/5.0 (Windows NT 10.0; Win64; x64; rv:134.0) Gecko/20100101 Firefox/134.0","","Firefox","134.0","Windows","10.0","https://app.prolific.com/","en-US,en;q=0.5","673a8d64bf587131fa065ec5","679edb085803f58d6bbd31ca","679ef29efb6d9f4d6222c25c","","457","","4","Intro Trial","",""
"","","","","","html-button-response","51","173033","0.0-4.47-0.47-0.47","38","1","2025-02-02 04:23:03","bc01a2b6f61d06f6604adb8657495020","66.42.132.135","Mozilla/5.0 (Windows NT 10.0; Win64; x64; rv:134.0) Gecko/20100101 Firefox/134.0","","Firefox","134.0","Windows","10.0","https://app.prolific.com/","en-US,en;q=0.5","673a8d64bf587131fa065ec5","679edb085803f58d6bbd31ca","679ef29efb6d9f4d6222c25c","","7590","","2","Intro Trial","",""
"","","","","","html-button-response","52","173252","0.0-4.48-0.48-0.48","38","1","2025-02-02 04:23:03","bc01a2b6f61d06f6604adb8657495020","66.42.132.135","Mozilla/5.0 (Windows NT 10.0; Win64; x64; rv:134.0) Gecko/20100101 Firefox/134.0","","Firefox","134.0","Windows","10.0","https://app.prolific.com/","en-US,en;q=0.5","673a8d64bf587131fa065ec5","679edb085803f58d6bbd31ca","679ef29efb6d9f4d6222c25c","","217","","2","Intro Trial","",""
"","","","","","html-button-response","53","173532","0.0-4.49-0.49-0.49","38","1","2025-02-02 04:23:03","bc01a2b6f61d06f6604adb8657495020","66.42.132.135","Mozilla/5.0 (Windows NT 10.0; Win64; x64; rv:134.0) Gecko/20100101 Firefox/134.0","","Firefox","134.0","Windows","10.0","https://app.prolific.com/","en-US,en;q=0.5","673a8d64bf587131fa065ec5","679edb085803f58d6bbd31ca","679ef29efb6d9f4d6222c25c","","278","","2","Intro Trial","",""
"","","","","","html-button-response","54","181755","0.0-4.50-0.50-0.50","38","1","2025-02-02 04:23:03","bc01a2b6f61d06f6604adb8657495020","66.42.132.135","Mozilla/5.0 (Windows NT 10.0; Win64; x64; rv:134.0) Gecko/20100101 Firefox/134.0","","Firefox","134.0","Windows","10.0","https://app.prolific.com/","en-US,en;q=0.5","673a8d64bf587131fa065ec5","679edb085803f58d6bbd31ca","679ef29efb6d9f4d6222c25c","","8221","","5","Intro Trial","",""
"","","","","","html-keyboard-response","55","200308","0.0-5.0","38","1","2025-02-02 04:23:03","bc01a2b6f61d06f6604adb8657495020","66.42.132.135","Mozilla/5.0 (Windows NT 10.0; Win64; x64; rv:134.0) Gecko/20100101 Firefox/134.0","","Firefox","134.0","Windows","10.0","https://app.prolific.com/","en-US,en;q=0.5","673a8d64bf587131fa065ec5","679edb085803f58d6bbd31ca","679ef29efb6d9f4d6222c25c","","18552","[""You sorted incorrectly by using the balance 15 times. <br><br> <img src='G_2.jpg' height='90'><img src='G_3.jpg' height='90'><img src='G_5.jpg' height='90'><img src='G_4.jpg' height='90'><img src='G_1.jpg' height='90'><br><br> Your final order is 2,3,1,5,4<br><br><br>Omgne Sort in this game will allow you to sort correctly by using the balance 8 times. Press Enter to learn it!""]","enter","","",""
"","","","","","html-keyboard-response","56","223390","0.0-6.0","38","1","2025-02-02 04:23:03","bc01a2b6f61d06f6604adb8657495020","66.42.132.135","Mozilla/5.0 (Windows NT 10.0; Win64; x64; rv:134.0) Gecko/20100101 Firefox/134.0","","Firefox","134.0","Windows","10.0","https://app.prolific.com/","en-US,en;q=0.5","673a8d64bf587131fa065ec5","679edb085803f58d6bbd31ca","679ef29efb6d9f4d6222c25c","","23080","<p>Welcome to the learning phase! <br><br> You will learn by six examples. The following learning trials will not be used to calculate your performance. <br><br> Press Enter to continue.<p/>","enter","","",""
"","","","","","html-keyboard-response","57","232948","0.0-7.0","38","1","2025-02-02 04:23:03","bc01a2b6f61d06f6604adb8657495020","66.42.132.135","Mozilla/5.0 (Windows NT 10.0; Win64; x64; rv:134.0) Gecko/20100101 Firefox/134.0","","Firefox","134.0","Windows","10.0","https://app.prolific.com/","en-US,en;q=0.5","673a8d64bf587131fa065ec5","679edb085803f58d6bbd31ca","679ef29efb6d9f4d6222c25c","","9556","[""Example 1<br><br>You will watch Omnge Sort in action. Try to identify any patterns in the comparisons made by this method. <br><br>Press Enter to continue.""]","enter","","",""
"","","","","","html-keyboard-response","58","233465","0.0-8.0","38","1","2025-02-02 04:23:03","bc01a2b6f61d06f6604adb8657495020","66.42.132.135","Mozilla/5.0 (Windows NT 10.0; Win64; x64; rv:134.0) Gecko/20100101 Firefox/134.0","","Firefox","134.0","Windows","10.0","https://app.prolific.com/","en-US,en;q=0.5","673a8d64bf587131fa065ec5","679edb085803f58d6bbd31ca","679ef29efb6d9f4d6222c25c","","null","<img id='selected' src='G_5.jpg' height='90'> <img src='G_9.jpg' height='90'> <img src='G_7.jpg' height='90'> <img src='G_3.jpg' height='90'> <img src='G_1.jpg' height='90'>","null","Animation0","",""
"","","","","","html-keyboard-response","59","233968","0.0-9.0","38","1","2025-02-02 04:23:03","bc01a2b6f61d06f6604adb8657495020","66.42.132.135","Mozilla/5.0 (Windows NT 10.0; Win64; x64; rv:134.0) Gecko/20100101 Firefox/134.0","","Firefox","134.0","Windows","10.0","https://app.prolific.com/","en-US,en;q=0.5","673a8d64bf587131fa065ec5","679edb085803f58d6bbd31ca","679ef29efb6d9f4d6222c25c","","null","<img id='selected' src='G_5.jpg' height='90'> <img id='selected' src='G_9.jpg' height='90'> <img src='G_7.jpg' height='90'> <img src='G_3.jpg' height='90'> <img src='G_1.jpg' height='90'>","null","Animation0","",""
"","","","","","html-keyboard-response","60","234485","0.0-10.0","38","1","2025-02-02 04:23:03","bc01a2b6f61d06f6604adb8657495020","66.42.132.135","Mozilla/5.0 (Windows NT 10.0; Win64; x64; rv:134.0) Gecko/20100101 Firefox/134.0","","Firefox","134.0","Windows","10.0","https://app.prolific.com/","en-US,en;q=0.5","673a8d64bf587131fa065ec5","679edb085803f58d6bbd31ca","679ef29efb6d9f4d6222c25c","","null","<img id='swapped' src='G_9.jpg' height='90'> <img id='swapped' src='G_5.jpg' height='90'> <img src='G_7.jpg' height='90'> <img src='G_3.jpg' height='90'> <img src='G_1.jpg' height='90'>","null","Animation0","",""
"","","","","","html-keyboard-response","61","234798","0.0-11.0","38","1","2025-02-02 04:23:03","bc01a2b6f61d06f6604adb8657495020","66.42.132.135","Mozilla/5.0 (Windows NT 10.0; Win64; x64; rv:134.0) Gecko/20100101 Firefox/134.0","","Firefox","134.0","Windows","10.0","https://app.prolific.com/","en-US,en;q=0.5","673a8d64bf587131fa065ec5","679edb085803f58d6bbd31ca","679ef29efb6d9f4d6222c25c","","null","<img  src='G_9.jpg' height='90'> <img  src='G_5.jpg' height='90'> <img src='G_7.jpg' height='90'> <img src='G_3.jpg' height='90'> <img src='G_1.jpg' height='90'>","null","Animation0","",""
"","","","","","html-keyboard-response","62","235313","0.0-12.0","38","1","2025-02-02 04:23:03","bc01a2b6f61d06f6604adb8657495020","66.42.132.135","Mozilla/5.0 (Windows NT 10.0; Win64; x64; rv:134.0) Gecko/20100101 Firefox/134.0","","Firefox","134.0","Windows","10.0","https://app.prolific.com/","en-US,en;q=0.5","673a8d64bf587131fa065ec5","679edb085803f58d6bbd31ca","679ef29efb6d9f4d6222c25c","","null","<img  src='G_9.jpg' height='90'> <img id='selected'  src='G_5.jpg' height='90'> <img src='G_7.jpg' height='90'> <img src='G_3.jpg' height='90'> <img src='G_1.jpg' height='90'>","null","Animation0","",""
"","","","","","html-keyboard-response","63","235826","0.0-13.0","38","1","2025-02-02 04:23:03","bc01a2b6f61d06f6604adb8657495020","66.42.132.135","Mozilla/5.0 (Windows NT 10.0; Win64; x64; rv:134.0) Gecko/20100101 Firefox/134.0","","Firefox","134.0","Windows","10.0","https://app.prolific.com/","en-US,en;q=0.5","673a8d64bf587131fa065ec5","679edb085803f58d6bbd31ca","679ef29efb6d9f4d6222c25c","","null","<img  src='G_9.jpg' height='90'> <img id='selected'  src='G_5.jpg' height='90'> <img id='selected' src='G_7.jpg' height='90'> <img src='G_3.jpg' height='90'> <img src='G_1.jpg' height='90'>","null","Animation0","",""
"","","","","","html-keyboard-response","64","236343","0.0-14.0","38","1","2025-02-02 04:23:03","bc01a2b6f61d06f6604adb8657495020","66.42.132.135","Mozilla/5.0 (Windows NT 10.0; Win64; x64; rv:134.0) Gecko/20100101 Firefox/134.0","","Firefox","134.0","Windows","10.0","https://app.prolific.com/","en-US,en;q=0.5","673a8d64bf587131fa065ec5","679edb085803f58d6bbd31ca","679ef29efb6d9f4d6222c25c","","null","<img  src='G_9.jpg' height='90'> <img id='selected'  src='G_5.jpg' height='90'> <img id='selected' src='G_7.jpg' height='90'> <img src='G_3.jpg' height='90'> <img src='G_1.jpg' height='90'>","null","Animation0","",""
"","","","","","html-keyboard-response","65","236655","0.0-15.0","38","1","2025-02-02 04:23:03","bc01a2b6f61d06f6604adb8657495020","66.42.132.135","Mozilla/5.0 (Windows NT 10.0; Win64; x64; rv:134.0) Gecko/20100101 Firefox/134.0","","Firefox","134.0","Windows","10.0","https://app.prolific.com/","en-US,en;q=0.5","673a8d64bf587131fa065ec5","679edb085803f58d6bbd31ca","679ef29efb6d9f4d6222c25c","","null","<img  src='G_9.jpg' height='90'> <img   src='G_5.jpg' height='90'> <img  src='G_7.jpg' height='90'> <img src='G_3.jpg' height='90'> <img src='G_1.jpg' height='90'>","null","Animation0","",""
"","","","","","html-keyboard-response","66","237159","0.0-16.0","38","1","2025-02-02 04:23:03","bc01a2b6f61d06f6604adb8657495020","66.42.132.135","Mozilla/5.0 (Windows NT 10.0; Win64; x64; rv:134.0) Gecko/20100101 Firefox/134.0","","Firefox","134.0","Windows","10.0","https://app.prolific.com/","en-US,en;q=0.5","673a8d64bf587131fa065ec5","679edb085803f58d6bbd31ca","679ef29efb6d9f4d6222c25c","","null","<img  src='G_9.jpg' height='90'> <img   src='G_5.jpg' height='90'> <img id='selected'  src='G_7.jpg' height='90'> <img src='G_3.jpg' height='90'> <img src='G_1.jpg' height='90'>","null","Animation0","",""
"","","","","","html-keyboard-response","67","237673","0.0-17.0","38","1","2025-02-02 04:23:03","bc01a2b6f61d06f6604adb8657495020","66.42.132.135","Mozilla/5.0 (Windows NT 10.0; Win64; x64; rv:134.0) Gecko/20100101 Firefox/134.0","","Firefox","134.0","Windows","10.0","https://app.prolific.com/","en-US,en;q=0.5","673a8d64bf587131fa065ec5","679edb085803f58d6bbd31ca","679ef29efb6d9f4d6222c25c","","null","<img  src='G_9.jpg' height='90'> <img   src='G_5.jpg' height='90'> <img id='selected'  src='G_7.jpg' height='90'> <img id='selected' src='G_3.jpg' height='90'> <img src='G_1.jpg' height='90'>","null","Animation0","",""
"","","","","","html-keyboard-response","68","238186","0.0-18.0","38","1","2025-02-02 04:23:03","bc01a2b6f61d06f6604adb8657495020","66.42.132.135","Mozilla/5.0 (Windows NT 10.0; Win64; x64; rv:134.0) Gecko/20100101 Firefox/134.0","","Firefox","134.0","Windows","10.0","https://app.prolific.com/","en-US,en;q=0.5","673a8d64bf587131fa065ec5","679edb085803f58d6bbd31ca","679ef29efb6d9f4d6222c25c","","null","<img  src='G_9.jpg' height='90'> <img   src='G_5.jpg' height='90'> <img id='selected'  src='G_7.jpg' height='90'> <img id='selected' src='G_3.jpg' height='90'> <img src='G_1.jpg' height='90'>","null","Animation0","",""
"","","","","","html-keyboard-response","69","238499","0.0-19.0","38","1","2025-02-02 04:23:03","bc01a2b6f61d06f6604adb8657495020","66.42.132.135","Mozilla/5.0 (Windows NT 10.0; Win64; x64; rv:134.0) Gecko/20100101 Firefox/134.0","","Firefox","134.0","Windows","10.0","https://app.prolific.com/","en-US,en;q=0.5","673a8d64bf587131fa065ec5","679edb085803f58d6bbd31ca","679ef29efb6d9f4d6222c25c","","null","<img  src='G_9.jpg' height='90'> <img   src='G_5.jpg' height='90'> <img   src='G_7.jpg' height='90'> <img  src='G_3.jpg' height='90'> <img src='G_1.jpg' height='90'>","null","Animation0","",""
"","","","","","html-keyboard-response","70","239012","0.0-20.0","38","1","2025-02-02 04:23:03","bc01a2b6f61d06f6604adb8657495020","66.42.132.135","Mozilla/5.0 (Windows NT 10.0; Win64; x64; rv:134.0) Gecko/20100101 Firefox/134.0","","Firefox","134.0","Windows","10.0","https://app.prolific.com/","en-US,en;q=0.5","673a8d64bf587131fa065ec5","679edb085803f58d6bbd31ca","679ef29efb6d9f4d6222c25c","","null","<img  src='G_9.jpg' height='90'> <img   src='G_5.jpg' height='90'> <img   src='G_7.jpg' height='90'> <img id='selected'  src='G_3.jpg' height='90'> <img src='G_1.jpg' height='90'>","null","Animation0","",""
"","","","","","html-keyboard-response","71","239526","0.0-21.0","38","1","2025-02-02 04:23:03","bc01a2b6f61d06f6604adb8657495020","66.42.132.135","Mozilla/5.0 (Windows NT 10.0; Win64; x64; rv:134.0) Gecko/20100101 Firefox/134.0","","Firefox","134.0","Windows","10.0","https://app.prolific.com/","en-US,en;q=0.5","673a8d64bf587131fa065ec5","679edb085803f58d6bbd31ca","679ef29efb6d9f4d6222c25c","","null","<img  src='G_9.jpg' height='90'> <img   src='G_5.jpg' height='90'> <img   src='G_7.jpg' height='90'> <img id='selected'  src='G_3.jpg' height='90'> <img id='selected' src='G_1.jpg' height='90'>","null","Animation0","",""
"","","","","","html-keyboard-response","72","240042","0.0-22.0","38","1","2025-02-02 04:23:03","bc01a2b6f61d06f6604adb8657495020","66.42.132.135","Mozilla/5.0 (Windows NT 10.0; Win64; x64; rv:134.0) Gecko/20100101 Firefox/134.0","","Firefox","134.0","Windows","10.0","https://app.prolific.com/","en-US,en;q=0.5","673a8d64bf587131fa065ec5","679edb085803f58d6bbd31ca","679ef29efb6d9f4d6222c25c","","null","<img  src='G_9.jpg' height='90'> <img   src='G_5.jpg' height='90'> <img   src='G_7.jpg' height='90'> <img id='selected'  src='G_3.jpg' height='90'> <img id='selected' src='G_1.jpg' height='90'>","null","Animation0","",""
"","","","","","html-keyboard-response","73","240355","0.0-23.0","38","1","2025-02-02 04:23:03","bc01a2b6f61d06f6604adb8657495020","66.42.132.135","Mozilla/5.0 (Windows NT 10.0; Win64; x64; rv:134.0) Gecko/20100101 Firefox/134.0","","Firefox","134.0","Windows","10.0","https://app.prolific.com/","en-US,en;q=0.5","673a8d64bf587131fa065ec5","679edb085803f58d6bbd31ca","679ef29efb6d9f4d6222c25c","","null","<img  src='G_9.jpg' height='90'> <img   src='G_5.jpg' height='90'> <img   src='G_7.jpg' height='90'> <img   src='G_3.jpg' height='90'> <img  src='G_1.jpg' height='90'>","null","Animation0","",""
"","","","","","html-keyboard-response","74","244822","0.0-24.0","38","1","2025-02-02 04:23:03","bc01a2b6f61d06f6604adb8657495020","66.42.132.135","Mozilla/5.0 (Windows NT 10.0; Win64; x64; rv:134.0) Gecko/20100101 Firefox/134.0","","Firefox","134.0","Windows","10.0","https://app.prolific.com/","en-US,en;q=0.5","673a8d64bf587131fa065ec5","679edb085803f58d6bbd31ca","679ef29efb6d9f4d6222c25c","","4465","[""Did you notice any patterns? <br><br>Press Enter to watch that example again and follow the steps of Omgne Sort.""]","enter","","",""
"","","","","","html-button-response","75","245235","0.0-25.0","38","1","2025-02-02 04:23:03","bc01a2b6f61d06f6604adb8657495020","66.42.132.135","Mozilla/5.0 (Windows NT 10.0; Win64; x64; rv:134.0) Gecko/20100101 Firefox/134.0","","Firefox","134.0","Windows","10.0","https://app.prolific.com/","en-US,en;q=0.5","673a8d64bf587131fa065ec5","679edb085803f58d6bbd31ca","679ef29efb6d9f4d6222c25c","","null","<img id='selected' src='G_5.jpg' height='90'> <img src='G_9.jpg' height='90'> <img src='G_7.jpg' height='90'> <img src='G_3.jpg' height='90'> <img src='G_1.jpg' height='90'>","null","Learning example 0","",""
"","","","","","html-button-response","76","245548","0.0-26.0","38","1","2025-02-02 04:23:03","bc01a2b6f61d06f6604adb8657495020","66.42.132.135","Mozilla/5.0 (Windows NT 10.0; Win64; x64; rv:134.0) Gecko/20100101 Firefox/134.0","","Firefox","134.0","Windows","10.0","https://app.prolific.com/","en-US,en;q=0.5","673a8d64bf587131fa065ec5","679edb085803f58d6bbd31ca","679ef29efb6d9f4d6222c25c","","null","<img id='selected' src='G_5.jpg' height='90'> <img id='selected' src='G_9.jpg' height='90'> <img src='G_7.jpg' height='90'> <img src='G_3.jpg' height='90'> <img src='G_1.jpg' height='90'>","null","Learning example 0","",""
"","","","","","html-button-response","77","245863","0.0-27.0","38","1","2025-02-02 04:23:03","bc01a2b6f61d06f6604adb8657495020","66.42.132.135","Mozilla/5.0 (Windows NT 10.0; Win64; x64; rv:134.0) Gecko/20100101 Firefox/134.0","","Firefox","134.0","Windows","10.0","https://app.prolific.com/","en-US,en;q=0.5","673a8d64bf587131fa065ec5","679edb085803f58d6bbd31ca","679ef29efb6d9f4d6222c25c","","null","<img id='swapped' src='G_9.jpg' height='90'> <img id='swapped' src='G_5.jpg' height='90'> <img src='G_7.jpg' height='90'> <img src='G_3.jpg' height='90'> <img src='G_1.jpg' height='90'>","null","Learning example 0","",""
"","","","","","html-button-response","78","283593","0.0-28.0-0.0-0.0","38","1","2025-02-02 04:23:03","bc01a2b6f61d06f6604adb8657495020","66.42.132.135","Mozilla/5.0 (Windows NT 10.0; Win64; x64; rv:134.0) Gecko/20100101 Firefox/134.0","","Firefox","134.0","Windows","10.0","https://app.prolific.com/","en-US,en;q=0.5","673a8d64bf587131fa065ec5","679edb085803f58d6bbd31ca","679ef29efb6d9f4d6222c25c","","37728","<img id='swapped' src='G_9.jpg' height='90'> <img id='swapped' src='G_5.jpg' height='90'> <img src='G_7.jpg' height='90'> <img src='G_3.jpg' height='90'> <img src='G_1.jpg' height='90'>","1","Learning example 0","",""
"","","","","","html-button-response","79","283928","0.0-28.1-0.1-0.1","38","1","2025-02-02 04:23:03","bc01a2b6f61d06f6604adb8657495020","66.42.132.135","Mozilla/5.0 (Windows NT 10.0; Win64; x64; rv:134.0) Gecko/20100101 Firefox/134.0","","Firefox","134.0","Windows","10.0","https://app.prolific.com/","en-US,en;q=0.5","673a8d64bf587131fa065ec5","679edb085803f58d6bbd31ca","679ef29efb6d9f4d6222c25c","","332","<img id='swapped' src='G_9.jpg' height='90'> <img id='swapped' src='G_5.jpg' height='90'> <img src='G_7.jpg' height='90'> <img src='G_3.jpg' height='90'> <img src='G_1.jpg' height='90'>","1","Learning example 0","",""
"","","","","","html-button-response","80","285050","0.0-28.2-0.2-0.2","38","1","2025-02-02 04:23:03","bc01a2b6f61d06f6604adb8657495020","66.42.132.135","Mozilla/5.0 (Windows NT 10.0; Win64; x64; rv:134.0) Gecko/20100101 Firefox/134.0","","Firefox","134.0","Windows","10.0","https://app.prolific.com/","en-US,en;q=0.5","673a8d64bf587131fa065ec5","679edb085803f58d6bbd31ca","679ef29efb6d9f4d6222c25c","","1118","<img id='swapped' src='G_9.jpg' height='90'> <img id='swapped' src='G_5.jpg' height='90'> <img src='G_7.jpg' height='90'> <img src='G_3.jpg' height='90'> <img src='G_1.jpg' height='90'>","0","Learning example 0","",""
"","","","","","html-button-response","81","285260","0.0-29.0","38","1","2025-02-02 04:23:03","bc01a2b6f61d06f6604adb8657495020","66.42.132.135","Mozilla/5.0 (Windows NT 10.0; Win64; x64; rv:134.0) Gecko/20100101 Firefox/134.0","","Firefox","134.0","Windows","10.0","https://app.prolific.com/","en-US,en;q=0.5","673a8d64bf587131fa065ec5","679edb085803f58d6bbd31ca","679ef29efb6d9f4d6222c25c","","null","<img  src='G_9.jpg' height='90'> <img  src='G_5.jpg' height='90'> <img src='G_7.jpg' height='90'> <img src='G_3.jpg' height='90'> <img src='G_1.jpg' height='90'>","null","Learning example 0","",""
"","","","","","html-button-response","82","285666","0.0-30.0","38","1","2025-02-02 04:23:03","bc01a2b6f61d06f6604adb8657495020","66.42.132.135","Mozilla/5.0 (Windows NT 10.0; Win64; x64; rv:134.0) Gecko/20100101 Firefox/134.0","","Firefox","134.0","Windows","10.0","https://app.prolific.com/","en-US,en;q=0.5","673a8d64bf587131fa065ec5","679edb085803f58d6bbd31ca","679ef29efb6d9f4d6222c25c","","null","<img  src='G_9.jpg' height='90'> <img id='selected'  src='G_5.jpg' height='90'> <img src='G_7.jpg' height='90'> <img src='G_3.jpg' height='90'> <img src='G_1.jpg' height='90'>","null","Learning example 0","",""
"","","","","","html-button-response","83","285980","0.0-31.0","38","1","2025-02-02 04:23:03","bc01a2b6f61d06f6604adb8657495020","66.42.132.135","Mozilla/5.0 (Windows NT 10.0; Win64; x64; rv:134.0) Gecko/20100101 Firefox/134.0","","Firefox","134.0","Windows","10.0","https://app.prolific.com/","en-US,en;q=0.5","673a8d64bf587131fa065ec5","679edb085803f58d6bbd31ca","679ef29efb6d9f4d6222c25c","","null","<img  src='G_9.jpg' height='90'> <img id='selected'  src='G_5.jpg' height='90'> <img id='selected' src='G_7.jpg' height='90'> <img src='G_3.jpg' height='90'> <img src='G_1.jpg' height='90'>","null","Learning example 0","",""
"","","","","","html-button-response","84","286291","0.0-32.0","38","1","2025-02-02 04:23:03","bc01a2b6f61d06f6604adb8657495020","66.42.132.135","Mozilla/5.0 (Windows NT 10.0; Win64; x64; rv:134.0) Gecko/20100101 Firefox/134.0","","Firefox","134.0","Windows","10.0","https://app.prolific.com/","en-US,en;q=0.5","673a8d64bf587131fa065ec5","679edb085803f58d6bbd31ca","679ef29efb6d9f4d6222c25c","","null","<img  src='G_9.jpg' height='90'> <img id='selected'  src='G_5.jpg' height='90'> <img id='selected' src='G_7.jpg' height='90'> <img src='G_3.jpg' height='90'> <img src='G_1.jpg' height='90'>","null","Learning example 0","",""
"","","","","","html-button-response","85","288748","0.0-33.0-0.0-0.0","38","1","2025-02-02 04:23:03","bc01a2b6f61d06f6604adb8657495020","66.42.132.135","Mozilla/5.0 (Windows NT 10.0; Win64; x64; rv:134.0) Gecko/20100101 Firefox/134.0","","Firefox","134.0","Windows","10.0","https://app.prolific.com/","en-US,en;q=0.5","673a8d64bf587131fa065ec5","679edb085803f58d6bbd31ca","679ef29efb6d9f4d6222c25c","","2456","<img  src='G_9.jpg' height='90'> <img id='selected'  src='G_5.jpg' height='90'> <img id='selected' src='G_7.jpg' height='90'> <img src='G_3.jpg' height='90'> <img src='G_1.jpg' height='90'>","2","Learning example 0","",""
"","","","","","html-button-response","86","288940","0.0-33.1-0.1-0.1","38","1","2025-02-02 04:23:03","bc01a2b6f61d06f6604adb8657495020","66.42.132.135","Mozilla/5.0 (Windows NT 10.0; Win64; x64; rv:134.0) Gecko/20100101 Firefox/134.0","","Firefox","134.0","Windows","10.0","https://app.prolific.com/","en-US,en;q=0.5","673a8d64bf587131fa065ec5","679edb085803f58d6bbd31ca","679ef29efb6d9f4d6222c25c","","189","<img  src='G_9.jpg' height='90'> <img id='selected'  src='G_5.jpg' height='90'> <img id='selected' src='G_7.jpg' height='90'> <img src='G_3.jpg' height='90'> <img src='G_1.jpg' height='90'>","2","Learning example 0","",""
"","","","","","html-button-response","87","289779","0.0-33.2-0.2-0.2","38","1","2025-02-02 04:23:03","bc01a2b6f61d06f6604adb8657495020","66.42.132.135","Mozilla/5.0 (Windows NT 10.0; Win64; x64; rv:134.0) Gecko/20100101 Firefox/134.0","","Firefox","134.0","Windows","10.0","https://app.prolific.com/","en-US,en;q=0.5","673a8d64bf587131fa065ec5","679edb085803f58d6bbd31ca","679ef29efb6d9f4d6222c25c","","836","<img  src='G_9.jpg' height='90'> <img id='selected'  src='G_5.jpg' height='90'> <img id='selected' src='G_7.jpg' height='90'> <img src='G_3.jpg' height='90'> <img src='G_1.jpg' height='90'>","1","Learning example 0","",""
"","","","","","html-button-response","88","289967","0.0-34.0","38","1","2025-02-02 04:23:03","bc01a2b6f61d06f6604adb8657495020","66.42.132.135","Mozilla/5.0 (Windows NT 10.0; Win64; x64; rv:134.0) Gecko/20100101 Firefox/134.0","","Firefox","134.0","Windows","10.0","https://app.prolific.com/","en-US,en;q=0.5","673a8d64bf587131fa065ec5","679edb085803f58d6bbd31ca","679ef29efb6d9f4d6222c25c","","184","<img  src='G_9.jpg' height='90'> <img   src='G_5.jpg' height='90'> <img  src='G_7.jpg' height='90'> <img src='G_3.jpg' height='90'> <img src='G_1.jpg' height='90'>","1","Learning example 0","",""
"","","","","","html-button-response","89","290372","0.0-35.0","38","1","2025-02-02 04:23:03","bc01a2b6f61d06f6604adb8657495020","66.42.132.135","Mozilla/5.0 (Windows NT 10.0; Win64; x64; rv:134.0) Gecko/20100101 Firefox/134.0","","Firefox","134.0","Windows","10.0","https://app.prolific.com/","en-US,en;q=0.5","673a8d64bf587131fa065ec5","679edb085803f58d6bbd31ca","679ef29efb6d9f4d6222c25c","","null","<img  src='G_9.jpg' height='90'> <img   src='G_5.jpg' height='90'> <img id='selected'  src='G_7.jpg' height='90'> <img src='G_3.jpg' height='90'> <img src='G_1.jpg' height='90'>","null","Learning example 0","",""
"","","","","","html-button-response","90","290685","0.0-36.0","38","1","2025-02-02 04:23:03","bc01a2b6f61d06f6604adb8657495020","66.42.132.135","Mozilla/5.0 (Windows NT 10.0; Win64; x64; rv:134.0) Gecko/20100101 Firefox/134.0","","Firefox","134.0","Windows","10.0","https://app.prolific.com/","en-US,en;q=0.5","673a8d64bf587131fa065ec5","679edb085803f58d6bbd31ca","679ef29efb6d9f4d6222c25c","","null","<img  src='G_9.jpg' height='90'> <img   src='G_5.jpg' height='90'> <img id='selected'  src='G_7.jpg' height='90'> <img id='selected' src='G_3.jpg' height='90'> <img src='G_1.jpg' height='90'>","null","Learning example 0","",""
"","","","","","html-button-response","91","290999","0.0-37.0","38","1","2025-02-02 04:23:03","bc01a2b6f61d06f6604adb8657495020","66.42.132.135","Mozilla/5.0 (Windows NT 10.0; Win64; x64; rv:134.0) Gecko/20100101 Firefox/134.0","","Firefox","134.0","Windows","10.0","https://app.prolific.com/","en-US,en;q=0.5","673a8d64bf587131fa065ec5","679edb085803f58d6bbd31ca","679ef29efb6d9f4d6222c25c","","null","<img  src='G_9.jpg' height='90'> <img   src='G_5.jpg' height='90'> <img id='selected'  src='G_7.jpg' height='90'> <img id='selected' src='G_3.jpg' height='90'> <img src='G_1.jpg' height='90'>","null","Learning example 0","",""
"","","","","","html-button-response","92","291888","0.0-38.0-0.0-0.0","38","1","2025-02-02 04:23:03","bc01a2b6f61d06f6604adb8657495020","66.42.132.135","Mozilla/5.0 (Windows NT 10.0; Win64; x64; rv:134.0) Gecko/20100101 Firefox/134.0","","Firefox","134.0","Windows","10.0","https://app.prolific.com/","en-US,en;q=0.5","673a8d64bf587131fa065ec5","679edb085803f58d6bbd31ca","679ef29efb6d9f4d6222c25c","","887","<img  src='G_9.jpg' height='90'> <img   src='G_5.jpg' height='90'> <img id='selected'  src='G_7.jpg' height='90'> <img id='selected' src='G_3.jpg' height='90'> <img src='G_1.jpg' height='90'>","3","Learning example 0","",""
"","","","","","html-button-response","93","292113","0.0-38.1-0.1-0.1","38","1","2025-02-02 04:23:03","bc01a2b6f61d06f6604adb8657495020","66.42.132.135","Mozilla/5.0 (Windows NT 10.0; Win64; x64; rv:134.0) Gecko/20100101 Firefox/134.0","","Firefox","134.0","Windows","10.0","https://app.prolific.com/","en-US,en;q=0.5","673a8d64bf587131fa065ec5","679edb085803f58d6bbd31ca","679ef29efb6d9f4d6222c25c","","223","<img  src='G_9.jpg' height='90'> <img   src='G_5.jpg' height='90'> <img id='selected'  src='G_7.jpg' height='90'> <img id='selected' src='G_3.jpg' height='90'> <img src='G_1.jpg' height='90'>","3","Learning example 0","",""
"","","","","","html-button-response","94","293025","0.0-38.2-0.2-0.2","38","1","2025-02-02 04:23:03","bc01a2b6f61d06f6604adb8657495020","66.42.132.135","Mozilla/5.0 (Windows NT 10.0; Win64; x64; rv:134.0) Gecko/20100101 Firefox/134.0","","Firefox","134.0","Windows","10.0","https://app.prolific.com/","en-US,en;q=0.5","673a8d64bf587131fa065ec5","679edb085803f58d6bbd31ca","679ef29efb6d9f4d6222c25c","","909","<img  src='G_9.jpg' height='90'> <img   src='G_5.jpg' height='90'> <img id='selected'  src='G_7.jpg' height='90'> <img id='selected' src='G_3.jpg' height='90'> <img src='G_1.jpg' height='90'>","2","Learning example 0","",""
"","","","","","html-button-response","95","293213","0.0-39.0","38","1","2025-02-02 04:23:03","bc01a2b6f61d06f6604adb8657495020","66.42.132.135","Mozilla/5.0 (Windows NT 10.0; Win64; x64; rv:134.0) Gecko/20100101 Firefox/134.0","","Firefox","134.0","Windows","10.0","https://app.prolific.com/","en-US,en;q=0.5","673a8d64bf587131fa065ec5","679edb085803f58d6bbd31ca","679ef29efb6d9f4d6222c25c","","186","<img  src='G_9.jpg' height='90'> <img   src='G_5.jpg' height='90'> <img   src='G_7.jpg' height='90'> <img  src='G_3.jpg' height='90'> <img src='G_1.jpg' height='90'>","2","Learning example 0","",""
"","","","","","html-button-response","96","293626","0.0-40.0","38","1","2025-02-02 04:23:03","bc01a2b6f61d06f6604adb8657495020","66.42.132.135","Mozilla/5.0 (Windows NT 10.0; Win64; x64; rv:134.0) Gecko/20100101 Firefox/134.0","","Firefox","134.0","Windows","10.0","https://app.prolific.com/","en-US,en;q=0.5","673a8d64bf587131fa065ec5","679edb085803f58d6bbd31ca","679ef29efb6d9f4d6222c25c","","null","<img  src='G_9.jpg' height='90'> <img   src='G_5.jpg' height='90'> <img   src='G_7.jpg' height='90'> <img id='selected'  src='G_3.jpg' height='90'> <img src='G_1.jpg' height='90'>","null","Learning example 0","",""
"","","","","","html-button-response","97","293954","0.0-41.0","38","1","2025-02-02 04:23:03","bc01a2b6f61d06f6604adb8657495020","66.42.132.135","Mozilla/5.0 (Windows NT 10.0; Win64; x64; rv:134.0) Gecko/20100101 Firefox/134.0","","Firefox","134.0","Windows","10.0","https://app.prolific.com/","en-US,en;q=0.5","673a8d64bf587131fa065ec5","679edb085803f58d6bbd31ca","679ef29efb6d9f4d6222c25c","","null","<img  src='G_9.jpg' height='90'> <img   src='G_5.jpg' height='90'> <img   src='G_7.jpg' height='90'> <img id='selected'  src='G_3.jpg' height='90'> <img id='selected' src='G_1.jpg' height='90'>","null","Learning example 0","",""
"","","","","","html-button-response","98","294268","0.0-42.0","38","1","2025-02-02 04:23:03","bc01a2b6f61d06f6604adb8657495020","66.42.132.135","Mozilla/5.0 (Windows NT 10.0; Win64; x64; rv:134.0) Gecko/20100101 Firefox/134.0","","Firefox","134.0","Windows","10.0","https://app.prolific.com/","en-US,en;q=0.5","673a8d64bf587131fa065ec5","679edb085803f58d6bbd31ca","679ef29efb6d9f4d6222c25c","","null","<img  src='G_9.jpg' height='90'> <img   src='G_5.jpg' height='90'> <img   src='G_7.jpg' height='90'> <img id='selected'  src='G_3.jpg' height='90'> <img id='selected' src='G_1.jpg' height='90'>","null","Learning example 0","",""
"","","","","","html-button-response","99","295157","0.0-43.0-0.0-0.0","38","1","2025-02-02 04:23:03","bc01a2b6f61d06f6604adb8657495020","66.42.132.135","Mozilla/5.0 (Windows NT 10.0; Win64; x64; rv:134.0) Gecko/20100101 Firefox/134.0","","Firefox","134.0","Windows","10.0","https://app.prolific.com/","en-US,en;q=0.5","673a8d64bf587131fa065ec5","679edb085803f58d6bbd31ca","679ef29efb6d9f4d6222c25c","","888","<img  src='G_9.jpg' height='90'> <img   src='G_5.jpg' height='90'> <img   src='G_7.jpg' height='90'> <img id='selected'  src='G_3.jpg' height='90'> <img id='selected' src='G_1.jpg' height='90'>","4","Learning example 0","",""
"","","","","","html-button-response","100","295363","0.0-43.1-0.1-0.1","38","1","2025-02-02 04:23:03","bc01a2b6f61d06f6604adb8657495020","66.42.132.135","Mozilla/5.0 (Windows NT 10.0; Win64; x64; rv:134.0) Gecko/20100101 Firefox/134.0","","Firefox","134.0","Windows","10.0","https://app.prolific.com/","en-US,en;q=0.5","673a8d64bf587131fa065ec5","679edb085803f58d6bbd31ca","679ef29efb6d9f4d6222c25c","","203","<img  src='G_9.jpg' height='90'> <img   src='G_5.jpg' height='90'> <img   src='G_7.jpg' height='90'> <img id='selected'  src='G_3.jpg' height='90'> <img id='selected' src='G_1.jpg' height='90'>","4","Learning example 0","",""
"","","","","","html-button-response","101","296253","0.0-43.2-0.2-0.2","38","1","2025-02-02 04:23:03","bc01a2b6f61d06f6604adb8657495020","66.42.132.135","Mozilla/5.0 (Windows NT 10.0; Win64; x64; rv:134.0) Gecko/20100101 Firefox/134.0","","Firefox","134.0","Windows","10.0","https://app.prolific.com/","en-US,en;q=0.5","673a8d64bf587131fa065ec5","679edb085803f58d6bbd31ca","679ef29efb6d9f4d6222c25c","","889","<img  src='G_9.jpg' height='90'> <img   src='G_5.jpg' height='90'> <img   src='G_7.jpg' height='90'> <img id='selected'  src='G_3.jpg' height='90'> <img id='selected' src='G_1.jpg' height='90'>","3","Learning example 0","",""
"","","","","","html-button-response","102","296446","0.0-44.0","38","1","2025-02-02 04:23:03","bc01a2b6f61d06f6604adb8657495020","66.42.132.135","Mozilla/5.0 (Windows NT 10.0; Win64; x64; rv:134.0) Gecko/20100101 Firefox/134.0","","Firefox","134.0","Windows","10.0","https://app.prolific.com/","en-US,en;q=0.5","673a8d64bf587131fa065ec5","679edb085803f58d6bbd31ca","679ef29efb6d9f4d6222c25c","","190","<img  src='G_9.jpg' height='90'> <img   src='G_5.jpg' height='90'> <img   src='G_7.jpg' height='90'> <img   src='G_3.jpg' height='90'> <img  src='G_1.jpg' height='90'>","3","Learning example 0","",""
"","","","","","html-keyboard-response","103","304415","0.0-45.0","38","1","2025-02-02 04:23:03","bc01a2b6f61d06f6604adb8657495020","66.42.132.135","Mozilla/5.0 (Windows NT 10.0; Win64; x64; rv:134.0) Gecko/20100101 Firefox/134.0","","Firefox","134.0","Windows","10.0","https://app.prolific.com/","en-US,en;q=0.5","673a8d64bf587131fa065ec5","679edb085803f58d6bbd31ca","679ef29efb6d9f4d6222c25c","","7966","[""Final order was 1,2,3,4,5. The initial order was 2,1,3,4,5.<br>It took 1 swaps to sort it correctly with Omgne Sort. <br><br>Press Enter to continue.""]","enter","","",""
"","","","","","html-keyboard-response","104","311463","0.0-46.0","38","1","2025-02-02 04:23:03","bc01a2b6f61d06f6604adb8657495020","66.42.132.135","Mozilla/5.0 (Windows NT 10.0; Win64; x64; rv:134.0) Gecko/20100101 Firefox/134.0","","Firefox","134.0","Windows","10.0","https://app.prolific.com/","en-US,en;q=0.5","673a8d64bf587131fa065ec5","679edb085803f58d6bbd31ca","679ef29efb6d9f4d6222c25c","","7046","[""Example 2<br><br>You will watch Omnge Sort in action. Try to identify any patterns in the comparisons made by this method. <br><br>Press Enter to continue.""]","enter","","",""
"","","","","","html-keyboard-response","105","311966","0.0-47.0","38","1","2025-02-02 04:23:03","bc01a2b6f61d06f6604adb8657495020","66.42.132.135","Mozilla/5.0 (Windows NT 10.0; Win64; x64; rv:134.0) Gecko/20100101 Firefox/134.0","","Firefox","134.0","Windows","10.0","https://app.prolific.com/","en-US,en;q=0.5","673a8d64bf587131fa065ec5","679edb085803f58d6bbd31ca","679ef29efb6d9f4d6222c25c","","null","<img id='selected' src='G_1.jpg' height='90'> <img src='G_4.jpg' height='90'> <img src='G_7.jpg' height='90'> <img src='G_5.jpg' height='90'> <img src='G_2.jpg' height='90'> <img src='G_8.jpg' height='90'> <img src='G_6.jpg' height='90'> <img src='G_3.jpg' height='90'>","null","Animation1","",""
"","","","","","html-keyboard-response","106","312469","0.0-48.0","38","1","2025-02-02 04:23:03","bc01a2b6f61d06f6604adb8657495020","66.42.132.135","Mozilla/5.0 (Windows NT 10.0; Win64; x64; rv:134.0) Gecko/20100101 Firefox/134.0","","Firefox","134.0","Windows","10.0","https://app.prolific.com/","en-US,en;q=0.5","673a8d64bf587131fa065ec5","679edb085803f58d6bbd31ca","679ef29efb6d9f4d6222c25c","","null","<img id='selected' src='G_1.jpg' height='90'> <img id='selected' src='G_4.jpg' height='90'> <img src='G_7.jpg' height='90'> <img src='G_5.jpg' height='90'> <img src='G_2.jpg' height='90'> <img src='G_8.jpg' height='90'> <img src='G_6.jpg' height='90'> <img src='G_3.jpg' height='90'>","null","Animation1","",""
"","","","","","html-keyboard-response","107","312982","0.0-49.0","38","1","2025-02-02 04:23:03","bc01a2b6f61d06f6604adb8657495020","66.42.132.135","Mozilla/5.0 (Windows NT 10.0; Win64; x64; rv:134.0) Gecko/20100101 Firefox/134.0","","Firefox","134.0","Windows","10.0","https://app.prolific.com/","en-US,en;q=0.5","673a8d64bf587131fa065ec5","679edb085803f58d6bbd31ca","679ef29efb6d9f4d6222c25c","","null","<img id='selected' src='G_1.jpg' height='90'> <img id='selected' src='G_4.jpg' height='90'> <img src='G_7.jpg' height='90'> <img src='G_5.jpg' height='90'> <img src='G_2.jpg' height='90'> <img src='G_8.jpg' height='90'> <img src='G_6.jpg' height='90'> <img src='G_3.jpg' height='90'>","null","Animation1","",""
"","","","","","html-keyboard-response","108","313293","0.0-50.0","38","1","2025-02-02 04:23:03","bc01a2b6f61d06f6604adb8657495020","66.42.132.135","Mozilla/5.0 (Windows NT 10.0; Win64; x64; rv:134.0) Gecko/20100101 Firefox/134.0","","Firefox","134.0","Windows","10.0","https://app.prolific.com/","en-US,en;q=0.5","673a8d64bf587131fa065ec5","679edb085803f58d6bbd31ca","679ef29efb6d9f4d6222c25c","","null","<img  src='G_1.jpg' height='90'> <img  src='G_4.jpg' height='90'> <img src='G_7.jpg' height='90'> <img src='G_5.jpg' height='90'> <img src='G_2.jpg' height='90'> <img src='G_8.jpg' height='90'> <img src='G_6.jpg' height='90'> <img src='G_3.jpg' height='90'>","null","Animation1","",""
"","","","","","html-keyboard-response","109","313808","0.0-51.0","38","1","2025-02-02 04:23:03","bc01a2b6f61d06f6604adb8657495020","66.42.132.135","Mozilla/5.0 (Windows NT 10.0; Win64; x64; rv:134.0) Gecko/20100101 Firefox/134.0","","Firefox","134.0","Windows","10.0","https://app.prolific.com/","en-US,en;q=0.5","673a8d64bf587131fa065ec5","679edb085803f58d6bbd31ca","679ef29efb6d9f4d6222c25c","","null","<img  src='G_1.jpg' height='90'> <img id='selected'  src='G_4.jpg' height='90'> <img src='G_7.jpg' height='90'> <img src='G_5.jpg' height='90'> <img src='G_2.jpg' height='90'> <img src='G_8.jpg' height='90'> <img src='G_6.jpg' height='90'> <img src='G_3.jpg' height='90'>","null","Animation1","",""
"","","","","","html-keyboard-response","110","314322","0.0-52.0","38","1","2025-02-02 04:23:03","bc01a2b6f61d06f6604adb8657495020","66.42.132.135","Mozilla/5.0 (Windows NT 10.0; Win64; x64; rv:134.0) Gecko/20100101 Firefox/134.0","","Firefox","134.0","Windows","10.0","https://app.prolific.com/","en-US,en;q=0.5","673a8d64bf587131fa065ec5","679edb085803f58d6bbd31ca","679ef29efb6d9f4d6222c25c","","null","<img  src='G_1.jpg' height='90'> <img id='selected'  src='G_4.jpg' height='90'> <img id='selected' src='G_7.jpg' height='90'> <img src='G_5.jpg' height='90'> <img src='G_2.jpg' height='90'> <img src='G_8.jpg' height='90'> <img src='G_6.jpg' height='90'> <img src='G_3.jpg' height='90'>","null","Animation1","",""
"","","","","","html-keyboard-response","111","314836","0.0-53.0","38","1","2025-02-02 04:23:03","bc01a2b6f61d06f6604adb8657495020","66.42.132.135","Mozilla/5.0 (Windows NT 10.0; Win64; x64; rv:134.0) Gecko/20100101 Firefox/134.0","","Firefox","134.0","Windows","10.0","https://app.prolific.com/","en-US,en;q=0.5","673a8d64bf587131fa065ec5","679edb085803f58d6bbd31ca","679ef29efb6d9f4d6222c25c","","null","<img  src='G_1.jpg' height='90'> <img id='swapped' src='G_7.jpg' height='90'> <img id='swapped'  src='G_4.jpg' height='90'> <img src='G_5.jpg' height='90'> <img src='G_2.jpg' height='90'> <img src='G_8.jpg' height='90'> <img src='G_6.jpg' height='90'> <img src='G_3.jpg' height='90'>","null","Animation1","",""
"","","","","","html-keyboard-response","112","315150","0.0-54.0","38","1","2025-02-02 04:23:03","bc01a2b6f61d06f6604adb8657495020","66.42.132.135","Mozilla/5.0 (Windows NT 10.0; Win64; x64; rv:134.0) Gecko/20100101 Firefox/134.0","","Firefox","134.0","Windows","10.0","https://app.prolific.com/","en-US,en;q=0.5","673a8d64bf587131fa065ec5","679edb085803f58d6bbd31ca","679ef29efb6d9f4d6222c25c","","null","<img  src='G_1.jpg' height='90'> <img  src='G_7.jpg' height='90'> <img   src='G_4.jpg' height='90'> <img src='G_5.jpg' height='90'> <img src='G_2.jpg' height='90'> <img src='G_8.jpg' height='90'> <img src='G_6.jpg' height='90'> <img src='G_3.jpg' height='90'>","null","Animation1","",""
"","","","","","html-keyboard-response","113","315667","0.0-55.0","38","1","2025-02-02 04:23:03","bc01a2b6f61d06f6604adb8657495020","66.42.132.135","Mozilla/5.0 (Windows NT 10.0; Win64; x64; rv:134.0) Gecko/20100101 Firefox/134.0","","Firefox","134.0","Windows","10.0","https://app.prolific.com/","en-US,en;q=0.5","673a8d64bf587131fa065ec5","679edb085803f58d6bbd31ca","679ef29efb6d9f4d6222c25c","","null","<img id='selected'  src='G_1.jpg' height='90'> <img  src='G_7.jpg' height='90'> <img   src='G_4.jpg' height='90'> <img src='G_5.jpg' height='90'> <img src='G_2.jpg' height='90'> <img src='G_8.jpg' height='90'> <img src='G_6.jpg' height='90'> <img src='G_3.jpg' height='90'>","null","Animation1","",""
"","","","","","html-keyboard-response","114","316194","0.0-56.0","38","1","2025-02-02 04:23:03","bc01a2b6f61d06f6604adb8657495020","66.42.132.135","Mozilla/5.0 (Windows NT 10.0; Win64; x64; rv:134.0) Gecko/20100101 Firefox/134.0","","Firefox","134.0","Windows","10.0","https://app.prolific.com/","en-US,en;q=0.5","673a8d64bf587131fa065ec5","679edb085803f58d6bbd31ca","679ef29efb6d9f4d6222c25c","","null","<img id='selected'  src='G_1.jpg' height='90'> <img id='selected'  src='G_7.jpg' height='90'> <img   src='G_4.jpg' height='90'> <img src='G_5.jpg' height='90'> <img src='G_2.jpg' height='90'> <img src='G_8.jpg' height='90'> <img src='G_6.jpg' height='90'> <img src='G_3.jpg' height='90'>","null","Animation1","",""
"","","","","","html-keyboard-response","115","316698","0.0-57.0","38","1","2025-02-02 04:23:03","bc01a2b6f61d06f6604adb8657495020","66.42.132.135","Mozilla/5.0 (Windows NT 10.0; Win64; x64; rv:134.0) Gecko/20100101 Firefox/134.0","","Firefox","134.0","Windows","10.0","https://app.prolific.com/","en-US,en;q=0.5","673a8d64bf587131fa065ec5","679edb085803f58d6bbd31ca","679ef29efb6d9f4d6222c25c","","null","<img id='swapped'  src='G_7.jpg' height='90'> <img id='swapped'  src='G_1.jpg' height='90'> <img   src='G_4.jpg' height='90'> <img src='G_5.jpg' height='90'> <img src='G_2.jpg' height='90'> <img src='G_8.jpg' height='90'> <img src='G_6.jpg' height='90'> <img src='G_3.jpg' height='90'>","null","Animation1","",""
"","","","","","html-keyboard-response","116","317008","0.0-58.0","38","1","2025-02-02 04:23:03","bc01a2b6f61d06f6604adb8657495020","66.42.132.135","Mozilla/5.0 (Windows NT 10.0; Win64; x64; rv:134.0) Gecko/20100101 Firefox/134.0","","Firefox","134.0","Windows","10.0","https://app.prolific.com/","en-US,en;q=0.5","673a8d64bf587131fa065ec5","679edb085803f58d6bbd31ca","679ef29efb6d9f4d6222c25c","","null","<img   src='G_7.jpg' height='90'> <img   src='G_1.jpg' height='90'> <img   src='G_4.jpg' height='90'> <img src='G_5.jpg' height='90'> <img src='G_2.jpg' height='90'> <img src='G_8.jpg' height='90'> <img src='G_6.jpg' height='90'> <img src='G_3.jpg' height='90'>","null","Animation1","",""
"","","","","","html-keyboard-response","117","317524","0.0-59.0","38","1","2025-02-02 04:23:03","bc01a2b6f61d06f6604adb8657495020","66.42.132.135","Mozilla/5.0 (Windows NT 10.0; Win64; x64; rv:134.0) Gecko/20100101 Firefox/134.0","","Firefox","134.0","Windows","10.0","https://app.prolific.com/","en-US,en;q=0.5","673a8d64bf587131fa065ec5","679edb085803f58d6bbd31ca","679ef29efb6d9f4d6222c25c","","null","<img   src='G_7.jpg' height='90'> <img   src='G_1.jpg' height='90'> <img id='selected'   src='G_4.jpg' height='90'> <img src='G_5.jpg' height='90'> <img src='G_2.jpg' height='90'> <img src='G_8.jpg' height='90'> <img src='G_6.jpg' height='90'> <img src='G_3.jpg' height='90'>","null","Animation1","",""
"","","","","","html-keyboard-response","118","318041","0.0-60.0","38","1","2025-02-02 04:23:03","bc01a2b6f61d06f6604adb8657495020","66.42.132.135","Mozilla/5.0 (Windows NT 10.0; Win64; x64; rv:134.0) Gecko/20100101 Firefox/134.0","","Firefox","134.0","Windows","10.0","https://app.prolific.com/","en-US,en;q=0.5","673a8d64bf587131fa065ec5","679edb085803f58d6bbd31ca","679ef29efb6d9f4d6222c25c","","null","<img   src='G_7.jpg' height='90'> <img   src='G_1.jpg' height='90'> <img id='selected'   src='G_4.jpg' height='90'> <img id='selected' src='G_5.jpg' height='90'> <img src='G_2.jpg' height='90'> <img src='G_8.jpg' height='90'> <img src='G_6.jpg' height='90'> <img src='G_3.jpg' height='90'>","null","Animation1","",""
"","","","","","html-keyboard-response","119","318557","0.0-61.0","38","1","2025-02-02 04:23:03","bc01a2b6f61d06f6604adb8657495020","66.42.132.135","Mozilla/5.0 (Windows NT 10.0; Win64; x64; rv:134.0) Gecko/20100101 Firefox/134.0","","Firefox","134.0","Windows","10.0","https://app.prolific.com/","en-US,en;q=0.5","673a8d64bf587131fa065ec5","679edb085803f58d6bbd31ca","679ef29efb6d9f4d6222c25c","","null","<img   src='G_7.jpg' height='90'> <img   src='G_1.jpg' height='90'> <img id='swapped' src='G_5.jpg' height='90'> <img id='swapped'   src='G_4.jpg' height='90'> <img src='G_2.jpg' height='90'> <img src='G_8.jpg' height='90'> <img src='G_6.jpg' height='90'> <img src='G_3.jpg' height='90'>","null","Animation1","",""
"","","","","","html-keyboard-response","120","318867","0.0-62.0","38","1","2025-02-02 04:23:03","bc01a2b6f61d06f6604adb8657495020","66.42.132.135","Mozilla/5.0 (Windows NT 10.0; Win64; x64; rv:134.0) Gecko/20100101 Firefox/134.0","","Firefox","134.0","Windows","10.0","https://app.prolific.com/","en-US,en;q=0.5","673a8d64bf587131fa065ec5","679edb085803f58d6bbd31ca","679ef29efb6d9f4d6222c25c","","null","<img   src='G_7.jpg' height='90'> <img   src='G_1.jpg' height='90'> <img  src='G_5.jpg' height='90'> <img    src='G_4.jpg' height='90'> <img src='G_2.jpg' height='90'> <img src='G_8.jpg' height='90'> <img src='G_6.jpg' height='90'> <img src='G_3.jpg' height='90'>","null","Animation1","",""
"","","","","","html-keyboard-response","121","319384","0.0-63.0","38","1","2025-02-02 04:23:03","bc01a2b6f61d06f6604adb8657495020","66.42.132.135","Mozilla/5.0 (Windows NT 10.0; Win64; x64; rv:134.0) Gecko/20100101 Firefox/134.0","","Firefox","134.0","Windows","10.0","https://app.prolific.com/","en-US,en;q=0.5","673a8d64bf587131fa065ec5","679edb085803f58d6bbd31ca","679ef29efb6d9f4d6222c25c","","null","<img   src='G_7.jpg' height='90'> <img id='selected'   src='G_1.jpg' height='90'> <img  src='G_5.jpg' height='90'> <img    src='G_4.jpg' height='90'> <img src='G_2.jpg' height='90'> <img src='G_8.jpg' height='90'> <img src='G_6.jpg' height='90'> <img src='G_3.jpg' height='90'>","null","Animation1","",""
"","","","","","html-keyboard-response","122","319899","0.0-64.0","38","1","2025-02-02 04:23:03","bc01a2b6f61d06f6604adb8657495020","66.42.132.135","Mozilla/5.0 (Windows NT 10.0; Win64; x64; rv:134.0) Gecko/20100101 Firefox/134.0","","Firefox","134.0","Windows","10.0","https://app.prolific.com/","en-US,en;q=0.5","673a8d64bf587131fa065ec5","679edb085803f58d6bbd31ca","679ef29efb6d9f4d6222c25c","","null","<img   src='G_7.jpg' height='90'> <img id='selected'   src='G_1.jpg' height='90'> <img id='selected'  src='G_5.jpg' height='90'> <img    src='G_4.jpg' height='90'> <img src='G_2.jpg' height='90'> <img src='G_8.jpg' height='90'> <img src='G_6.jpg' height='90'> <img src='G_3.jpg' height='90'>","null","Animation1","",""
"","","","","","html-keyboard-response","123","320415","0.0-65.0","38","1","2025-02-02 04:23:03","bc01a2b6f61d06f6604adb8657495020","66.42.132.135","Mozilla/5.0 (Windows NT 10.0; Win64; x64; rv:134.0) Gecko/20100101 Firefox/134.0","","Firefox","134.0","Windows","10.0","https://app.prolific.com/","en-US,en;q=0.5","673a8d64bf587131fa065ec5","679edb085803f58d6bbd31ca","679ef29efb6d9f4d6222c25c","","null","<img   src='G_7.jpg' height='90'> <img id='swapped'  src='G_5.jpg' height='90'> <img id='swapped'   src='G_1.jpg' height='90'> <img    src='G_4.jpg' height='90'> <img src='G_2.jpg' height='90'> <img src='G_8.jpg' height='90'> <img src='G_6.jpg' height='90'> <img src='G_3.jpg' height='90'>","null","Animation1","",""
"","","","","","html-keyboard-response","124","320729","0.0-66.0","38","1","2025-02-02 04:23:03","bc01a2b6f61d06f6604adb8657495020","66.42.132.135","Mozilla/5.0 (Windows NT 10.0; Win64; x64; rv:134.0) Gecko/20100101 Firefox/134.0","","Firefox","134.0","Windows","10.0","https://app.prolific.com/","en-US,en;q=0.5","673a8d64bf587131fa065ec5","679edb085803f58d6bbd31ca","679ef29efb6d9f4d6222c25c","","null","<img   src='G_7.jpg' height='90'> <img   src='G_5.jpg' height='90'> <img    src='G_1.jpg' height='90'> <img    src='G_4.jpg' height='90'> <img src='G_2.jpg' height='90'> <img src='G_8.jpg' height='90'> <img src='G_6.jpg' height='90'> <img src='G_3.jpg' height='90'>","null","Animation1","",""
"","","","","","html-keyboard-response","125","321232","0.0-67.0","38","1","2025-02-02 04:23:03","bc01a2b6f61d06f6604adb8657495020","66.42.132.135","Mozilla/5.0 (Windows NT 10.0; Win64; x64; rv:134.0) Gecko/20100101 Firefox/134.0","","Firefox","134.0","Windows","10.0","https://app.prolific.com/","en-US,en;q=0.5","673a8d64bf587131fa065ec5","679edb085803f58d6bbd31ca","679ef29efb6d9f4d6222c25c","","null","<img id='selected'   src='G_7.jpg' height='90'> <img   src='G_5.jpg' height='90'> <img    src='G_1.jpg' height='90'> <img    src='G_4.jpg' height='90'> <img src='G_2.jpg' height='90'> <img src='G_8.jpg' height='90'> <img src='G_6.jpg' height='90'> <img src='G_3.jpg' height='90'>","null","Animation1","",""
"","","","","","html-keyboard-response","126","321748","0.0-68.0","38","1","2025-02-02 04:23:03","bc01a2b6f61d06f6604adb8657495020","66.42.132.135","Mozilla/5.0 (Windows NT 10.0; Win64; x64; rv:134.0) Gecko/20100101 Firefox/134.0","","Firefox","134.0","Windows","10.0","https://app.prolific.com/","en-US,en;q=0.5","673a8d64bf587131fa065ec5","679edb085803f58d6bbd31ca","679ef29efb6d9f4d6222c25c","","null","<img id='selected'   src='G_7.jpg' height='90'> <img id='selected'   src='G_5.jpg' height='90'> <img    src='G_1.jpg' height='90'> <img    src='G_4.jpg' height='90'> <img src='G_2.jpg' height='90'> <img src='G_8.jpg' height='90'> <img src='G_6.jpg' height='90'> <img src='G_3.jpg' height='90'>","null","Animation1","",""
"","","","","","html-keyboard-response","127","322251","0.0-69.0","38","1","2025-02-02 04:23:03","bc01a2b6f61d06f6604adb8657495020","66.42.132.135","Mozilla/5.0 (Windows NT 10.0; Win64; x64; rv:134.0) Gecko/20100101 Firefox/134.0","","Firefox","134.0","Windows","10.0","https://app.prolific.com/","en-US,en;q=0.5","673a8d64bf587131fa065ec5","679edb085803f58d6bbd31ca","679ef29efb6d9f4d6222c25c","","null","<img id='swapped'   src='G_5.jpg' height='90'> <img id='swapped'   src='G_7.jpg' height='90'> <img    src='G_1.jpg' height='90'> <img    src='G_4.jpg' height='90'> <img src='G_2.jpg' height='90'> <img src='G_8.jpg' height='90'> <img src='G_6.jpg' height='90'> <img src='G_3.jpg' height='90'>","null","Animation1","",""
"","","","","","html-keyboard-response","128","322563","0.0-70.0","38","1","2025-02-02 04:23:03","bc01a2b6f61d06f6604adb8657495020","66.42.132.135","Mozilla/5.0 (Windows NT 10.0; Win64; x64; rv:134.0) Gecko/20100101 Firefox/134.0","","Firefox","134.0","Windows","10.0","https://app.prolific.com/","en-US,en;q=0.5","673a8d64bf587131fa065ec5","679edb085803f58d6bbd31ca","679ef29efb6d9f4d6222c25c","","null","<img    src='G_5.jpg' height='90'> <img    src='G_7.jpg' height='90'> <img    src='G_1.jpg' height='90'> <img    src='G_4.jpg' height='90'> <img src='G_2.jpg' height='90'> <img src='G_8.jpg' height='90'> <img src='G_6.jpg' height='90'> <img src='G_3.jpg' height='90'>","null","Animation1","",""
"","","","","","html-keyboard-response","129","323076","0.0-71.0","38","1","2025-02-02 04:23:03","bc01a2b6f61d06f6604adb8657495020","66.42.132.135","Mozilla/5.0 (Windows NT 10.0; Win64; x64; rv:134.0) Gecko/20100101 Firefox/134.0","","Firefox","134.0","Windows","10.0","https://app.prolific.com/","en-US,en;q=0.5","673a8d64bf587131fa065ec5","679edb085803f58d6bbd31ca","679ef29efb6d9f4d6222c25c","","null","<img    src='G_5.jpg' height='90'> <img    src='G_7.jpg' height='90'> <img    src='G_1.jpg' height='90'> <img id='selected'    src='G_4.jpg' height='90'> <img src='G_2.jpg' height='90'> <img src='G_8.jpg' height='90'> <img src='G_6.jpg' height='90'> <img src='G_3.jpg' height='90'>","null","Animation1","",""
"","","","","","html-keyboard-response","130","323592","0.0-72.0","38","1","2025-02-02 04:23:03","bc01a2b6f61d06f6604adb8657495020","66.42.132.135","Mozilla/5.0 (Windows NT 10.0; Win64; x64; rv:134.0) Gecko/20100101 Firefox/134.0","","Firefox","134.0","Windows","10.0","https://app.prolific.com/","en-US,en;q=0.5","673a8d64bf587131fa065ec5","679edb085803f58d6bbd31ca","679ef29efb6d9f4d6222c25c","","null","<img    src='G_5.jpg' height='90'> <img    src='G_7.jpg' height='90'> <img    src='G_1.jpg' height='90'> <img id='selected'    src='G_4.jpg' height='90'> <img id='selected' src='G_2.jpg' height='90'> <img src='G_8.jpg' height='90'> <img src='G_6.jpg' height='90'> <img src='G_3.jpg' height='90'>","null","Animation1","",""
"","","","","","html-keyboard-response","131","324108","0.0-73.0","38","1","2025-02-02 04:23:03","bc01a2b6f61d06f6604adb8657495020","66.42.132.135","Mozilla/5.0 (Windows NT 10.0; Win64; x64; rv:134.0) Gecko/20100101 Firefox/134.0","","Firefox","134.0","Windows","10.0","https://app.prolific.com/","en-US,en;q=0.5","673a8d64bf587131fa065ec5","679edb085803f58d6bbd31ca","679ef29efb6d9f4d6222c25c","","null","<img    src='G_5.jpg' height='90'> <img    src='G_7.jpg' height='90'> <img    src='G_1.jpg' height='90'> <img id='swapped' src='G_2.jpg' height='90'> <img id='swapped'    src='G_4.jpg' height='90'> <img src='G_8.jpg' height='90'> <img src='G_6.jpg' height='90'> <img src='G_3.jpg' height='90'>","null","Animation1","",""
"","","","","","html-keyboard-response","132","324420","0.0-74.0","38","1","2025-02-02 04:23:03","bc01a2b6f61d06f6604adb8657495020","66.42.132.135","Mozilla/5.0 (Windows NT 10.0; Win64; x64; rv:134.0) Gecko/20100101 Firefox/134.0","","Firefox","134.0","Windows","10.0","https://app.prolific.com/","en-US,en;q=0.5","673a8d64bf587131fa065ec5","679edb085803f58d6bbd31ca","679ef29efb6d9f4d6222c25c","","null","<img    src='G_5.jpg' height='90'> <img    src='G_7.jpg' height='90'> <img    src='G_1.jpg' height='90'> <img  src='G_2.jpg' height='90'> <img     src='G_4.jpg' height='90'> <img src='G_8.jpg' height='90'> <img src='G_6.jpg' height='90'> <img src='G_3.jpg' height='90'>","null","Animation1","",""
"","","","","","html-keyboard-response","133","324936","0.0-75.0","38","1","2025-02-02 04:23:03","bc01a2b6f61d06f6604adb8657495020","66.42.132.135","Mozilla/5.0 (Windows NT 10.0; Win64; x64; rv:134.0) Gecko/20100101 Firefox/134.0","","Firefox","134.0","Windows","10.0","https://app.prolific.com/","en-US,en;q=0.5","673a8d64bf587131fa065ec5","679edb085803f58d6bbd31ca","679ef29efb6d9f4d6222c25c","","null","<img    src='G_5.jpg' height='90'> <img    src='G_7.jpg' height='90'> <img id='selected'    src='G_1.jpg' height='90'> <img  src='G_2.jpg' height='90'> <img     src='G_4.jpg' height='90'> <img src='G_8.jpg' height='90'> <img src='G_6.jpg' height='90'> <img src='G_3.jpg' height='90'>","null","Animation1","",""
"","","","","","html-keyboard-response","134","325452","0.0-76.0","38","1","2025-02-02 04:23:03","bc01a2b6f61d06f6604adb8657495020","66.42.132.135","Mozilla/5.0 (Windows NT 10.0; Win64; x64; rv:134.0) Gecko/20100101 Firefox/134.0","","Firefox","134.0","Windows","10.0","https://app.prolific.com/","en-US,en;q=0.5","673a8d64bf587131fa065ec5","679edb085803f58d6bbd31ca","679ef29efb6d9f4d6222c25c","","null","<img    src='G_5.jpg' height='90'> <img    src='G_7.jpg' height='90'> <img id='selected'    src='G_1.jpg' height='90'> <img id='selected'  src='G_2.jpg' height='90'> <img     src='G_4.jpg' height='90'> <img src='G_8.jpg' height='90'> <img src='G_6.jpg' height='90'> <img src='G_3.jpg' height='90'>","null","Animation1","",""
"","","","","","html-keyboard-response","135","325968","0.0-77.0","38","1","2025-02-02 04:23:03","bc01a2b6f61d06f6604adb8657495020","66.42.132.135","Mozilla/5.0 (Windows NT 10.0; Win64; x64; rv:134.0) Gecko/20100101 Firefox/134.0","","Firefox","134.0","Windows","10.0","https://app.prolific.com/","en-US,en;q=0.5","673a8d64bf587131fa065ec5","679edb085803f58d6bbd31ca","679ef29efb6d9f4d6222c25c","","null","<img    src='G_5.jpg' height='90'> <img    src='G_7.jpg' height='90'> <img id='swapped'  src='G_2.jpg' height='90'> <img id='swapped'    src='G_1.jpg' height='90'> <img     src='G_4.jpg' height='90'> <img src='G_8.jpg' height='90'> <img src='G_6.jpg' height='90'> <img src='G_3.jpg' height='90'>","null","Animation1","",""
"","","","","","html-keyboard-response","136","326281","0.0-78.0","38","1","2025-02-02 04:23:03","bc01a2b6f61d06f6604adb8657495020","66.42.132.135","Mozilla/5.0 (Windows NT 10.0; Win64; x64; rv:134.0) Gecko/20100101 Firefox/134.0","","Firefox","134.0","Windows","10.0","https://app.prolific.com/","en-US,en;q=0.5","673a8d64bf587131fa065ec5","679edb085803f58d6bbd31ca","679ef29efb6d9f4d6222c25c","","null","<img    src='G_5.jpg' height='90'> <img    src='G_7.jpg' height='90'> <img   src='G_2.jpg' height='90'> <img     src='G_1.jpg' height='90'> <img     src='G_4.jpg' height='90'> <img src='G_8.jpg' height='90'> <img src='G_6.jpg' height='90'> <img src='G_3.jpg' height='90'>","null","Animation1","",""
"","","","","","html-keyboard-response","137","326796","0.0-79.0","38","1","2025-02-02 04:23:03","bc01a2b6f61d06f6604adb8657495020","66.42.132.135","Mozilla/5.0 (Windows NT 10.0; Win64; x64; rv:134.0) Gecko/20100101 Firefox/134.0","","Firefox","134.0","Windows","10.0","https://app.prolific.com/","en-US,en;q=0.5","673a8d64bf587131fa065ec5","679edb085803f58d6bbd31ca","679ef29efb6d9f4d6222c25c","","null","<img    src='G_5.jpg' height='90'> <img id='selected'    src='G_7.jpg' height='90'> <img   src='G_2.jpg' height='90'> <img     src='G_1.jpg' height='90'> <img     src='G_4.jpg' height='90'> <img src='G_8.jpg' height='90'> <img src='G_6.jpg' height='90'> <img src='G_3.jpg' height='90'>","null","Animation1","",""
"","","","","","html-keyboard-response","138","327313","0.0-80.0","38","1","2025-02-02 04:23:03","bc01a2b6f61d06f6604adb8657495020","66.42.132.135","Mozilla/5.0 (Windows NT 10.0; Win64; x64; rv:134.0) Gecko/20100101 Firefox/134.0","","Firefox","134.0","Windows","10.0","https://app.prolific.com/","en-US,en;q=0.5","673a8d64bf587131fa065ec5","679edb085803f58d6bbd31ca","679ef29efb6d9f4d6222c25c","","null","<img    src='G_5.jpg' height='90'> <img id='selected'    src='G_7.jpg' height='90'> <img id='selected'   src='G_2.jpg' height='90'> <img     src='G_1.jpg' height='90'> <img     src='G_4.jpg' height='90'> <img src='G_8.jpg' height='90'> <img src='G_6.jpg' height='90'> <img src='G_3.jpg' height='90'>","null","Animation1","",""
"","","","","","html-keyboard-response","139","327831","0.0-81.0","38","1","2025-02-02 04:23:03","bc01a2b6f61d06f6604adb8657495020","66.42.132.135","Mozilla/5.0 (Windows NT 10.0; Win64; x64; rv:134.0) Gecko/20100101 Firefox/134.0","","Firefox","134.0","Windows","10.0","https://app.prolific.com/","en-US,en;q=0.5","673a8d64bf587131fa065ec5","679edb085803f58d6bbd31ca","679ef29efb6d9f4d6222c25c","","null","<img    src='G_5.jpg' height='90'> <img id='swapped'   src='G_2.jpg' height='90'> <img id='swapped'    src='G_7.jpg' height='90'> <img     src='G_1.jpg' height='90'> <img     src='G_4.jpg' height='90'> <img src='G_8.jpg' height='90'> <img src='G_6.jpg' height='90'> <img src='G_3.jpg' height='90'>","null","Animation1","",""
"","","","","","html-keyboard-response","140","328146","0.0-82.0","38","1","2025-02-02 04:23:03","bc01a2b6f61d06f6604adb8657495020","66.42.132.135","Mozilla/5.0 (Windows NT 10.0; Win64; x64; rv:134.0) Gecko/20100101 Firefox/134.0","","Firefox","134.0","Windows","10.0","https://app.prolific.com/","en-US,en;q=0.5","673a8d64bf587131fa065ec5","679edb085803f58d6bbd31ca","679ef29efb6d9f4d6222c25c","","null","<img    src='G_5.jpg' height='90'> <img    src='G_2.jpg' height='90'> <img     src='G_7.jpg' height='90'> <img     src='G_1.jpg' height='90'> <img     src='G_4.jpg' height='90'> <img src='G_8.jpg' height='90'> <img src='G_6.jpg' height='90'> <img src='G_3.jpg' height='90'>","null","Animation1","",""
"","","","","","html-keyboard-response","141","328661","0.0-83.0","38","1","2025-02-02 04:23:03","bc01a2b6f61d06f6604adb8657495020","66.42.132.135","Mozilla/5.0 (Windows NT 10.0; Win64; x64; rv:134.0) Gecko/20100101 Firefox/134.0","","Firefox","134.0","Windows","10.0","https://app.prolific.com/","en-US,en;q=0.5","673a8d64bf587131fa065ec5","679edb085803f58d6bbd31ca","679ef29efb6d9f4d6222c25c","","null","<img id='selected'    src='G_5.jpg' height='90'> <img    src='G_2.jpg' height='90'> <img     src='G_7.jpg' height='90'> <img     src='G_1.jpg' height='90'> <img     src='G_4.jpg' height='90'> <img src='G_8.jpg' height='90'> <img src='G_6.jpg' height='90'> <img src='G_3.jpg' height='90'>","null","Animation1","",""
"","","","","","html-keyboard-response","142","329176","0.0-84.0","38","1","2025-02-02 04:23:03","bc01a2b6f61d06f6604adb8657495020","66.42.132.135","Mozilla/5.0 (Windows NT 10.0; Win64; x64; rv:134.0) Gecko/20100101 Firefox/134.0","","Firefox","134.0","Windows","10.0","https://app.prolific.com/","en-US,en;q=0.5","673a8d64bf587131fa065ec5","679edb085803f58d6bbd31ca","679ef29efb6d9f4d6222c25c","","null","<img id='selected'    src='G_5.jpg' height='90'> <img id='selected'    src='G_2.jpg' height='90'> <img     src='G_7.jpg' height='90'> <img     src='G_1.jpg' height='90'> <img     src='G_4.jpg' height='90'> <img src='G_8.jpg' height='90'> <img src='G_6.jpg' height='90'> <img src='G_3.jpg' height='90'>","null","Animation1","",""
"","","","","","html-keyboard-response","143","329691","0.0-85.0","38","1","2025-02-02 04:23:03","bc01a2b6f61d06f6604adb8657495020","66.42.132.135","Mozilla/5.0 (Windows NT 10.0; Win64; x64; rv:134.0) Gecko/20100101 Firefox/134.0","","Firefox","134.0","Windows","10.0","https://app.prolific.com/","en-US,en;q=0.5","673a8d64bf587131fa065ec5","679edb085803f58d6bbd31ca","679ef29efb6d9f4d6222c25c","","null","<img id='selected'    src='G_5.jpg' height='90'> <img id='selected'    src='G_2.jpg' height='90'> <img     src='G_7.jpg' height='90'> <img     src='G_1.jpg' height='90'> <img     src='G_4.jpg' height='90'> <img src='G_8.jpg' height='90'> <img src='G_6.jpg' height='90'> <img src='G_3.jpg' height='90'>","null","Animation1","",""
"","","","","","html-keyboard-response","144","330005","0.0-86.0","38","1","2025-02-02 04:23:03","bc01a2b6f61d06f6604adb8657495020","66.42.132.135","Mozilla/5.0 (Windows NT 10.0; Win64; x64; rv:134.0) Gecko/20100101 Firefox/134.0","","Firefox","134.0","Windows","10.0","https://app.prolific.com/","en-US,en;q=0.5","673a8d64bf587131fa065ec5","679edb085803f58d6bbd31ca","679ef29efb6d9f4d6222c25c","","null","<img     src='G_5.jpg' height='90'> <img     src='G_2.jpg' height='90'> <img     src='G_7.jpg' height='90'> <img     src='G_1.jpg' height='90'> <img     src='G_4.jpg' height='90'> <img src='G_8.jpg' height='90'> <img src='G_6.jpg' height='90'> <img src='G_3.jpg' height='90'>","null","Animation1","",""
"","","","","","html-keyboard-response","145","330519","0.0-87.0","38","1","2025-02-02 04:23:03","bc01a2b6f61d06f6604adb8657495020","66.42.132.135","Mozilla/5.0 (Windows NT 10.0; Win64; x64; rv:134.0) Gecko/20100101 Firefox/134.0","","Firefox","134.0","Windows","10.0","https://app.prolific.com/","en-US,en;q=0.5","673a8d64bf587131fa065ec5","679edb085803f58d6bbd31ca","679ef29efb6d9f4d6222c25c","","null","<img     src='G_5.jpg' height='90'> <img     src='G_2.jpg' height='90'> <img     src='G_7.jpg' height='90'> <img     src='G_1.jpg' height='90'> <img id='selected'     src='G_4.jpg' height='90'> <img src='G_8.jpg' height='90'> <img src='G_6.jpg' height='90'> <img src='G_3.jpg' height='90'>","null","Animation1","",""
"","","","","","html-keyboard-response","146","331035","0.0-88.0","38","1","2025-02-02 04:23:03","bc01a2b6f61d06f6604adb8657495020","66.42.132.135","Mozilla/5.0 (Windows NT 10.0; Win64; x64; rv:134.0) Gecko/20100101 Firefox/134.0","","Firefox","134.0","Windows","10.0","https://app.prolific.com/","en-US,en;q=0.5","673a8d64bf587131fa065ec5","679edb085803f58d6bbd31ca","679ef29efb6d9f4d6222c25c","","null","<img     src='G_5.jpg' height='90'> <img     src='G_2.jpg' height='90'> <img     src='G_7.jpg' height='90'> <img     src='G_1.jpg' height='90'> <img id='selected'     src='G_4.jpg' height='90'> <img id='selected' src='G_8.jpg' height='90'> <img src='G_6.jpg' height='90'> <img src='G_3.jpg' height='90'>","null","Animation1","",""
"","","","","","html-keyboard-response","147","331551","0.0-89.0","38","1","2025-02-02 04:23:03","bc01a2b6f61d06f6604adb8657495020","66.42.132.135","Mozilla/5.0 (Windows NT 10.0; Win64; x64; rv:134.0) Gecko/20100101 Firefox/134.0","","Firefox","134.0","Windows","10.0","https://app.prolific.com/","en-US,en;q=0.5","673a8d64bf587131fa065ec5","679edb085803f58d6bbd31ca","679ef29efb6d9f4d6222c25c","","null","<img     src='G_5.jpg' height='90'> <img     src='G_2.jpg' height='90'> <img     src='G_7.jpg' height='90'> <img     src='G_1.jpg' height='90'> <img id='swapped' src='G_8.jpg' height='90'> <img id='swapped'     src='G_4.jpg' height='90'> <img src='G_6.jpg' height='90'> <img src='G_3.jpg' height='90'>","null","Animation1","",""
"","","","","","html-keyboard-response","148","331861","0.0-90.0","38","1","2025-02-02 04:23:03","bc01a2b6f61d06f6604adb8657495020","66.42.132.135","Mozilla/5.0 (Windows NT 10.0; Win64; x64; rv:134.0) Gecko/20100101 Firefox/134.0","","Firefox","134.0","Windows","10.0","https://app.prolific.com/","en-US,en;q=0.5","673a8d64bf587131fa065ec5","679edb085803f58d6bbd31ca","679ef29efb6d9f4d6222c25c","","null","<img     src='G_5.jpg' height='90'> <img     src='G_2.jpg' height='90'> <img     src='G_7.jpg' height='90'> <img     src='G_1.jpg' height='90'> <img  src='G_8.jpg' height='90'> <img      src='G_4.jpg' height='90'> <img src='G_6.jpg' height='90'> <img src='G_3.jpg' height='90'>","null","Animation1","",""
"","","","","","html-keyboard-response","149","332378","0.0-91.0","38","1","2025-02-02 04:23:03","bc01a2b6f61d06f6604adb8657495020","66.42.132.135","Mozilla/5.0 (Windows NT 10.0; Win64; x64; rv:134.0) Gecko/20100101 Firefox/134.0","","Firefox","134.0","Windows","10.0","https://app.prolific.com/","en-US,en;q=0.5","673a8d64bf587131fa065ec5","679edb085803f58d6bbd31ca","679ef29efb6d9f4d6222c25c","","null","<img     src='G_5.jpg' height='90'> <img     src='G_2.jpg' height='90'> <img     src='G_7.jpg' height='90'> <img id='selected'     src='G_1.jpg' height='90'> <img  src='G_8.jpg' height='90'> <img      src='G_4.jpg' height='90'> <img src='G_6.jpg' height='90'> <img src='G_3.jpg' height='90'>","null","Animation1","",""
"","","","","","html-keyboard-response","150","332894","0.0-92.0","38","1","2025-02-02 04:23:03","bc01a2b6f61d06f6604adb8657495020","66.42.132.135","Mozilla/5.0 (Windows NT 10.0; Win64; x64; rv:134.0) Gecko/20100101 Firefox/134.0","","Firefox","134.0","Windows","10.0","https://app.prolific.com/","en-US,en;q=0.5","673a8d64bf587131fa065ec5","679edb085803f58d6bbd31ca","679ef29efb6d9f4d6222c25c","","null","<img     src='G_5.jpg' height='90'> <img     src='G_2.jpg' height='90'> <img     src='G_7.jpg' height='90'> <img id='selected'     src='G_1.jpg' height='90'> <img id='selected'  src='G_8.jpg' height='90'> <img      src='G_4.jpg' height='90'> <img src='G_6.jpg' height='90'> <img src='G_3.jpg' height='90'>","null","Animation1","",""
"","","","","","html-keyboard-response","151","333411","0.0-93.0","38","1","2025-02-02 04:23:03","bc01a2b6f61d06f6604adb8657495020","66.42.132.135","Mozilla/5.0 (Windows NT 10.0; Win64; x64; rv:134.0) Gecko/20100101 Firefox/134.0","","Firefox","134.0","Windows","10.0","https://app.prolific.com/","en-US,en;q=0.5","673a8d64bf587131fa065ec5","679edb085803f58d6bbd31ca","679ef29efb6d9f4d6222c25c","","null","<img     src='G_5.jpg' height='90'> <img     src='G_2.jpg' height='90'> <img     src='G_7.jpg' height='90'> <img id='selected'     src='G_1.jpg' height='90'> <img id='selected'  src='G_8.jpg' height='90'> <img      src='G_4.jpg' height='90'> <img src='G_6.jpg' height='90'> <img src='G_3.jpg' height='90'>","null","Animation1","",""
"","","","","","html-keyboard-response","152","333721","0.0-94.0","38","1","2025-02-02 04:23:03","bc01a2b6f61d06f6604adb8657495020","66.42.132.135","Mozilla/5.0 (Windows NT 10.0; Win64; x64; rv:134.0) Gecko/20100101 Firefox/134.0","","Firefox","134.0","Windows","10.0","https://app.prolific.com/","en-US,en;q=0.5","673a8d64bf587131fa065ec5","679edb085803f58d6bbd31ca","679ef29efb6d9f4d6222c25c","","null","<img     src='G_5.jpg' height='90'> <img     src='G_2.jpg' height='90'> <img     src='G_7.jpg' height='90'> <img      src='G_1.jpg' height='90'> <img   src='G_8.jpg' height='90'> <img      src='G_4.jpg' height='90'> <img src='G_6.jpg' height='90'> <img src='G_3.jpg' height='90'>","null","Animation1","",""
"","","","","","html-keyboard-response","153","334237","0.0-95.0","38","1","2025-02-02 04:23:03","bc01a2b6f61d06f6604adb8657495020","66.42.132.135","Mozilla/5.0 (Windows NT 10.0; Win64; x64; rv:134.0) Gecko/20100101 Firefox/134.0","","Firefox","134.0","Windows","10.0","https://app.prolific.com/","en-US,en;q=0.5","673a8d64bf587131fa065ec5","679edb085803f58d6bbd31ca","679ef29efb6d9f4d6222c25c","","null","<img     src='G_5.jpg' height='90'> <img     src='G_2.jpg' height='90'> <img     src='G_7.jpg' height='90'> <img      src='G_1.jpg' height='90'> <img   src='G_8.jpg' height='90'> <img id='selected'      src='G_4.jpg' height='90'> <img src='G_6.jpg' height='90'> <img src='G_3.jpg' height='90'>","null","Animation1","",""
"","","","","","html-keyboard-response","154","334756","0.0-96.0","38","1","2025-02-02 04:23:03","bc01a2b6f61d06f6604adb8657495020","66.42.132.135","Mozilla/5.0 (Windows NT 10.0; Win64; x64; rv:134.0) Gecko/20100101 Firefox/134.0","","Firefox","134.0","Windows","10.0","https://app.prolific.com/","en-US,en;q=0.5","673a8d64bf587131fa065ec5","679edb085803f58d6bbd31ca","679ef29efb6d9f4d6222c25c","","null","<img     src='G_5.jpg' height='90'> <img     src='G_2.jpg' height='90'> <img     src='G_7.jpg' height='90'> <img      src='G_1.jpg' height='90'> <img   src='G_8.jpg' height='90'> <img id='selected'      src='G_4.jpg' height='90'> <img id='selected' src='G_6.jpg' height='90'> <img src='G_3.jpg' height='90'>","null","Animation1","",""
"","","","","","html-keyboard-response","155","335273","0.0-97.0","38","1","2025-02-02 04:23:03","bc01a2b6f61d06f6604adb8657495020","66.42.132.135","Mozilla/5.0 (Windows NT 10.0; Win64; x64; rv:134.0) Gecko/20100101 Firefox/134.0","","Firefox","134.0","Windows","10.0","https://app.prolific.com/","en-US,en;q=0.5","673a8d64bf587131fa065ec5","679edb085803f58d6bbd31ca","679ef29efb6d9f4d6222c25c","","null","<img     src='G_5.jpg' height='90'> <img     src='G_2.jpg' height='90'> <img     src='G_7.jpg' height='90'> <img      src='G_1.jpg' height='90'> <img   src='G_8.jpg' height='90'> <img id='selected'      src='G_4.jpg' height='90'> <img id='selected' src='G_6.jpg' height='90'> <img src='G_3.jpg' height='90'>","null","Animation1","",""
"","","","","","html-keyboard-response","156","335586","0.0-98.0","38","1","2025-02-02 04:23:03","bc01a2b6f61d06f6604adb8657495020","66.42.132.135","Mozilla/5.0 (Windows NT 10.0; Win64; x64; rv:134.0) Gecko/20100101 Firefox/134.0","","Firefox","134.0","Windows","10.0","https://app.prolific.com/","en-US,en;q=0.5","673a8d64bf587131fa065ec5","679edb085803f58d6bbd31ca","679ef29efb6d9f4d6222c25c","","null","<img     src='G_5.jpg' height='90'> <img     src='G_2.jpg' height='90'> <img     src='G_7.jpg' height='90'> <img      src='G_1.jpg' height='90'> <img   src='G_8.jpg' height='90'> <img       src='G_4.jpg' height='90'> <img  src='G_6.jpg' height='90'> <img src='G_3.jpg' height='90'>","null","Animation1","",""
"","","","","","html-keyboard-response","157","336103","0.0-99.0","38","1","2025-02-02 04:23:03","bc01a2b6f61d06f6604adb8657495020","66.42.132.135","Mozilla/5.0 (Windows NT 10.0; Win64; x64; rv:134.0) Gecko/20100101 Firefox/134.0","","Firefox","134.0","Windows","10.0","https://app.prolific.com/","en-US,en;q=0.5","673a8d64bf587131fa065ec5","679edb085803f58d6bbd31ca","679ef29efb6d9f4d6222c25c","","null","<img     src='G_5.jpg' height='90'> <img     src='G_2.jpg' height='90'> <img     src='G_7.jpg' height='90'> <img      src='G_1.jpg' height='90'> <img   src='G_8.jpg' height='90'> <img       src='G_4.jpg' height='90'> <img id='selected'  src='G_6.jpg' height='90'> <img src='G_3.jpg' height='90'>","null","Animation1","",""
"","","","","","html-keyboard-response","158","336619","0.0-100.0","38","1","2025-02-02 04:23:03","bc01a2b6f61d06f6604adb8657495020","66.42.132.135","Mozilla/5.0 (Windows NT 10.0; Win64; x64; rv:134.0) Gecko/20100101 Firefox/134.0","","Firefox","134.0","Windows","10.0","https://app.prolific.com/","en-US,en;q=0.5","673a8d64bf587131fa065ec5","679edb085803f58d6bbd31ca","679ef29efb6d9f4d6222c25c","","null","<img     src='G_5.jpg' height='90'> <img     src='G_2.jpg' height='90'> <img     src='G_7.jpg' height='90'> <img      src='G_1.jpg' height='90'> <img   src='G_8.jpg' height='90'> <img       src='G_4.jpg' height='90'> <img id='selected'  src='G_6.jpg' height='90'> <img id='selected' src='G_3.jpg' height='90'>","null","Animation1","",""
"","","","","","html-keyboard-response","159","337137","0.0-101.0","38","1","2025-02-02 04:23:03","bc01a2b6f61d06f6604adb8657495020","66.42.132.135","Mozilla/5.0 (Windows NT 10.0; Win64; x64; rv:134.0) Gecko/20100101 Firefox/134.0","","Firefox","134.0","Windows","10.0","https://app.prolific.com/","en-US,en;q=0.5","673a8d64bf587131fa065ec5","679edb085803f58d6bbd31ca","679ef29efb6d9f4d6222c25c","","null","<img     src='G_5.jpg' height='90'> <img     src='G_2.jpg' height='90'> <img     src='G_7.jpg' height='90'> <img      src='G_1.jpg' height='90'> <img   src='G_8.jpg' height='90'> <img       src='G_4.jpg' height='90'> <img id='swapped' src='G_3.jpg' height='90'> <img id='swapped'  src='G_6.jpg' height='90'>","null","Animation1","",""
"","","","","","html-keyboard-response","160","337449","0.0-102.0","38","1","2025-02-02 04:23:03","bc01a2b6f61d06f6604adb8657495020","66.42.132.135","Mozilla/5.0 (Windows NT 10.0; Win64; x64; rv:134.0) Gecko/20100101 Firefox/134.0","","Firefox","134.0","Windows","10.0","https://app.prolific.com/","en-US,en;q=0.5","673a8d64bf587131fa065ec5","679edb085803f58d6bbd31ca","679ef29efb6d9f4d6222c25c","","null","<img     src='G_5.jpg' height='90'> <img     src='G_2.jpg' height='90'> <img     src='G_7.jpg' height='90'> <img      src='G_1.jpg' height='90'> <img   src='G_8.jpg' height='90'> <img       src='G_4.jpg' height='90'> <img  src='G_3.jpg' height='90'> <img   src='G_6.jpg' height='90'>","null","Animation1","",""
"","","","","","html-keyboard-response","161","337965","0.0-103.0","38","1","2025-02-02 04:23:03","bc01a2b6f61d06f6604adb8657495020","66.42.132.135","Mozilla/5.0 (Windows NT 10.0; Win64; x64; rv:134.0) Gecko/20100101 Firefox/134.0","","Firefox","134.0","Windows","10.0","https://app.prolific.com/","en-US,en;q=0.5","673a8d64bf587131fa065ec5","679edb085803f58d6bbd31ca","679ef29efb6d9f4d6222c25c","","null","<img     src='G_5.jpg' height='90'> <img     src='G_2.jpg' height='90'> <img     src='G_7.jpg' height='90'> <img      src='G_1.jpg' height='90'> <img   src='G_8.jpg' height='90'> <img id='selected'       src='G_4.jpg' height='90'> <img  src='G_3.jpg' height='90'> <img   src='G_6.jpg' height='90'>","null","Animation1","",""
"","","","","","html-keyboard-response","162","338481","0.0-104.0","38","1","2025-02-02 04:23:03","bc01a2b6f61d06f6604adb8657495020","66.42.132.135","Mozilla/5.0 (Windows NT 10.0; Win64; x64; rv:134.0) Gecko/20100101 Firefox/134.0","","Firefox","134.0","Windows","10.0","https://app.prolific.com/","en-US,en;q=0.5","673a8d64bf587131fa065ec5","679edb085803f58d6bbd31ca","679ef29efb6d9f4d6222c25c","","null","<img     src='G_5.jpg' height='90'> <img     src='G_2.jpg' height='90'> <img     src='G_7.jpg' height='90'> <img      src='G_1.jpg' height='90'> <img   src='G_8.jpg' height='90'> <img id='selected'       src='G_4.jpg' height='90'> <img id='selected'  src='G_3.jpg' height='90'> <img   src='G_6.jpg' height='90'>","null","Animation1","",""
"","","","","","html-keyboard-response","163","338996","0.0-105.0","38","1","2025-02-02 04:23:03","bc01a2b6f61d06f6604adb8657495020","66.42.132.135","Mozilla/5.0 (Windows NT 10.0; Win64; x64; rv:134.0) Gecko/20100101 Firefox/134.0","","Firefox","134.0","Windows","10.0","https://app.prolific.com/","en-US,en;q=0.5","673a8d64bf587131fa065ec5","679edb085803f58d6bbd31ca","679ef29efb6d9f4d6222c25c","","null","<img     src='G_5.jpg' height='90'> <img     src='G_2.jpg' height='90'> <img     src='G_7.jpg' height='90'> <img      src='G_1.jpg' height='90'> <img   src='G_8.jpg' height='90'> <img id='selected'       src='G_4.jpg' height='90'> <img id='selected'  src='G_3.jpg' height='90'> <img   src='G_6.jpg' height='90'>","null","Animation1","",""
"","","","","","html-keyboard-response","164","339310","0.0-106.0","38","1","2025-02-02 04:23:03","bc01a2b6f61d06f6604adb8657495020","66.42.132.135","Mozilla/5.0 (Windows NT 10.0; Win64; x64; rv:134.0) Gecko/20100101 Firefox/134.0","","Firefox","134.0","Windows","10.0","https://app.prolific.com/","en-US,en;q=0.5","673a8d64bf587131fa065ec5","679edb085803f58d6bbd31ca","679ef29efb6d9f4d6222c25c","","null","<img     src='G_5.jpg' height='90'> <img     src='G_2.jpg' height='90'> <img     src='G_7.jpg' height='90'> <img      src='G_1.jpg' height='90'> <img   src='G_8.jpg' height='90'> <img        src='G_4.jpg' height='90'> <img   src='G_3.jpg' height='90'> <img   src='G_6.jpg' height='90'>","null","Animation1","",""
"","","","","","html-keyboard-response","165","343490","0.0-107.0","38","1","2025-02-02 04:23:03","bc01a2b6f61d06f6604adb8657495020","66.42.132.135","Mozilla/5.0 (Windows NT 10.0; Win64; x64; rv:134.0) Gecko/20100101 Firefox/134.0","","Firefox","134.0","Windows","10.0","https://app.prolific.com/","en-US,en;q=0.5","673a8d64bf587131fa065ec5","679edb085803f58d6bbd31ca","679ef29efb6d9f4d6222c25c","","4176","[""Did you notice any patterns? <br><br>Press Enter to watch that example again and follow the steps of Omgne Sort.""]","enter","","",""
