"success","timeout","failed_images","failed_audio","failed_video","trial_type","trial_index","time_elapsed","internal_node_id","run_id","condition","recorded_at","source_code_version","ip","user_agent","device","browser","browser_version","platform","platform_version","referer","accept_language","PROLIFIC_PID","STUDY_ID","SESSION_ID","view_history","rt","stimulus","response","phase","question_order","presented_choices"
"true","false","[]","[]","[]","preload","0","180","0.0-0.0","40","1","2025-02-02 04:26:15","bc01a2b6f61d06f6604adb8657495020","172.251.28.21","Mozilla/5.0 (Windows NT 10.0; Win64; x64) AppleWebKit/537.36 (KHTML, like Gecko) Chrome/132.0.0.0 Safari/537.36","WebKit","Chrome","132.0.0.0","Windows","10.0","https://app.prolific.com/","en-US,en;q=0.9","664efd1322a0666254a51974","679edb085803f58d6bbd31ca","679ef3dd96d08f1e19688d09","","","","","","",""
"","","","","","instructions","1","22099","0.0-1.0","40","1","2025-02-02 04:26:15","bc01a2b6f61d06f6604adb8657495020","172.251.28.21","Mozilla/5.0 (Windows NT 10.0; Win64; x64) AppleWebKit/537.36 (KHTML, like Gecko) Chrome/132.0.0.0 Safari/537.36","WebKit","Chrome","132.0.0.0","Windows","10.0","https://app.prolific.com/","en-US,en;q=0.9","664efd1322a0666254a51974","679edb085803f58d6bbd31ca","679ef3dd96d08f1e19688d09","[{""page_index"":0,""viewing_time"":21918}]","21918","","","","",""
"","","","","","html-keyboard-response","2","22609","0.0-2.0","40","1","2025-02-02 04:26:15","bc01a2b6f61d06f6604adb8657495020","172.251.28.21","Mozilla/5.0 (Windows NT 10.0; Win64; x64) AppleWebKit/537.36 (KHTML, like Gecko) Chrome/132.0.0.0 Safari/537.36","WebKit","Chrome","132.0.0.0","Windows","10.0","https://app.prolific.com/","en-US,en;q=0.9","664efd1322a0666254a51974","679edb085803f58d6bbd31ca","679ef3dd96d08f1e19688d09","","null","<p> + <p/>","null","","",""
"","","","","","instructions","3","396681","0.0-3.0","40","1","2025-02-02 04:26:15","bc01a2b6f61d06f6604adb8657495020","172.251.28.21","Mozilla/5.0 (Windows NT 10.0; Win64; x64) AppleWebKit/537.36 (KHTML, like Gecko) Chrome/132.0.0.0 Safari/537.36","WebKit","Chrome","132.0.0.0","Windows","10.0","https://app.prolific.com/","en-US,en;q=0.9","664efd1322a0666254a51974","679edb085803f58d6bbd31ca","679ef3dd96d08f1e19688d09","[{""page_index"":0,""viewing_time"":343972},{""page_index"":1,""viewing_time"":11923},{""page_index"":2,""viewing_time"":7853},{""page_index"":3,""viewing_time"":4572},{""page_index"":4,""viewing_time"":5752}]","374072","","","","",""
"","","","","","html-button-response","4","406543","0.0-4.0-0.0-0.0","40","1","2025-02-02 04:26:15","bc01a2b6f61d06f6604adb8657495020","172.251.28.21","Mozilla/5.0 (Windows NT 10.0; Win64; x64) AppleWebKit/537.36 (KHTML, like Gecko) Chrome/132.0.0.0 Safari/537.36","WebKit","Chrome","132.0.0.0","Windows","10.0","https://app.prolific.com/","en-US,en;q=0.9","664efd1322a0666254a51974","679edb085803f58d6bbd31ca","679ef3dd96d08f1e19688d09","","9861","","4","Intro Trial","",""
"","","","","","html-button-response","5","406886","0.0-4.1-0.1-0.1","40","1","2025-02-02 04:26:15","bc01a2b6f61d06f6604adb8657495020","172.251.28.21","Mozilla/5.0 (Windows NT 10.0; Win64; x64) AppleWebKit/537.36 (KHTML, like Gecko) Chrome/132.0.0.0 Safari/537.36","WebKit","Chrome","132.0.0.0","Windows","10.0","https://app.prolific.com/","en-US,en;q=0.9","664efd1322a0666254a51974","679edb085803f58d6bbd31ca","679ef3dd96d08f1e19688d09","","342","","2","Intro Trial","",""
"","","","","","html-button-response","6","408034","0.0-4.2-0.2-0.2","40","1","2025-02-02 04:26:15","bc01a2b6f61d06f6604adb8657495020","172.251.28.21","Mozilla/5.0 (Windows NT 10.0; Win64; x64) AppleWebKit/537.36 (KHTML, like Gecko) Chrome/132.0.0.0 Safari/537.36","WebKit","Chrome","132.0.0.0","Windows","10.0","https://app.prolific.com/","en-US,en;q=0.9","664efd1322a0666254a51974","679edb085803f58d6bbd31ca","679ef3dd96d08f1e19688d09","","1147","","2","Intro Trial","",""
"","","","","","html-button-response","7","408376","0.0-4.3-0.3-0.3","40","1","2025-02-02 04:26:15","bc01a2b6f61d06f6604adb8657495020","172.251.28.21","Mozilla/5.0 (Windows NT 10.0; Win64; x64) AppleWebKit/537.36 (KHTML, like Gecko) Chrome/132.0.0.0 Safari/537.36","WebKit","Chrome","132.0.0.0","Windows","10.0","https://app.prolific.com/","en-US,en;q=0.9","664efd1322a0666254a51974","679edb085803f58d6bbd31ca","679ef3dd96d08f1e19688d09","","341","","3","Intro Trial","",""
"","","","","","html-button-response","8","409027","0.0-4.4-0.4-0.4","40","1","2025-02-02 04:26:15","bc01a2b6f61d06f6604adb8657495020","172.251.28.21","Mozilla/5.0 (Windows NT 10.0; Win64; x64) AppleWebKit/537.36 (KHTML, like Gecko) Chrome/132.0.0.0 Safari/537.36","WebKit","Chrome","132.0.0.0","Windows","10.0","https://app.prolific.com/","en-US,en;q=0.9","664efd1322a0666254a51974","679edb085803f58d6bbd31ca","679ef3dd96d08f1e19688d09","","650","","4","Intro Trial","",""
"","","","","","html-button-response","9","409511","0.0-4.5-0.5-0.5","40","1","2025-02-02 04:26:15","bc01a2b6f61d06f6604adb8657495020","172.251.28.21","Mozilla/5.0 (Windows NT 10.0; Win64; x64) AppleWebKit/537.36 (KHTML, like Gecko) Chrome/132.0.0.0 Safari/537.36","WebKit","Chrome","132.0.0.0","Windows","10.0","https://app.prolific.com/","en-US,en;q=0.9","664efd1322a0666254a51974","679edb085803f58d6bbd31ca","679ef3dd96d08f1e19688d09","","483","","1","Intro Trial","",""
"","","","","","html-button-response","10","409944","0.0-4.6-0.6-0.6","40","1","2025-02-02 04:26:15","bc01a2b6f61d06f6604adb8657495020","172.251.28.21","Mozilla/5.0 (Windows NT 10.0; Win64; x64) AppleWebKit/537.36 (KHTML, like Gecko) Chrome/132.0.0.0 Safari/537.36","WebKit","Chrome","132.0.0.0","Windows","10.0","https://app.prolific.com/","en-US,en;q=0.9","664efd1322a0666254a51974","679edb085803f58d6bbd31ca","679ef3dd96d08f1e19688d09","","432","","0","Intro Trial","",""
"","","","","","html-button-response","11","410194","0.0-4.7-0.7-0.7","40","1","2025-02-02 04:26:15","bc01a2b6f61d06f6604adb8657495020","172.251.28.21","Mozilla/5.0 (Windows NT 10.0; Win64; x64) AppleWebKit/537.36 (KHTML, like Gecko) Chrome/132.0.0.0 Safari/537.36","WebKit","Chrome","132.0.0.0","Windows","10.0","https://app.prolific.com/","en-US,en;q=0.9","664efd1322a0666254a51974","679edb085803f58d6bbd31ca","679ef3dd96d08f1e19688d09","","249","","1","Intro Trial","",""
"","","","","","html-button-response","12","411054","0.0-4.8-0.8-0.8","40","1","2025-02-02 04:26:15","bc01a2b6f61d06f6604adb8657495020","172.251.28.21","Mozilla/5.0 (Windows NT 10.0; Win64; x64) AppleWebKit/537.36 (KHTML, like Gecko) Chrome/132.0.0.0 Safari/537.36","WebKit","Chrome","132.0.0.0","Windows","10.0","https://app.prolific.com/","en-US,en;q=0.9","664efd1322a0666254a51974","679edb085803f58d6bbd31ca","679ef3dd96d08f1e19688d09","","859","","3","Intro Trial","",""
"","","","","","html-button-response","13","411435","0.0-4.9-0.9-0.9","40","1","2025-02-02 04:26:15","bc01a2b6f61d06f6604adb8657495020","172.251.28.21","Mozilla/5.0 (Windows NT 10.0; Win64; x64) AppleWebKit/537.36 (KHTML, like Gecko) Chrome/132.0.0.0 Safari/537.36","WebKit","Chrome","132.0.0.0","Windows","10.0","https://app.prolific.com/","en-US,en;q=0.9","664efd1322a0666254a51974","679edb085803f58d6bbd31ca","679ef3dd96d08f1e19688d09","","380","","1","Intro Trial","",""
"","","","","","html-button-response","14","412235","0.0-4.10-0.10-0.10","40","1","2025-02-02 04:26:15","bc01a2b6f61d06f6604adb8657495020","172.251.28.21","Mozilla/5.0 (Windows NT 10.0; Win64; x64) AppleWebKit/537.36 (KHTML, like Gecko) Chrome/132.0.0.0 Safari/537.36","WebKit","Chrome","132.0.0.0","Windows","10.0","https://app.prolific.com/","en-US,en;q=0.9","664efd1322a0666254a51974","679edb085803f58d6bbd31ca","679ef3dd96d08f1e19688d09","","799","","1","Intro Trial","",""
"","","","","","html-button-response","15","412584","0.0-4.11-0.11-0.11","40","1","2025-02-02 04:26:15","bc01a2b6f61d06f6604adb8657495020","172.251.28.21","Mozilla/5.0 (Windows NT 10.0; Win64; x64) AppleWebKit/537.36 (KHTML, like Gecko) Chrome/132.0.0.0 Safari/537.36","WebKit","Chrome","132.0.0.0","Windows","10.0","https://app.prolific.com/","en-US,en;q=0.9","664efd1322a0666254a51974","679edb085803f58d6bbd31ca","679ef3dd96d08f1e19688d09","","348","","4","Intro Trial","",""
"","","","","","html-button-response","16","413053","0.0-4.12-0.12-0.12","40","1","2025-02-02 04:26:15","bc01a2b6f61d06f6604adb8657495020","172.251.28.21","Mozilla/5.0 (Windows NT 10.0; Win64; x64) AppleWebKit/537.36 (KHTML, like Gecko) Chrome/132.0.0.0 Safari/537.36","WebKit","Chrome","132.0.0.0","Windows","10.0","https://app.prolific.com/","en-US,en;q=0.9","664efd1322a0666254a51974","679edb085803f58d6bbd31ca","679ef3dd96d08f1e19688d09","","468","","3","Intro Trial","",""
"","","","","","html-button-response","17","413359","0.0-4.13-0.13-0.13","40","1","2025-02-02 04:26:15","bc01a2b6f61d06f6604adb8657495020","172.251.28.21","Mozilla/5.0 (Windows NT 10.0; Win64; x64) AppleWebKit/537.36 (KHTML, like Gecko) Chrome/132.0.0.0 Safari/537.36","WebKit","Chrome","132.0.0.0","Windows","10.0","https://app.prolific.com/","en-US,en;q=0.9","664efd1322a0666254a51974","679edb085803f58d6bbd31ca","679ef3dd96d08f1e19688d09","","306","","4","Intro Trial","",""
"","","","","","html-button-response","18","414549","0.0-4.14-0.14-0.14","40","1","2025-02-02 04:26:15","bc01a2b6f61d06f6604adb8657495020","172.251.28.21","Mozilla/5.0 (Windows NT 10.0; Win64; x64) AppleWebKit/537.36 (KHTML, like Gecko) Chrome/132.0.0.0 Safari/537.36","WebKit","Chrome","132.0.0.0","Windows","10.0","https://app.prolific.com/","en-US,en;q=0.9","664efd1322a0666254a51974","679edb085803f58d6bbd31ca","679ef3dd96d08f1e19688d09","","1189","","4","Intro Trial","",""
"","","","","","html-button-response","19","414808","0.0-4.15-0.15-0.15","40","1","2025-02-02 04:26:15","bc01a2b6f61d06f6604adb8657495020","172.251.28.21","Mozilla/5.0 (Windows NT 10.0; Win64; x64) AppleWebKit/537.36 (KHTML, like Gecko) Chrome/132.0.0.0 Safari/537.36","WebKit","Chrome","132.0.0.0","Windows","10.0","https://app.prolific.com/","en-US,en;q=0.9","664efd1322a0666254a51974","679edb085803f58d6bbd31ca","679ef3dd96d08f1e19688d09","","258","","2","Intro Trial","",""
"","","","","","html-button-response","20","415060","0.0-4.16-0.16-0.16","40","1","2025-02-02 04:26:15","bc01a2b6f61d06f6604adb8657495020","172.251.28.21","Mozilla/5.0 (Windows NT 10.0; Win64; x64) AppleWebKit/537.36 (KHTML, like Gecko) Chrome/132.0.0.0 Safari/537.36","WebKit","Chrome","132.0.0.0","Windows","10.0","https://app.prolific.com/","en-US,en;q=0.9","664efd1322a0666254a51974","679edb085803f58d6bbd31ca","679ef3dd96d08f1e19688d09","","251","","3","Intro Trial","",""
"","","","","","html-button-response","21","415297","0.0-4.17-0.17-0.17","40","1","2025-02-02 04:26:15","bc01a2b6f61d06f6604adb8657495020","172.251.28.21","Mozilla/5.0 (Windows NT 10.0; Win64; x64) AppleWebKit/537.36 (KHTML, like Gecko) Chrome/132.0.0.0 Safari/537.36","WebKit","Chrome","132.0.0.0","Windows","10.0","https://app.prolific.com/","en-US,en;q=0.9","664efd1322a0666254a51974","679edb085803f58d6bbd31ca","679ef3dd96d08f1e19688d09","","236","","2","Intro Trial","",""
"","","","","","html-button-response","22","415525","0.0-4.18-0.18-0.18","40","1","2025-02-02 04:26:15","bc01a2b6f61d06f6604adb8657495020","172.251.28.21","Mozilla/5.0 (Windows NT 10.0; Win64; x64) AppleWebKit/537.36 (KHTML, like Gecko) Chrome/132.0.0.0 Safari/537.36","WebKit","Chrome","132.0.0.0","Windows","10.0","https://app.prolific.com/","en-US,en;q=0.9","664efd1322a0666254a51974","679edb085803f58d6bbd31ca","679ef3dd96d08f1e19688d09","","227","","1","Intro Trial","",""
"","","","","","html-button-response","23","415765","0.0-4.19-0.19-0.19","40","1","2025-02-02 04:26:15","bc01a2b6f61d06f6604adb8657495020","172.251.28.21","Mozilla/5.0 (Windows NT 10.0; Win64; x64) AppleWebKit/537.36 (KHTML, like Gecko) Chrome/132.0.0.0 Safari/537.36","WebKit","Chrome","132.0.0.0","Windows","10.0","https://app.prolific.com/","en-US,en;q=0.9","664efd1322a0666254a51974","679edb085803f58d6bbd31ca","679ef3dd96d08f1e19688d09","","239","","2","Intro Trial","",""
"","","","","","html-button-response","24","416231","0.0-4.20-0.20-0.20","40","1","2025-02-02 04:26:15","bc01a2b6f61d06f6604adb8657495020","172.251.28.21","Mozilla/5.0 (Windows NT 10.0; Win64; x64) AppleWebKit/537.36 (KHTML, like Gecko) Chrome/132.0.0.0 Safari/537.36","WebKit","Chrome","132.0.0.0","Windows","10.0","https://app.prolific.com/","en-US,en;q=0.9","664efd1322a0666254a51974","679edb085803f58d6bbd31ca","679ef3dd96d08f1e19688d09","","465","","0","Intro Trial","",""
"","","","","","html-button-response","25","416523","0.0-4.21-0.21-0.21","40","1","2025-02-02 04:26:15","bc01a2b6f61d06f6604adb8657495020","172.251.28.21","Mozilla/5.0 (Windows NT 10.0; Win64; x64) AppleWebKit/537.36 (KHTML, like Gecko) Chrome/132.0.0.0 Safari/537.36","WebKit","Chrome","132.0.0.0","Windows","10.0","https://app.prolific.com/","en-US,en;q=0.9","664efd1322a0666254a51974","679edb085803f58d6bbd31ca","679ef3dd96d08f1e19688d09","","291","","2","Intro Trial","",""
"","","","","","html-button-response","26","416763","0.0-4.22-0.22-0.22","40","1","2025-02-02 04:26:15","bc01a2b6f61d06f6604adb8657495020","172.251.28.21","Mozilla/5.0 (Windows NT 10.0; Win64; x64) AppleWebKit/537.36 (KHTML, like Gecko) Chrome/132.0.0.0 Safari/537.36","WebKit","Chrome","132.0.0.0","Windows","10.0","https://app.prolific.com/","en-US,en;q=0.9","664efd1322a0666254a51974","679edb085803f58d6bbd31ca","679ef3dd96d08f1e19688d09","","239","","1","Intro Trial","",""
"","","","","","html-button-response","27","417020","0.0-4.23-0.23-0.23","40","1","2025-02-02 04:26:15","bc01a2b6f61d06f6604adb8657495020","172.251.28.21","Mozilla/5.0 (Windows NT 10.0; Win64; x64) AppleWebKit/537.36 (KHTML, like Gecko) Chrome/132.0.0.0 Safari/537.36","WebKit","Chrome","132.0.0.0","Windows","10.0","https://app.prolific.com/","en-US,en;q=0.9","664efd1322a0666254a51974","679edb085803f58d6bbd31ca","679ef3dd96d08f1e19688d09","","256","","0","Intro Trial","",""
"","","","","","html-button-response","28","417731","0.0-4.24-0.24-0.24","40","1","2025-02-02 04:26:15","bc01a2b6f61d06f6604adb8657495020","172.251.28.21","Mozilla/5.0 (Windows NT 10.0; Win64; x64) AppleWebKit/537.36 (KHTML, like Gecko) Chrome/132.0.0.0 Safari/537.36","WebKit","Chrome","132.0.0.0","Windows","10.0","https://app.prolific.com/","en-US,en;q=0.9","664efd1322a0666254a51974","679edb085803f58d6bbd31ca","679ef3dd96d08f1e19688d09","","710","","1","Intro Trial","",""
"","","","","","html-button-response","29","417945","0.0-4.25-0.25-0.25","40","1","2025-02-02 04:26:15","bc01a2b6f61d06f6604adb8657495020","172.251.28.21","Mozilla/5.0 (Windows NT 10.0; Win64; x64) AppleWebKit/537.36 (KHTML, like Gecko) Chrome/132.0.0.0 Safari/537.36","WebKit","Chrome","132.0.0.0","Windows","10.0","https://app.prolific.com/","en-US,en;q=0.9","664efd1322a0666254a51974","679edb085803f58d6bbd31ca","679ef3dd96d08f1e19688d09","","213","","0","Intro Trial","",""
"","","","","","html-button-response","30","418549","0.0-4.26-0.26-0.26","40","1","2025-02-02 04:26:15","bc01a2b6f61d06f6604adb8657495020","172.251.28.21","Mozilla/5.0 (Windows NT 10.0; Win64; x64) AppleWebKit/537.36 (KHTML, like Gecko) Chrome/132.0.0.0 Safari/537.36","WebKit","Chrome","132.0.0.0","Windows","10.0","https://app.prolific.com/","en-US,en;q=0.9","664efd1322a0666254a51974","679edb085803f58d6bbd31ca","679ef3dd96d08f1e19688d09","","603","","1","Intro Trial","",""
"","","","","","html-button-response","31","418850","0.0-4.27-0.27-0.27","40","1","2025-02-02 04:26:15","bc01a2b6f61d06f6604adb8657495020","172.251.28.21","Mozilla/5.0 (Windows NT 10.0; Win64; x64) AppleWebKit/537.36 (KHTML, like Gecko) Chrome/132.0.0.0 Safari/537.36","WebKit","Chrome","132.0.0.0","Windows","10.0","https://app.prolific.com/","en-US,en;q=0.9","664efd1322a0666254a51974","679edb085803f58d6bbd31ca","679ef3dd96d08f1e19688d09","","301","","2","Intro Trial","",""
"","","","","","html-button-response","32","419434","0.0-4.28-0.28-0.28","40","1","2025-02-02 04:26:15","bc01a2b6f61d06f6604adb8657495020","172.251.28.21","Mozilla/5.0 (Windows NT 10.0; Win64; x64) AppleWebKit/537.36 (KHTML, like Gecko) Chrome/132.0.0.0 Safari/537.36","WebKit","Chrome","132.0.0.0","Windows","10.0","https://app.prolific.com/","en-US,en;q=0.9","664efd1322a0666254a51974","679edb085803f58d6bbd31ca","679ef3dd96d08f1e19688d09","","583","","2","Intro Trial","",""
"","","","","","html-button-response","33","419628","0.0-4.29-0.29-0.29","40","1","2025-02-02 04:26:15","bc01a2b6f61d06f6604adb8657495020","172.251.28.21","Mozilla/5.0 (Windows NT 10.0; Win64; x64) AppleWebKit/537.36 (KHTML, like Gecko) Chrome/132.0.0.0 Safari/537.36","WebKit","Chrome","132.0.0.0","Windows","10.0","https://app.prolific.com/","en-US,en;q=0.9","664efd1322a0666254a51974","679edb085803f58d6bbd31ca","679ef3dd96d08f1e19688d09","","193","","1","Intro Trial","",""
"","","","","","html-button-response","34","419930","0.0-4.30-0.30-0.30","40","1","2025-02-02 04:26:15","bc01a2b6f61d06f6604adb8657495020","172.251.28.21","Mozilla/5.0 (Windows NT 10.0; Win64; x64) AppleWebKit/537.36 (KHTML, like Gecko) Chrome/132.0.0.0 Safari/537.36","WebKit","Chrome","132.0.0.0","Windows","10.0","https://app.prolific.com/","en-US,en;q=0.9","664efd1322a0666254a51974","679edb085803f58d6bbd31ca","679ef3dd96d08f1e19688d09","","301","","0","Intro Trial","",""
"","","","","","html-button-response","35","420252","0.0-4.31-0.31-0.31","40","1","2025-02-02 04:26:15","bc01a2b6f61d06f6604adb8657495020","172.251.28.21","Mozilla/5.0 (Windows NT 10.0; Win64; x64) AppleWebKit/537.36 (KHTML, like Gecko) Chrome/132.0.0.0 Safari/537.36","WebKit","Chrome","132.0.0.0","Windows","10.0","https://app.prolific.com/","en-US,en;q=0.9","664efd1322a0666254a51974","679edb085803f58d6bbd31ca","679ef3dd96d08f1e19688d09","","321","","1","Intro Trial","",""
"","","","","","html-button-response","36","420702","0.0-4.32-0.32-0.32","40","1","2025-02-02 04:26:15","bc01a2b6f61d06f6604adb8657495020","172.251.28.21","Mozilla/5.0 (Windows NT 10.0; Win64; x64) AppleWebKit/537.36 (KHTML, like Gecko) Chrome/132.0.0.0 Safari/537.36","WebKit","Chrome","132.0.0.0","Windows","10.0","https://app.prolific.com/","en-US,en;q=0.9","664efd1322a0666254a51974","679edb085803f58d6bbd31ca","679ef3dd96d08f1e19688d09","","449","","2","Intro Trial","",""
"","","","","","html-button-response","37","421017","0.0-4.33-0.33-0.33","40","1","2025-02-02 04:26:15","bc01a2b6f61d06f6604adb8657495020","172.251.28.21","Mozilla/5.0 (Windows NT 10.0; Win64; x64) AppleWebKit/537.36 (KHTML, like Gecko) Chrome/132.0.0.0 Safari/537.36","WebKit","Chrome","132.0.0.0","Windows","10.0","https://app.prolific.com/","en-US,en;q=0.9","664efd1322a0666254a51974","679edb085803f58d6bbd31ca","679ef3dd96d08f1e19688d09","","314","","0","Intro Trial","",""
"","","","","","html-button-response","38","421289","0.0-4.34-0.34-0.34","40","1","2025-02-02 04:26:15","bc01a2b6f61d06f6604adb8657495020","172.251.28.21","Mozilla/5.0 (Windows NT 10.0; Win64; x64) AppleWebKit/537.36 (KHTML, like Gecko) Chrome/132.0.0.0 Safari/537.36","WebKit","Chrome","132.0.0.0","Windows","10.0","https://app.prolific.com/","en-US,en;q=0.9","664efd1322a0666254a51974","679edb085803f58d6bbd31ca","679ef3dd96d08f1e19688d09","","271","","1","Intro Trial","",""
"","","","","","html-button-response","39","421585","0.0-4.35-0.35-0.35","40","1","2025-02-02 04:26:15","bc01a2b6f61d06f6604adb8657495020","172.251.28.21","Mozilla/5.0 (Windows NT 10.0; Win64; x64) AppleWebKit/537.36 (KHTML, like Gecko) Chrome/132.0.0.0 Safari/537.36","WebKit","Chrome","132.0.0.0","Windows","10.0","https://app.prolific.com/","en-US,en;q=0.9","664efd1322a0666254a51974","679edb085803f58d6bbd31ca","679ef3dd96d08f1e19688d09","","296","","0","Intro Trial","",""
"","","","","","html-button-response","40","421872","0.0-4.36-0.36-0.36","40","1","2025-02-02 04:26:15","bc01a2b6f61d06f6604adb8657495020","172.251.28.21","Mozilla/5.0 (Windows NT 10.0; Win64; x64) AppleWebKit/537.36 (KHTML, like Gecko) Chrome/132.0.0.0 Safari/537.36","WebKit","Chrome","132.0.0.0","Windows","10.0","https://app.prolific.com/","en-US,en;q=0.9","664efd1322a0666254a51974","679edb085803f58d6bbd31ca","679ef3dd96d08f1e19688d09","","286","","1","Intro Trial","",""
"","","","","","html-button-response","41","422170","0.0-4.37-0.37-0.37","40","1","2025-02-02 04:26:15","bc01a2b6f61d06f6604adb8657495020","172.251.28.21","Mozilla/5.0 (Windows NT 10.0; Win64; x64) AppleWebKit/537.36 (KHTML, like Gecko) Chrome/132.0.0.0 Safari/537.36","WebKit","Chrome","132.0.0.0","Windows","10.0","https://app.prolific.com/","en-US,en;q=0.9","664efd1322a0666254a51974","679edb085803f58d6bbd31ca","679ef3dd96d08f1e19688d09","","297","","3","Intro Trial","",""
"","","","","","html-button-response","42","423025","0.0-4.38-0.38-0.38","40","1","2025-02-02 04:26:15","bc01a2b6f61d06f6604adb8657495020","172.251.28.21","Mozilla/5.0 (Windows NT 10.0; Win64; x64) AppleWebKit/537.36 (KHTML, like Gecko) Chrome/132.0.0.0 Safari/537.36","WebKit","Chrome","132.0.0.0","Windows","10.0","https://app.prolific.com/","en-US,en;q=0.9","664efd1322a0666254a51974","679edb085803f58d6bbd31ca","679ef3dd96d08f1e19688d09","","854","","0","Intro Trial","",""
"","","","","","html-button-response","43","423701","0.0-4.39-0.39-0.39","40","1","2025-02-02 04:26:15","bc01a2b6f61d06f6604adb8657495020","172.251.28.21","Mozilla/5.0 (Windows NT 10.0; Win64; x64) AppleWebKit/537.36 (KHTML, like Gecko) Chrome/132.0.0.0 Safari/537.36","WebKit","Chrome","132.0.0.0","Windows","10.0","https://app.prolific.com/","en-US,en;q=0.9","664efd1322a0666254a51974","679edb085803f58d6bbd31ca","679ef3dd96d08f1e19688d09","","675","","0","Intro Trial","",""
"","","","","","html-button-response","44","434951","0.0-4.40-0.40-0.40","40","1","2025-02-02 04:26:15","bc01a2b6f61d06f6604adb8657495020","172.251.28.21","Mozilla/5.0 (Windows NT 10.0; Win64; x64) AppleWebKit/537.36 (KHTML, like Gecko) Chrome/132.0.0.0 Safari/537.36","WebKit","Chrome","132.0.0.0","Windows","10.0","https://app.prolific.com/","en-US,en;q=0.9","664efd1322a0666254a51974","679edb085803f58d6bbd31ca","679ef3dd96d08f1e19688d09","","11249","","1","Intro Trial","",""
"","","","","","html-button-response","45","435057","0.0-4.41-0.41-0.41","40","1","2025-02-02 04:26:15","bc01a2b6f61d06f6604adb8657495020","172.251.28.21","Mozilla/5.0 (Windows NT 10.0; Win64; x64) AppleWebKit/537.36 (KHTML, like Gecko) Chrome/132.0.0.0 Safari/537.36","WebKit","Chrome","132.0.0.0","Windows","10.0","https://app.prolific.com/","en-US,en;q=0.9","664efd1322a0666254a51974","679edb085803f58d6bbd31ca","679ef3dd96d08f1e19688d09","","105","","1","Intro Trial","",""
"","","","","","html-button-response","46","435707","0.0-4.42-0.42-0.42","40","1","2025-02-02 04:26:15","bc01a2b6f61d06f6604adb8657495020","172.251.28.21","Mozilla/5.0 (Windows NT 10.0; Win64; x64) AppleWebKit/537.36 (KHTML, like Gecko) Chrome/132.0.0.0 Safari/537.36","WebKit","Chrome","132.0.0.0","Windows","10.0","https://app.prolific.com/","en-US,en;q=0.9","664efd1322a0666254a51974","679edb085803f58d6bbd31ca","679ef3dd96d08f1e19688d09","","649","","3","Intro Trial","",""
"","","","","","html-button-response","47","435926","0.0-4.43-0.43-0.43","40","1","2025-02-02 04:26:15","bc01a2b6f61d06f6604adb8657495020","172.251.28.21","Mozilla/5.0 (Windows NT 10.0; Win64; x64) AppleWebKit/537.36 (KHTML, like Gecko) Chrome/132.0.0.0 Safari/537.36","WebKit","Chrome","132.0.0.0","Windows","10.0","https://app.prolific.com/","en-US,en;q=0.9","664efd1322a0666254a51974","679edb085803f58d6bbd31ca","679ef3dd96d08f1e19688d09","","218","","2","Intro Trial","",""
"","","","","","html-button-response","48","436429","0.0-4.44-0.44-0.44","40","1","2025-02-02 04:26:15","bc01a2b6f61d06f6604adb8657495020","172.251.28.21","Mozilla/5.0 (Windows NT 10.0; Win64; x64) AppleWebKit/537.36 (KHTML, like Gecko) Chrome/132.0.0.0 Safari/537.36","WebKit","Chrome","132.0.0.0","Windows","10.0","https://app.prolific.com/","en-US,en;q=0.9","664efd1322a0666254a51974","679edb085803f58d6bbd31ca","679ef3dd96d08f1e19688d09","","502","","3","Intro Trial","",""
"","","","","","html-button-response","49","437209","0.0-4.45-0.45-0.45","40","1","2025-02-02 04:26:15","bc01a2b6f61d06f6604adb8657495020","172.251.28.21","Mozilla/5.0 (Windows NT 10.0; Win64; x64) AppleWebKit/537.36 (KHTML, like Gecko) Chrome/132.0.0.0 Safari/537.36","WebKit","Chrome","132.0.0.0","Windows","10.0","https://app.prolific.com/","en-US,en;q=0.9","664efd1322a0666254a51974","679edb085803f58d6bbd31ca","679ef3dd96d08f1e19688d09","","779","","1","Intro Trial","",""
"","","","","","html-button-response","50","437612","0.0-4.46-0.46-0.46","40","1","2025-02-02 04:26:15","bc01a2b6f61d06f6604adb8657495020","172.251.28.21","Mozilla/5.0 (Windows NT 10.0; Win64; x64) AppleWebKit/537.36 (KHTML, like Gecko) Chrome/132.0.0.0 Safari/537.36","WebKit","Chrome","132.0.0.0","Windows","10.0","https://app.prolific.com/","en-US,en;q=0.9","664efd1322a0666254a51974","679edb085803f58d6bbd31ca","679ef3dd96d08f1e19688d09","","402","","3","Intro Trial","",""
"","","","","","html-button-response","51","437885","0.0-4.47-0.47-0.47","40","1","2025-02-02 04:26:15","bc01a2b6f61d06f6604adb8657495020","172.251.28.21","Mozilla/5.0 (Windows NT 10.0; Win64; x64) AppleWebKit/537.36 (KHTML, like Gecko) Chrome/132.0.0.0 Safari/537.36","WebKit","Chrome","132.0.0.0","Windows","10.0","https://app.prolific.com/","en-US,en;q=0.9","664efd1322a0666254a51974","679edb085803f58d6bbd31ca","679ef3dd96d08f1e19688d09","","272","","0","Intro Trial","",""
"","","","","","html-button-response","52","438202","0.0-4.48-0.48-0.48","40","1","2025-02-02 04:26:15","bc01a2b6f61d06f6604adb8657495020","172.251.28.21","Mozilla/5.0 (Windows NT 10.0; Win64; x64) AppleWebKit/537.36 (KHTML, like Gecko) Chrome/132.0.0.0 Safari/537.36","WebKit","Chrome","132.0.0.0","Windows","10.0","https://app.prolific.com/","en-US,en;q=0.9","664efd1322a0666254a51974","679edb085803f58d6bbd31ca","679ef3dd96d08f1e19688d09","","316","","3","Intro Trial","",""
"","","","","","html-button-response","53","438397","0.0-4.49-0.49-0.49","40","1","2025-02-02 04:26:15","bc01a2b6f61d06f6604adb8657495020","172.251.28.21","Mozilla/5.0 (Windows NT 10.0; Win64; x64) AppleWebKit/537.36 (KHTML, like Gecko) Chrome/132.0.0.0 Safari/537.36","WebKit","Chrome","132.0.0.0","Windows","10.0","https://app.prolific.com/","en-US,en;q=0.9","664efd1322a0666254a51974","679edb085803f58d6bbd31ca","679ef3dd96d08f1e19688d09","","194","","4","Intro Trial","",""
"","","","","","html-button-response","54","439152","0.0-4.50-0.50-0.50","40","1","2025-02-02 04:26:15","bc01a2b6f61d06f6604adb8657495020","172.251.28.21","Mozilla/5.0 (Windows NT 10.0; Win64; x64) AppleWebKit/537.36 (KHTML, like Gecko) Chrome/132.0.0.0 Safari/537.36","WebKit","Chrome","132.0.0.0","Windows","10.0","https://app.prolific.com/","en-US,en;q=0.9","664efd1322a0666254a51974","679edb085803f58d6bbd31ca","679ef3dd96d08f1e19688d09","","754","","5","Intro Trial","",""
"","","","","","html-keyboard-response","55","450230","0.0-5.0","40","1","2025-02-02 04:26:15","bc01a2b6f61d06f6604adb8657495020","172.251.28.21","Mozilla/5.0 (Windows NT 10.0; Win64; x64) AppleWebKit/537.36 (KHTML, like Gecko) Chrome/132.0.0.0 Safari/537.36","WebKit","Chrome","132.0.0.0","Windows","10.0","https://app.prolific.com/","en-US,en;q=0.9","664efd1322a0666254a51974","679edb085803f58d6bbd31ca","679ef3dd96d08f1e19688d09","","11076","[""You sorted correctly by using the balance 23 times. <br><br> <img src='G_5.jpg' height='90'><img src='G_2.jpg' height='90'><img src='G_3.jpg' height='90'><img src='G_1.jpg' height='90'><img src='G_4.jpg' height='90'><br><br> Your final order is 1,2,3,4,5<br><br><br>Omgne Sort in this game will allow you to sort correctly by using the balance 8 times. Press Enter to learn it!""]","enter","","",""
"","","","","","html-keyboard-response","56","452793","0.0-6.0","40","1","2025-02-02 04:26:15","bc01a2b6f61d06f6604adb8657495020","172.251.28.21","Mozilla/5.0 (Windows NT 10.0; Win64; x64) AppleWebKit/537.36 (KHTML, like Gecko) Chrome/132.0.0.0 Safari/537.36","WebKit","Chrome","132.0.0.0","Windows","10.0","https://app.prolific.com/","en-US,en;q=0.9","664efd1322a0666254a51974","679edb085803f58d6bbd31ca","679ef3dd96d08f1e19688d09","","2563","<p>Welcome to the learning phase! <br><br> You will learn by six examples. The following learning trials will not be used to calculate your performance. <br><br> Press Enter to continue.<p/>","enter","","",""
"","","","","","html-keyboard-response","57","455965","0.0-7.0","40","1","2025-02-02 04:26:15","bc01a2b6f61d06f6604adb8657495020","172.251.28.21","Mozilla/5.0 (Windows NT 10.0; Win64; x64) AppleWebKit/537.36 (KHTML, like Gecko) Chrome/132.0.0.0 Safari/537.36","WebKit","Chrome","132.0.0.0","Windows","10.0","https://app.prolific.com/","en-US,en;q=0.9","664efd1322a0666254a51974","679edb085803f58d6bbd31ca","679ef3dd96d08f1e19688d09","","3171","[""Example 1<br><br>You will watch Omnge Sort in action. Try to identify any patterns in the comparisons made by this method. <br><br>Press Enter to continue.""]","enter","","",""
"","","","","","html-keyboard-response","58","456479","0.0-8.0","40","1","2025-02-02 04:26:15","bc01a2b6f61d06f6604adb8657495020","172.251.28.21","Mozilla/5.0 (Windows NT 10.0; Win64; x64) AppleWebKit/537.36 (KHTML, like Gecko) Chrome/132.0.0.0 Safari/537.36","WebKit","Chrome","132.0.0.0","Windows","10.0","https://app.prolific.com/","en-US,en;q=0.9","664efd1322a0666254a51974","679edb085803f58d6bbd31ca","679ef3dd96d08f1e19688d09","","null","<img id='selected' src='G_9.jpg' height='90'> <img src='G_3.jpg' height='90'> <img src='G_7.jpg' height='90'> <img src='G_1.jpg' height='90'> <img src='G_5.jpg' height='90'>","null","Animation0","",""
"","","","","","html-keyboard-response","59","456992","0.0-9.0","40","1","2025-02-02 04:26:15","bc01a2b6f61d06f6604adb8657495020","172.251.28.21","Mozilla/5.0 (Windows NT 10.0; Win64; x64) AppleWebKit/537.36 (KHTML, like Gecko) Chrome/132.0.0.0 Safari/537.36","WebKit","Chrome","132.0.0.0","Windows","10.0","https://app.prolific.com/","en-US,en;q=0.9","664efd1322a0666254a51974","679edb085803f58d6bbd31ca","679ef3dd96d08f1e19688d09","","null","<img id='selected' src='G_9.jpg' height='90'> <img id='selected' src='G_3.jpg' height='90'> <img src='G_7.jpg' height='90'> <img src='G_1.jpg' height='90'> <img src='G_5.jpg' height='90'>","null","Animation0","",""
"","","","","","html-keyboard-response","60","457503","0.0-10.0","40","1","2025-02-02 04:26:15","bc01a2b6f61d06f6604adb8657495020","172.251.28.21","Mozilla/5.0 (Windows NT 10.0; Win64; x64) AppleWebKit/537.36 (KHTML, like Gecko) Chrome/132.0.0.0 Safari/537.36","WebKit","Chrome","132.0.0.0","Windows","10.0","https://app.prolific.com/","en-US,en;q=0.9","664efd1322a0666254a51974","679edb085803f58d6bbd31ca","679ef3dd96d08f1e19688d09","","null","<img id='swapped' src='G_3.jpg' height='90'> <img id='swapped' src='G_9.jpg' height='90'> <img src='G_7.jpg' height='90'> <img src='G_1.jpg' height='90'> <img src='G_5.jpg' height='90'>","null","Animation0","",""
"","","","","","html-keyboard-response","61","457816","0.0-11.0","40","1","2025-02-02 04:26:15","bc01a2b6f61d06f6604adb8657495020","172.251.28.21","Mozilla/5.0 (Windows NT 10.0; Win64; x64) AppleWebKit/537.36 (KHTML, like Gecko) Chrome/132.0.0.0 Safari/537.36","WebKit","Chrome","132.0.0.0","Windows","10.0","https://app.prolific.com/","en-US,en;q=0.9","664efd1322a0666254a51974","679edb085803f58d6bbd31ca","679ef3dd96d08f1e19688d09","","null","<img  src='G_3.jpg' height='90'> <img  src='G_9.jpg' height='90'> <img src='G_7.jpg' height='90'> <img src='G_1.jpg' height='90'> <img src='G_5.jpg' height='90'>","null","Animation0","",""
"","","","","","html-keyboard-response","62","458330","0.0-12.0","40","1","2025-02-02 04:26:15","bc01a2b6f61d06f6604adb8657495020","172.251.28.21","Mozilla/5.0 (Windows NT 10.0; Win64; x64) AppleWebKit/537.36 (KHTML, like Gecko) Chrome/132.0.0.0 Safari/537.36","WebKit","Chrome","132.0.0.0","Windows","10.0","https://app.prolific.com/","en-US,en;q=0.9","664efd1322a0666254a51974","679edb085803f58d6bbd31ca","679ef3dd96d08f1e19688d09","","null","<img  src='G_3.jpg' height='90'> <img id='selected'  src='G_9.jpg' height='90'> <img src='G_7.jpg' height='90'> <img src='G_1.jpg' height='90'> <img src='G_5.jpg' height='90'>","null","Animation0","",""
"","","","","","html-keyboard-response","63","458842","0.0-13.0","40","1","2025-02-02 04:26:15","bc01a2b6f61d06f6604adb8657495020","172.251.28.21","Mozilla/5.0 (Windows NT 10.0; Win64; x64) AppleWebKit/537.36 (KHTML, like Gecko) Chrome/132.0.0.0 Safari/537.36","WebKit","Chrome","132.0.0.0","Windows","10.0","https://app.prolific.com/","en-US,en;q=0.9","664efd1322a0666254a51974","679edb085803f58d6bbd31ca","679ef3dd96d08f1e19688d09","","null","<img  src='G_3.jpg' height='90'> <img id='selected'  src='G_9.jpg' height='90'> <img id='selected' src='G_7.jpg' height='90'> <img src='G_1.jpg' height='90'> <img src='G_5.jpg' height='90'>","null","Animation0","",""
"","","","","","html-keyboard-response","64","459356","0.0-14.0","40","1","2025-02-02 04:26:15","bc01a2b6f61d06f6604adb8657495020","172.251.28.21","Mozilla/5.0 (Windows NT 10.0; Win64; x64) AppleWebKit/537.36 (KHTML, like Gecko) Chrome/132.0.0.0 Safari/537.36","WebKit","Chrome","132.0.0.0","Windows","10.0","https://app.prolific.com/","en-US,en;q=0.9","664efd1322a0666254a51974","679edb085803f58d6bbd31ca","679ef3dd96d08f1e19688d09","","null","<img  src='G_3.jpg' height='90'> <img id='selected'  src='G_9.jpg' height='90'> <img id='selected' src='G_7.jpg' height='90'> <img src='G_1.jpg' height='90'> <img src='G_5.jpg' height='90'>","null","Animation0","",""
"","","","","","html-keyboard-response","65","459668","0.0-15.0","40","1","2025-02-02 04:26:15","bc01a2b6f61d06f6604adb8657495020","172.251.28.21","Mozilla/5.0 (Windows NT 10.0; Win64; x64) AppleWebKit/537.36 (KHTML, like Gecko) Chrome/132.0.0.0 Safari/537.36","WebKit","Chrome","132.0.0.0","Windows","10.0","https://app.prolific.com/","en-US,en;q=0.9","664efd1322a0666254a51974","679edb085803f58d6bbd31ca","679ef3dd96d08f1e19688d09","","null","<img  src='G_3.jpg' height='90'> <img   src='G_9.jpg' height='90'> <img  src='G_7.jpg' height='90'> <img src='G_1.jpg' height='90'> <img src='G_5.jpg' height='90'>","null","Animation0","",""
"","","","","","html-keyboard-response","66","460184","0.0-16.0","40","1","2025-02-02 04:26:15","bc01a2b6f61d06f6604adb8657495020","172.251.28.21","Mozilla/5.0 (Windows NT 10.0; Win64; x64) AppleWebKit/537.36 (KHTML, like Gecko) Chrome/132.0.0.0 Safari/537.36","WebKit","Chrome","132.0.0.0","Windows","10.0","https://app.prolific.com/","en-US,en;q=0.9","664efd1322a0666254a51974","679edb085803f58d6bbd31ca","679ef3dd96d08f1e19688d09","","null","<img  src='G_3.jpg' height='90'> <img   src='G_9.jpg' height='90'> <img id='selected'  src='G_7.jpg' height='90'> <img src='G_1.jpg' height='90'> <img src='G_5.jpg' height='90'>","null","Animation0","",""
"","","","","","html-keyboard-response","67","460697","0.0-17.0","40","1","2025-02-02 04:26:15","bc01a2b6f61d06f6604adb8657495020","172.251.28.21","Mozilla/5.0 (Windows NT 10.0; Win64; x64) AppleWebKit/537.36 (KHTML, like Gecko) Chrome/132.0.0.0 Safari/537.36","WebKit","Chrome","132.0.0.0","Windows","10.0","https://app.prolific.com/","en-US,en;q=0.9","664efd1322a0666254a51974","679edb085803f58d6bbd31ca","679ef3dd96d08f1e19688d09","","null","<img  src='G_3.jpg' height='90'> <img   src='G_9.jpg' height='90'> <img id='selected'  src='G_7.jpg' height='90'> <img id='selected' src='G_1.jpg' height='90'> <img src='G_5.jpg' height='90'>","null","Animation0","",""
"","","","","","html-keyboard-response","68","461211","0.0-18.0","40","1","2025-02-02 04:26:15","bc01a2b6f61d06f6604adb8657495020","172.251.28.21","Mozilla/5.0 (Windows NT 10.0; Win64; x64) AppleWebKit/537.36 (KHTML, like Gecko) Chrome/132.0.0.0 Safari/537.36","WebKit","Chrome","132.0.0.0","Windows","10.0","https://app.prolific.com/","en-US,en;q=0.9","664efd1322a0666254a51974","679edb085803f58d6bbd31ca","679ef3dd96d08f1e19688d09","","null","<img  src='G_3.jpg' height='90'> <img   src='G_9.jpg' height='90'> <img id='selected'  src='G_7.jpg' height='90'> <img id='selected' src='G_1.jpg' height='90'> <img src='G_5.jpg' height='90'>","null","Animation0","",""
"","","","","","html-keyboard-response","69","461525","0.0-19.0","40","1","2025-02-02 04:26:15","bc01a2b6f61d06f6604adb8657495020","172.251.28.21","Mozilla/5.0 (Windows NT 10.0; Win64; x64) AppleWebKit/537.36 (KHTML, like Gecko) Chrome/132.0.0.0 Safari/537.36","WebKit","Chrome","132.0.0.0","Windows","10.0","https://app.prolific.com/","en-US,en;q=0.9","664efd1322a0666254a51974","679edb085803f58d6bbd31ca","679ef3dd96d08f1e19688d09","","null","<img  src='G_3.jpg' height='90'> <img   src='G_9.jpg' height='90'> <img   src='G_7.jpg' height='90'> <img  src='G_1.jpg' height='90'> <img src='G_5.jpg' height='90'>","null","Animation0","",""
"","","","","","html-keyboard-response","70","462037","0.0-20.0","40","1","2025-02-02 04:26:15","bc01a2b6f61d06f6604adb8657495020","172.251.28.21","Mozilla/5.0 (Windows NT 10.0; Win64; x64) AppleWebKit/537.36 (KHTML, like Gecko) Chrome/132.0.0.0 Safari/537.36","WebKit","Chrome","132.0.0.0","Windows","10.0","https://app.prolific.com/","en-US,en;q=0.9","664efd1322a0666254a51974","679edb085803f58d6bbd31ca","679ef3dd96d08f1e19688d09","","null","<img  src='G_3.jpg' height='90'> <img   src='G_9.jpg' height='90'> <img   src='G_7.jpg' height='90'> <img id='selected'  src='G_1.jpg' height='90'> <img src='G_5.jpg' height='90'>","null","Animation0","",""
"","","","","","html-keyboard-response","71","462552","0.0-21.0","40","1","2025-02-02 04:26:15","bc01a2b6f61d06f6604adb8657495020","172.251.28.21","Mozilla/5.0 (Windows NT 10.0; Win64; x64) AppleWebKit/537.36 (KHTML, like Gecko) Chrome/132.0.0.0 Safari/537.36","WebKit","Chrome","132.0.0.0","Windows","10.0","https://app.prolific.com/","en-US,en;q=0.9","664efd1322a0666254a51974","679edb085803f58d6bbd31ca","679ef3dd96d08f1e19688d09","","null","<img  src='G_3.jpg' height='90'> <img   src='G_9.jpg' height='90'> <img   src='G_7.jpg' height='90'> <img id='selected'  src='G_1.jpg' height='90'> <img id='selected' src='G_5.jpg' height='90'>","null","Animation0","",""
"","","","","","html-keyboard-response","72","463065","0.0-22.0","40","1","2025-02-02 04:26:15","bc01a2b6f61d06f6604adb8657495020","172.251.28.21","Mozilla/5.0 (Windows NT 10.0; Win64; x64) AppleWebKit/537.36 (KHTML, like Gecko) Chrome/132.0.0.0 Safari/537.36","WebKit","Chrome","132.0.0.0","Windows","10.0","https://app.prolific.com/","en-US,en;q=0.9","664efd1322a0666254a51974","679edb085803f58d6bbd31ca","679ef3dd96d08f1e19688d09","","null","<img  src='G_3.jpg' height='90'> <img   src='G_9.jpg' height='90'> <img   src='G_7.jpg' height='90'> <img id='selected'  src='G_1.jpg' height='90'> <img id='selected' src='G_5.jpg' height='90'>","null","Animation0","",""
"","","","","","html-keyboard-response","73","463377","0.0-23.0","40","1","2025-02-02 04:26:15","bc01a2b6f61d06f6604adb8657495020","172.251.28.21","Mozilla/5.0 (Windows NT 10.0; Win64; x64) AppleWebKit/537.36 (KHTML, like Gecko) Chrome/132.0.0.0 Safari/537.36","WebKit","Chrome","132.0.0.0","Windows","10.0","https://app.prolific.com/","en-US,en;q=0.9","664efd1322a0666254a51974","679edb085803f58d6bbd31ca","679ef3dd96d08f1e19688d09","","null","<img  src='G_3.jpg' height='90'> <img   src='G_9.jpg' height='90'> <img   src='G_7.jpg' height='90'> <img   src='G_1.jpg' height='90'> <img  src='G_5.jpg' height='90'>","null","Animation0","",""
"","","","","","html-keyboard-response","74","468599","0.0-24.0","40","1","2025-02-02 04:26:15","bc01a2b6f61d06f6604adb8657495020","172.251.28.21","Mozilla/5.0 (Windows NT 10.0; Win64; x64) AppleWebKit/537.36 (KHTML, like Gecko) Chrome/132.0.0.0 Safari/537.36","WebKit","Chrome","132.0.0.0","Windows","10.0","https://app.prolific.com/","en-US,en;q=0.9","664efd1322a0666254a51974","679edb085803f58d6bbd31ca","679ef3dd96d08f1e19688d09","","5221","[""Did you notice any patterns? <br><br>Press Enter to watch that example again and follow the steps of Omgne Sort.""]","enter","","",""
"","","","","","html-button-response","75","469001","0.0-25.0","40","1","2025-02-02 04:26:15","bc01a2b6f61d06f6604adb8657495020","172.251.28.21","Mozilla/5.0 (Windows NT 10.0; Win64; x64) AppleWebKit/537.36 (KHTML, like Gecko) Chrome/132.0.0.0 Safari/537.36","WebKit","Chrome","132.0.0.0","Windows","10.0","https://app.prolific.com/","en-US,en;q=0.9","664efd1322a0666254a51974","679edb085803f58d6bbd31ca","679ef3dd96d08f1e19688d09","","null","<img id='selected' src='G_9.jpg' height='90'> <img src='G_3.jpg' height='90'> <img src='G_7.jpg' height='90'> <img src='G_1.jpg' height='90'> <img src='G_5.jpg' height='90'>","null","Learning example 0","",""
"","","","","","html-button-response","76","469316","0.0-26.0","40","1","2025-02-02 04:26:15","bc01a2b6f61d06f6604adb8657495020","172.251.28.21","Mozilla/5.0 (Windows NT 10.0; Win64; x64) AppleWebKit/537.36 (KHTML, like Gecko) Chrome/132.0.0.0 Safari/537.36","WebKit","Chrome","132.0.0.0","Windows","10.0","https://app.prolific.com/","en-US,en;q=0.9","664efd1322a0666254a51974","679edb085803f58d6bbd31ca","679ef3dd96d08f1e19688d09","","null","<img id='selected' src='G_9.jpg' height='90'> <img id='selected' src='G_3.jpg' height='90'> <img src='G_7.jpg' height='90'> <img src='G_1.jpg' height='90'> <img src='G_5.jpg' height='90'>","null","Learning example 0","",""
"","","","","","html-button-response","77","469618","0.0-27.0","40","1","2025-02-02 04:26:15","bc01a2b6f61d06f6604adb8657495020","172.251.28.21","Mozilla/5.0 (Windows NT 10.0; Win64; x64) AppleWebKit/537.36 (KHTML, like Gecko) Chrome/132.0.0.0 Safari/537.36","WebKit","Chrome","132.0.0.0","Windows","10.0","https://app.prolific.com/","en-US,en;q=0.9","664efd1322a0666254a51974","679edb085803f58d6bbd31ca","679ef3dd96d08f1e19688d09","","null","<img id='swapped' src='G_3.jpg' height='90'> <img id='swapped' src='G_9.jpg' height='90'> <img src='G_7.jpg' height='90'> <img src='G_1.jpg' height='90'> <img src='G_5.jpg' height='90'>","null","Learning example 0","",""
"","","","","","html-button-response","78","469805","0.0-28.0-0.0-0.0","40","1","2025-02-02 04:26:15","bc01a2b6f61d06f6604adb8657495020","172.251.28.21","Mozilla/5.0 (Windows NT 10.0; Win64; x64) AppleWebKit/537.36 (KHTML, like Gecko) Chrome/132.0.0.0 Safari/537.36","WebKit","Chrome","132.0.0.0","Windows","10.0","https://app.prolific.com/","en-US,en;q=0.9","664efd1322a0666254a51974","679edb085803f58d6bbd31ca","679ef3dd96d08f1e19688d09","","186","<img id='swapped' src='G_3.jpg' height='90'> <img id='swapped' src='G_9.jpg' height='90'> <img src='G_7.jpg' height='90'> <img src='G_1.jpg' height='90'> <img src='G_5.jpg' height='90'>","0","Learning example 0","",""
"","","","","","html-button-response","79","470018","0.0-28.1-0.1-0.1","40","1","2025-02-02 04:26:15","bc01a2b6f61d06f6604adb8657495020","172.251.28.21","Mozilla/5.0 (Windows NT 10.0; Win64; x64) AppleWebKit/537.36 (KHTML, like Gecko) Chrome/132.0.0.0 Safari/537.36","WebKit","Chrome","132.0.0.0","Windows","10.0","https://app.prolific.com/","en-US,en;q=0.9","664efd1322a0666254a51974","679edb085803f58d6bbd31ca","679ef3dd96d08f1e19688d09","","212","<img id='swapped' src='G_3.jpg' height='90'> <img id='swapped' src='G_9.jpg' height='90'> <img src='G_7.jpg' height='90'> <img src='G_1.jpg' height='90'> <img src='G_5.jpg' height='90'>","1","Learning example 0","",""
"","","","","","html-button-response","80","470219","0.0-29.0","40","1","2025-02-02 04:26:15","bc01a2b6f61d06f6604adb8657495020","172.251.28.21","Mozilla/5.0 (Windows NT 10.0; Win64; x64) AppleWebKit/537.36 (KHTML, like Gecko) Chrome/132.0.0.0 Safari/537.36","WebKit","Chrome","132.0.0.0","Windows","10.0","https://app.prolific.com/","en-US,en;q=0.9","664efd1322a0666254a51974","679edb085803f58d6bbd31ca","679ef3dd96d08f1e19688d09","","null","<img  src='G_3.jpg' height='90'> <img  src='G_9.jpg' height='90'> <img src='G_7.jpg' height='90'> <img src='G_1.jpg' height='90'> <img src='G_5.jpg' height='90'>","null","Learning example 0","",""
"","","","","","html-button-response","81","470621","0.0-30.0","40","1","2025-02-02 04:26:15","bc01a2b6f61d06f6604adb8657495020","172.251.28.21","Mozilla/5.0 (Windows NT 10.0; Win64; x64) AppleWebKit/537.36 (KHTML, like Gecko) Chrome/132.0.0.0 Safari/537.36","WebKit","Chrome","132.0.0.0","Windows","10.0","https://app.prolific.com/","en-US,en;q=0.9","664efd1322a0666254a51974","679edb085803f58d6bbd31ca","679ef3dd96d08f1e19688d09","","null","<img  src='G_3.jpg' height='90'> <img id='selected'  src='G_9.jpg' height='90'> <img src='G_7.jpg' height='90'> <img src='G_1.jpg' height='90'> <img src='G_5.jpg' height='90'>","null","Learning example 0","",""
"","","","","","html-button-response","82","470934","0.0-31.0","40","1","2025-02-02 04:26:15","bc01a2b6f61d06f6604adb8657495020","172.251.28.21","Mozilla/5.0 (Windows NT 10.0; Win64; x64) AppleWebKit/537.36 (KHTML, like Gecko) Chrome/132.0.0.0 Safari/537.36","WebKit","Chrome","132.0.0.0","Windows","10.0","https://app.prolific.com/","en-US,en;q=0.9","664efd1322a0666254a51974","679edb085803f58d6bbd31ca","679ef3dd96d08f1e19688d09","","null","<img  src='G_3.jpg' height='90'> <img id='selected'  src='G_9.jpg' height='90'> <img id='selected' src='G_7.jpg' height='90'> <img src='G_1.jpg' height='90'> <img src='G_5.jpg' height='90'>","null","Learning example 0","",""
"","","","","","html-button-response","83","471247","0.0-32.0","40","1","2025-02-02 04:26:15","bc01a2b6f61d06f6604adb8657495020","172.251.28.21","Mozilla/5.0 (Windows NT 10.0; Win64; x64) AppleWebKit/537.36 (KHTML, like Gecko) Chrome/132.0.0.0 Safari/537.36","WebKit","Chrome","132.0.0.0","Windows","10.0","https://app.prolific.com/","en-US,en;q=0.9","664efd1322a0666254a51974","679edb085803f58d6bbd31ca","679ef3dd96d08f1e19688d09","","null","<img  src='G_3.jpg' height='90'> <img id='selected'  src='G_9.jpg' height='90'> <img id='selected' src='G_7.jpg' height='90'> <img src='G_1.jpg' height='90'> <img src='G_5.jpg' height='90'>","null","Learning example 0","",""
"","","","","","html-button-response","84","471318","0.0-33.0-0.0-0.0","40","1","2025-02-02 04:26:15","bc01a2b6f61d06f6604adb8657495020","172.251.28.21","Mozilla/5.0 (Windows NT 10.0; Win64; x64) AppleWebKit/537.36 (KHTML, like Gecko) Chrome/132.0.0.0 Safari/537.36","WebKit","Chrome","132.0.0.0","Windows","10.0","https://app.prolific.com/","en-US,en;q=0.9","664efd1322a0666254a51974","679edb085803f58d6bbd31ca","679ef3dd96d08f1e19688d09","","70","<img  src='G_3.jpg' height='90'> <img id='selected'  src='G_9.jpg' height='90'> <img id='selected' src='G_7.jpg' height='90'> <img src='G_1.jpg' height='90'> <img src='G_5.jpg' height='90'>","1","Learning example 0","",""
"","","","","","html-button-response","85","471544","0.0-33.1-0.1-0.1","40","1","2025-02-02 04:26:15","bc01a2b6f61d06f6604adb8657495020","172.251.28.21","Mozilla/5.0 (Windows NT 10.0; Win64; x64) AppleWebKit/537.36 (KHTML, like Gecko) Chrome/132.0.0.0 Safari/537.36","WebKit","Chrome","132.0.0.0","Windows","10.0","https://app.prolific.com/","en-US,en;q=0.9","664efd1322a0666254a51974","679edb085803f58d6bbd31ca","679ef3dd96d08f1e19688d09","","225","<img  src='G_3.jpg' height='90'> <img id='selected'  src='G_9.jpg' height='90'> <img id='selected' src='G_7.jpg' height='90'> <img src='G_1.jpg' height='90'> <img src='G_5.jpg' height='90'>","2","Learning example 0","",""
"","","","","","html-button-response","86","471746","0.0-34.0","40","1","2025-02-02 04:26:15","bc01a2b6f61d06f6604adb8657495020","172.251.28.21","Mozilla/5.0 (Windows NT 10.0; Win64; x64) AppleWebKit/537.36 (KHTML, like Gecko) Chrome/132.0.0.0 Safari/537.36","WebKit","Chrome","132.0.0.0","Windows","10.0","https://app.prolific.com/","en-US,en;q=0.9","664efd1322a0666254a51974","679edb085803f58d6bbd31ca","679ef3dd96d08f1e19688d09","","null","<img  src='G_3.jpg' height='90'> <img   src='G_9.jpg' height='90'> <img  src='G_7.jpg' height='90'> <img src='G_1.jpg' height='90'> <img src='G_5.jpg' height='90'>","null","Learning example 0","",""
"","","","","","html-button-response","87","471914","0.0-35.0","40","1","2025-02-02 04:26:15","bc01a2b6f61d06f6604adb8657495020","172.251.28.21","Mozilla/5.0 (Windows NT 10.0; Win64; x64) AppleWebKit/537.36 (KHTML, like Gecko) Chrome/132.0.0.0 Safari/537.36","WebKit","Chrome","132.0.0.0","Windows","10.0","https://app.prolific.com/","en-US,en;q=0.9","664efd1322a0666254a51974","679edb085803f58d6bbd31ca","679ef3dd96d08f1e19688d09","","167","<img  src='G_3.jpg' height='90'> <img   src='G_9.jpg' height='90'> <img id='selected'  src='G_7.jpg' height='90'> <img src='G_1.jpg' height='90'> <img src='G_5.jpg' height='90'>","2","Learning example 0","",""
"","","","","","html-button-response","88","472188","0.0-36.0","40","1","2025-02-02 04:26:15","bc01a2b6f61d06f6604adb8657495020","172.251.28.21","Mozilla/5.0 (Windows NT 10.0; Win64; x64) AppleWebKit/537.36 (KHTML, like Gecko) Chrome/132.0.0.0 Safari/537.36","WebKit","Chrome","132.0.0.0","Windows","10.0","https://app.prolific.com/","en-US,en;q=0.9","664efd1322a0666254a51974","679edb085803f58d6bbd31ca","679ef3dd96d08f1e19688d09","","273","<img  src='G_3.jpg' height='90'> <img   src='G_9.jpg' height='90'> <img id='selected'  src='G_7.jpg' height='90'> <img id='selected' src='G_1.jpg' height='90'> <img src='G_5.jpg' height='90'>","3","Learning example 0","",""
"","","","","","html-button-response","89","472490","0.0-37.0","40","1","2025-02-02 04:26:15","bc01a2b6f61d06f6604adb8657495020","172.251.28.21","Mozilla/5.0 (Windows NT 10.0; Win64; x64) AppleWebKit/537.36 (KHTML, like Gecko) Chrome/132.0.0.0 Safari/537.36","WebKit","Chrome","132.0.0.0","Windows","10.0","https://app.prolific.com/","en-US,en;q=0.9","664efd1322a0666254a51974","679edb085803f58d6bbd31ca","679ef3dd96d08f1e19688d09","","null","<img  src='G_3.jpg' height='90'> <img   src='G_9.jpg' height='90'> <img id='selected'  src='G_7.jpg' height='90'> <img id='selected' src='G_1.jpg' height='90'> <img src='G_5.jpg' height='90'>","null","Learning example 0","",""
"","","","","","html-button-response","90","472798","0.0-38.0-0.0-0.0","40","1","2025-02-02 04:26:15","bc01a2b6f61d06f6604adb8657495020","172.251.28.21","Mozilla/5.0 (Windows NT 10.0; Win64; x64) AppleWebKit/537.36 (KHTML, like Gecko) Chrome/132.0.0.0 Safari/537.36","WebKit","Chrome","132.0.0.0","Windows","10.0","https://app.prolific.com/","en-US,en;q=0.9","664efd1322a0666254a51974","679edb085803f58d6bbd31ca","679ef3dd96d08f1e19688d09","","307","<img  src='G_3.jpg' height='90'> <img   src='G_9.jpg' height='90'> <img id='selected'  src='G_7.jpg' height='90'> <img id='selected' src='G_1.jpg' height='90'> <img src='G_5.jpg' height='90'>","2","Learning example 0","",""
"","","","","","html-button-response","91","473322","0.0-38.1-0.1-0.1","40","1","2025-02-02 04:26:15","bc01a2b6f61d06f6604adb8657495020","172.251.28.21","Mozilla/5.0 (Windows NT 10.0; Win64; x64) AppleWebKit/537.36 (KHTML, like Gecko) Chrome/132.0.0.0 Safari/537.36","WebKit","Chrome","132.0.0.0","Windows","10.0","https://app.prolific.com/","en-US,en;q=0.9","664efd1322a0666254a51974","679edb085803f58d6bbd31ca","679ef3dd96d08f1e19688d09","","523","<img  src='G_3.jpg' height='90'> <img   src='G_9.jpg' height='90'> <img id='selected'  src='G_7.jpg' height='90'> <img id='selected' src='G_1.jpg' height='90'> <img src='G_5.jpg' height='90'>","3","Learning example 0","",""
"","","","","","html-button-response","92","473428","0.0-39.0","40","1","2025-02-02 04:26:15","bc01a2b6f61d06f6604adb8657495020","172.251.28.21","Mozilla/5.0 (Windows NT 10.0; Win64; x64) AppleWebKit/537.36 (KHTML, like Gecko) Chrome/132.0.0.0 Safari/537.36","WebKit","Chrome","132.0.0.0","Windows","10.0","https://app.prolific.com/","en-US,en;q=0.9","664efd1322a0666254a51974","679edb085803f58d6bbd31ca","679ef3dd96d08f1e19688d09","","105","<img  src='G_3.jpg' height='90'> <img   src='G_9.jpg' height='90'> <img   src='G_7.jpg' height='90'> <img  src='G_1.jpg' height='90'> <img src='G_5.jpg' height='90'>","3","Learning example 0","",""
"","","","","","html-button-response","93","473841","0.0-40.0","40","1","2025-02-02 04:26:15","bc01a2b6f61d06f6604adb8657495020","172.251.28.21","Mozilla/5.0 (Windows NT 10.0; Win64; x64) AppleWebKit/537.36 (KHTML, like Gecko) Chrome/132.0.0.0 Safari/537.36","WebKit","Chrome","132.0.0.0","Windows","10.0","https://app.prolific.com/","en-US,en;q=0.9","664efd1322a0666254a51974","679edb085803f58d6bbd31ca","679ef3dd96d08f1e19688d09","","null","<img  src='G_3.jpg' height='90'> <img   src='G_9.jpg' height='90'> <img   src='G_7.jpg' height='90'> <img id='selected'  src='G_1.jpg' height='90'> <img src='G_5.jpg' height='90'>","null","Learning example 0","",""
"","","","","","html-button-response","94","474154","0.0-41.0","40","1","2025-02-02 04:26:15","bc01a2b6f61d06f6604adb8657495020","172.251.28.21","Mozilla/5.0 (Windows NT 10.0; Win64; x64) AppleWebKit/537.36 (KHTML, like Gecko) Chrome/132.0.0.0 Safari/537.36","WebKit","Chrome","132.0.0.0","Windows","10.0","https://app.prolific.com/","en-US,en;q=0.9","664efd1322a0666254a51974","679edb085803f58d6bbd31ca","679ef3dd96d08f1e19688d09","","null","<img  src='G_3.jpg' height='90'> <img   src='G_9.jpg' height='90'> <img   src='G_7.jpg' height='90'> <img id='selected'  src='G_1.jpg' height='90'> <img id='selected' src='G_5.jpg' height='90'>","null","Learning example 0","",""
"","","","","","html-button-response","95","474455","0.0-42.0","40","1","2025-02-02 04:26:15","bc01a2b6f61d06f6604adb8657495020","172.251.28.21","Mozilla/5.0 (Windows NT 10.0; Win64; x64) AppleWebKit/537.36 (KHTML, like Gecko) Chrome/132.0.0.0 Safari/537.36","WebKit","Chrome","132.0.0.0","Windows","10.0","https://app.prolific.com/","en-US,en;q=0.9","664efd1322a0666254a51974","679edb085803f58d6bbd31ca","679ef3dd96d08f1e19688d09","","null","<img  src='G_3.jpg' height='90'> <img   src='G_9.jpg' height='90'> <img   src='G_7.jpg' height='90'> <img id='selected'  src='G_1.jpg' height='90'> <img id='selected' src='G_5.jpg' height='90'>","null","Learning example 0","",""
"","","","","","html-button-response","96","474724","0.0-43.0-0.0-0.0","40","1","2025-02-02 04:26:15","bc01a2b6f61d06f6604adb8657495020","172.251.28.21","Mozilla/5.0 (Windows NT 10.0; Win64; x64) AppleWebKit/537.36 (KHTML, like Gecko) Chrome/132.0.0.0 Safari/537.36","WebKit","Chrome","132.0.0.0","Windows","10.0","https://app.prolific.com/","en-US,en;q=0.9","664efd1322a0666254a51974","679edb085803f58d6bbd31ca","679ef3dd96d08f1e19688d09","","267","<img  src='G_3.jpg' height='90'> <img   src='G_9.jpg' height='90'> <img   src='G_7.jpg' height='90'> <img id='selected'  src='G_1.jpg' height='90'> <img id='selected' src='G_5.jpg' height='90'>","3","Learning example 0","",""
"","","","","","html-button-response","97","475027","0.0-43.1-0.1-0.1","40","1","2025-02-02 04:26:15","bc01a2b6f61d06f6604adb8657495020","172.251.28.21","Mozilla/5.0 (Windows NT 10.0; Win64; x64) AppleWebKit/537.36 (KHTML, like Gecko) Chrome/132.0.0.0 Safari/537.36","WebKit","Chrome","132.0.0.0","Windows","10.0","https://app.prolific.com/","en-US,en;q=0.9","664efd1322a0666254a51974","679edb085803f58d6bbd31ca","679ef3dd96d08f1e19688d09","","302","<img  src='G_3.jpg' height='90'> <img   src='G_9.jpg' height='90'> <img   src='G_7.jpg' height='90'> <img id='selected'  src='G_1.jpg' height='90'> <img id='selected' src='G_5.jpg' height='90'>","4","Learning example 0","",""
"","","","","","html-button-response","98","475229","0.0-44.0","40","1","2025-02-02 04:26:15","bc01a2b6f61d06f6604adb8657495020","172.251.28.21","Mozilla/5.0 (Windows NT 10.0; Win64; x64) AppleWebKit/537.36 (KHTML, like Gecko) Chrome/132.0.0.0 Safari/537.36","WebKit","Chrome","132.0.0.0","Windows","10.0","https://app.prolific.com/","en-US,en;q=0.9","664efd1322a0666254a51974","679edb085803f58d6bbd31ca","679ef3dd96d08f1e19688d09","","null","<img  src='G_3.jpg' height='90'> <img   src='G_9.jpg' height='90'> <img   src='G_7.jpg' height='90'> <img   src='G_1.jpg' height='90'> <img  src='G_5.jpg' height='90'>","null","Learning example 0","",""
"","","","","","html-keyboard-response","99","482919","0.0-45.0","40","1","2025-02-02 04:26:15","bc01a2b6f61d06f6604adb8657495020","172.251.28.21","Mozilla/5.0 (Windows NT 10.0; Win64; x64) AppleWebKit/537.36 (KHTML, like Gecko) Chrome/132.0.0.0 Safari/537.36","WebKit","Chrome","132.0.0.0","Windows","10.0","https://app.prolific.com/","en-US,en;q=0.9","664efd1322a0666254a51974","679edb085803f58d6bbd31ca","679ef3dd96d08f1e19688d09","","7689","[""Final order was 1,2,3,4,5. The initial order was 2,1,3,4,5.<br>It took 1 swaps to sort it correctly with Omgne Sort. <br><br>Press Enter to continue.""]","enter","","",""
"","","","","","html-keyboard-response","100","485557","0.0-46.0","40","1","2025-02-02 04:26:15","bc01a2b6f61d06f6604adb8657495020","172.251.28.21","Mozilla/5.0 (Windows NT 10.0; Win64; x64) AppleWebKit/537.36 (KHTML, like Gecko) Chrome/132.0.0.0 Safari/537.36","WebKit","Chrome","132.0.0.0","Windows","10.0","https://app.prolific.com/","en-US,en;q=0.9","664efd1322a0666254a51974","679edb085803f58d6bbd31ca","679ef3dd96d08f1e19688d09","","2637","[""Example 2<br><br>You will watch Omnge Sort in action. Try to identify any patterns in the comparisons made by this method. <br><br>Press Enter to continue.""]","enter","","",""
"","","","","","html-keyboard-response","101","486069","0.0-47.0","40","1","2025-02-02 04:26:15","bc01a2b6f61d06f6604adb8657495020","172.251.28.21","Mozilla/5.0 (Windows NT 10.0; Win64; x64) AppleWebKit/537.36 (KHTML, like Gecko) Chrome/132.0.0.0 Safari/537.36","WebKit","Chrome","132.0.0.0","Windows","10.0","https://app.prolific.com/","en-US,en;q=0.9","664efd1322a0666254a51974","679edb085803f58d6bbd31ca","679ef3dd96d08f1e19688d09","","null","<img id='selected' src='G_7.jpg' height='90'> <img src='G_5.jpg' height='90'> <img src='G_8.jpg' height='90'> <img src='G_4.jpg' height='90'> <img src='G_1.jpg' height='90'> <img src='G_2.jpg' height='90'> <img src='G_6.jpg' height='90'> <img src='G_3.jpg' height='90'>","null","Animation1","",""
"","","","","","html-keyboard-response","102","486584","0.0-48.0","40","1","2025-02-02 04:26:15","bc01a2b6f61d06f6604adb8657495020","172.251.28.21","Mozilla/5.0 (Windows NT 10.0; Win64; x64) AppleWebKit/537.36 (KHTML, like Gecko) Chrome/132.0.0.0 Safari/537.36","WebKit","Chrome","132.0.0.0","Windows","10.0","https://app.prolific.com/","en-US,en;q=0.9","664efd1322a0666254a51974","679edb085803f58d6bbd31ca","679ef3dd96d08f1e19688d09","","null","<img id='selected' src='G_7.jpg' height='90'> <img id='selected' src='G_5.jpg' height='90'> <img src='G_8.jpg' height='90'> <img src='G_4.jpg' height='90'> <img src='G_1.jpg' height='90'> <img src='G_2.jpg' height='90'> <img src='G_6.jpg' height='90'> <img src='G_3.jpg' height='90'>","null","Animation1","",""
"","","","","","html-keyboard-response","103","487098","0.0-49.0","40","1","2025-02-02 04:26:15","bc01a2b6f61d06f6604adb8657495020","172.251.28.21","Mozilla/5.0 (Windows NT 10.0; Win64; x64) AppleWebKit/537.36 (KHTML, like Gecko) Chrome/132.0.0.0 Safari/537.36","WebKit","Chrome","132.0.0.0","Windows","10.0","https://app.prolific.com/","en-US,en;q=0.9","664efd1322a0666254a51974","679edb085803f58d6bbd31ca","679ef3dd96d08f1e19688d09","","null","<img id='selected' src='G_7.jpg' height='90'> <img id='selected' src='G_5.jpg' height='90'> <img src='G_8.jpg' height='90'> <img src='G_4.jpg' height='90'> <img src='G_1.jpg' height='90'> <img src='G_2.jpg' height='90'> <img src='G_6.jpg' height='90'> <img src='G_3.jpg' height='90'>","null","Animation1","",""
"","","","","","html-keyboard-response","104","487409","0.0-50.0","40","1","2025-02-02 04:26:15","bc01a2b6f61d06f6604adb8657495020","172.251.28.21","Mozilla/5.0 (Windows NT 10.0; Win64; x64) AppleWebKit/537.36 (KHTML, like Gecko) Chrome/132.0.0.0 Safari/537.36","WebKit","Chrome","132.0.0.0","Windows","10.0","https://app.prolific.com/","en-US,en;q=0.9","664efd1322a0666254a51974","679edb085803f58d6bbd31ca","679ef3dd96d08f1e19688d09","","null","<img  src='G_7.jpg' height='90'> <img  src='G_5.jpg' height='90'> <img src='G_8.jpg' height='90'> <img src='G_4.jpg' height='90'> <img src='G_1.jpg' height='90'> <img src='G_2.jpg' height='90'> <img src='G_6.jpg' height='90'> <img src='G_3.jpg' height='90'>","null","Animation1","",""
"","","","","","html-keyboard-response","105","487925","0.0-51.0","40","1","2025-02-02 04:26:15","bc01a2b6f61d06f6604adb8657495020","172.251.28.21","Mozilla/5.0 (Windows NT 10.0; Win64; x64) AppleWebKit/537.36 (KHTML, like Gecko) Chrome/132.0.0.0 Safari/537.36","WebKit","Chrome","132.0.0.0","Windows","10.0","https://app.prolific.com/","en-US,en;q=0.9","664efd1322a0666254a51974","679edb085803f58d6bbd31ca","679ef3dd96d08f1e19688d09","","null","<img  src='G_7.jpg' height='90'> <img id='selected'  src='G_5.jpg' height='90'> <img src='G_8.jpg' height='90'> <img src='G_4.jpg' height='90'> <img src='G_1.jpg' height='90'> <img src='G_2.jpg' height='90'> <img src='G_6.jpg' height='90'> <img src='G_3.jpg' height='90'>","null","Animation1","",""
"","","","","","html-keyboard-response","106","488438","0.0-52.0","40","1","2025-02-02 04:26:15","bc01a2b6f61d06f6604adb8657495020","172.251.28.21","Mozilla/5.0 (Windows NT 10.0; Win64; x64) AppleWebKit/537.36 (KHTML, like Gecko) Chrome/132.0.0.0 Safari/537.36","WebKit","Chrome","132.0.0.0","Windows","10.0","https://app.prolific.com/","en-US,en;q=0.9","664efd1322a0666254a51974","679edb085803f58d6bbd31ca","679ef3dd96d08f1e19688d09","","null","<img  src='G_7.jpg' height='90'> <img id='selected'  src='G_5.jpg' height='90'> <img id='selected' src='G_8.jpg' height='90'> <img src='G_4.jpg' height='90'> <img src='G_1.jpg' height='90'> <img src='G_2.jpg' height='90'> <img src='G_6.jpg' height='90'> <img src='G_3.jpg' height='90'>","null","Animation1","",""
"","","","","","html-keyboard-response","107","488953","0.0-53.0","40","1","2025-02-02 04:26:15","bc01a2b6f61d06f6604adb8657495020","172.251.28.21","Mozilla/5.0 (Windows NT 10.0; Win64; x64) AppleWebKit/537.36 (KHTML, like Gecko) Chrome/132.0.0.0 Safari/537.36","WebKit","Chrome","132.0.0.0","Windows","10.0","https://app.prolific.com/","en-US,en;q=0.9","664efd1322a0666254a51974","679edb085803f58d6bbd31ca","679ef3dd96d08f1e19688d09","","null","<img  src='G_7.jpg' height='90'> <img id='swapped' src='G_8.jpg' height='90'> <img id='swapped'  src='G_5.jpg' height='90'> <img src='G_4.jpg' height='90'> <img src='G_1.jpg' height='90'> <img src='G_2.jpg' height='90'> <img src='G_6.jpg' height='90'> <img src='G_3.jpg' height='90'>","null","Animation1","",""
"","","","","","html-keyboard-response","108","489263","0.0-54.0","40","1","2025-02-02 04:26:15","bc01a2b6f61d06f6604adb8657495020","172.251.28.21","Mozilla/5.0 (Windows NT 10.0; Win64; x64) AppleWebKit/537.36 (KHTML, like Gecko) Chrome/132.0.0.0 Safari/537.36","WebKit","Chrome","132.0.0.0","Windows","10.0","https://app.prolific.com/","en-US,en;q=0.9","664efd1322a0666254a51974","679edb085803f58d6bbd31ca","679ef3dd96d08f1e19688d09","","null","<img  src='G_7.jpg' height='90'> <img  src='G_8.jpg' height='90'> <img   src='G_5.jpg' height='90'> <img src='G_4.jpg' height='90'> <img src='G_1.jpg' height='90'> <img src='G_2.jpg' height='90'> <img src='G_6.jpg' height='90'> <img src='G_3.jpg' height='90'>","null","Animation1","",""
"","","","","","html-keyboard-response","109","489775","0.0-55.0","40","1","2025-02-02 04:26:15","bc01a2b6f61d06f6604adb8657495020","172.251.28.21","Mozilla/5.0 (Windows NT 10.0; Win64; x64) AppleWebKit/537.36 (KHTML, like Gecko) Chrome/132.0.0.0 Safari/537.36","WebKit","Chrome","132.0.0.0","Windows","10.0","https://app.prolific.com/","en-US,en;q=0.9","664efd1322a0666254a51974","679edb085803f58d6bbd31ca","679ef3dd96d08f1e19688d09","","null","<img id='selected'  src='G_7.jpg' height='90'> <img  src='G_8.jpg' height='90'> <img   src='G_5.jpg' height='90'> <img src='G_4.jpg' height='90'> <img src='G_1.jpg' height='90'> <img src='G_2.jpg' height='90'> <img src='G_6.jpg' height='90'> <img src='G_3.jpg' height='90'>","null","Animation1","",""
"","","","","","html-keyboard-response","110","490291","0.0-56.0","40","1","2025-02-02 04:26:15","bc01a2b6f61d06f6604adb8657495020","172.251.28.21","Mozilla/5.0 (Windows NT 10.0; Win64; x64) AppleWebKit/537.36 (KHTML, like Gecko) Chrome/132.0.0.0 Safari/537.36","WebKit","Chrome","132.0.0.0","Windows","10.0","https://app.prolific.com/","en-US,en;q=0.9","664efd1322a0666254a51974","679edb085803f58d6bbd31ca","679ef3dd96d08f1e19688d09","","null","<img id='selected'  src='G_7.jpg' height='90'> <img id='selected'  src='G_8.jpg' height='90'> <img   src='G_5.jpg' height='90'> <img src='G_4.jpg' height='90'> <img src='G_1.jpg' height='90'> <img src='G_2.jpg' height='90'> <img src='G_6.jpg' height='90'> <img src='G_3.jpg' height='90'>","null","Animation1","",""
"","","","","","html-keyboard-response","111","490805","0.0-57.0","40","1","2025-02-02 04:26:15","bc01a2b6f61d06f6604adb8657495020","172.251.28.21","Mozilla/5.0 (Windows NT 10.0; Win64; x64) AppleWebKit/537.36 (KHTML, like Gecko) Chrome/132.0.0.0 Safari/537.36","WebKit","Chrome","132.0.0.0","Windows","10.0","https://app.prolific.com/","en-US,en;q=0.9","664efd1322a0666254a51974","679edb085803f58d6bbd31ca","679ef3dd96d08f1e19688d09","","null","<img id='swapped'  src='G_8.jpg' height='90'> <img id='swapped'  src='G_7.jpg' height='90'> <img   src='G_5.jpg' height='90'> <img src='G_4.jpg' height='90'> <img src='G_1.jpg' height='90'> <img src='G_2.jpg' height='90'> <img src='G_6.jpg' height='90'> <img src='G_3.jpg' height='90'>","null","Animation1","",""
"","","","","","html-keyboard-response","112","491115","0.0-58.0","40","1","2025-02-02 04:26:15","bc01a2b6f61d06f6604adb8657495020","172.251.28.21","Mozilla/5.0 (Windows NT 10.0; Win64; x64) AppleWebKit/537.36 (KHTML, like Gecko) Chrome/132.0.0.0 Safari/537.36","WebKit","Chrome","132.0.0.0","Windows","10.0","https://app.prolific.com/","en-US,en;q=0.9","664efd1322a0666254a51974","679edb085803f58d6bbd31ca","679ef3dd96d08f1e19688d09","","null","<img   src='G_8.jpg' height='90'> <img   src='G_7.jpg' height='90'> <img   src='G_5.jpg' height='90'> <img src='G_4.jpg' height='90'> <img src='G_1.jpg' height='90'> <img src='G_2.jpg' height='90'> <img src='G_6.jpg' height='90'> <img src='G_3.jpg' height='90'>","null","Animation1","",""
"","","","","","html-keyboard-response","113","491630","0.0-59.0","40","1","2025-02-02 04:26:15","bc01a2b6f61d06f6604adb8657495020","172.251.28.21","Mozilla/5.0 (Windows NT 10.0; Win64; x64) AppleWebKit/537.36 (KHTML, like Gecko) Chrome/132.0.0.0 Safari/537.36","WebKit","Chrome","132.0.0.0","Windows","10.0","https://app.prolific.com/","en-US,en;q=0.9","664efd1322a0666254a51974","679edb085803f58d6bbd31ca","679ef3dd96d08f1e19688d09","","null","<img   src='G_8.jpg' height='90'> <img   src='G_7.jpg' height='90'> <img id='selected'   src='G_5.jpg' height='90'> <img src='G_4.jpg' height='90'> <img src='G_1.jpg' height='90'> <img src='G_2.jpg' height='90'> <img src='G_6.jpg' height='90'> <img src='G_3.jpg' height='90'>","null","Animation1","",""
"","","","","","html-keyboard-response","114","492145","0.0-60.0","40","1","2025-02-02 04:26:15","bc01a2b6f61d06f6604adb8657495020","172.251.28.21","Mozilla/5.0 (Windows NT 10.0; Win64; x64) AppleWebKit/537.36 (KHTML, like Gecko) Chrome/132.0.0.0 Safari/537.36","WebKit","Chrome","132.0.0.0","Windows","10.0","https://app.prolific.com/","en-US,en;q=0.9","664efd1322a0666254a51974","679edb085803f58d6bbd31ca","679ef3dd96d08f1e19688d09","","null","<img   src='G_8.jpg' height='90'> <img   src='G_7.jpg' height='90'> <img id='selected'   src='G_5.jpg' height='90'> <img id='selected' src='G_4.jpg' height='90'> <img src='G_1.jpg' height='90'> <img src='G_2.jpg' height='90'> <img src='G_6.jpg' height='90'> <img src='G_3.jpg' height='90'>","null","Animation1","",""
"","","","","","html-keyboard-response","115","492660","0.0-61.0","40","1","2025-02-02 04:26:15","bc01a2b6f61d06f6604adb8657495020","172.251.28.21","Mozilla/5.0 (Windows NT 10.0; Win64; x64) AppleWebKit/537.36 (KHTML, like Gecko) Chrome/132.0.0.0 Safari/537.36","WebKit","Chrome","132.0.0.0","Windows","10.0","https://app.prolific.com/","en-US,en;q=0.9","664efd1322a0666254a51974","679edb085803f58d6bbd31ca","679ef3dd96d08f1e19688d09","","null","<img   src='G_8.jpg' height='90'> <img   src='G_7.jpg' height='90'> <img id='swapped' src='G_4.jpg' height='90'> <img id='swapped'   src='G_5.jpg' height='90'> <img src='G_1.jpg' height='90'> <img src='G_2.jpg' height='90'> <img src='G_6.jpg' height='90'> <img src='G_3.jpg' height='90'>","null","Animation1","",""
"","","","","","html-keyboard-response","116","492972","0.0-62.0","40","1","2025-02-02 04:26:15","bc01a2b6f61d06f6604adb8657495020","172.251.28.21","Mozilla/5.0 (Windows NT 10.0; Win64; x64) AppleWebKit/537.36 (KHTML, like Gecko) Chrome/132.0.0.0 Safari/537.36","WebKit","Chrome","132.0.0.0","Windows","10.0","https://app.prolific.com/","en-US,en;q=0.9","664efd1322a0666254a51974","679edb085803f58d6bbd31ca","679ef3dd96d08f1e19688d09","","null","<img   src='G_8.jpg' height='90'> <img   src='G_7.jpg' height='90'> <img  src='G_4.jpg' height='90'> <img    src='G_5.jpg' height='90'> <img src='G_1.jpg' height='90'> <img src='G_2.jpg' height='90'> <img src='G_6.jpg' height='90'> <img src='G_3.jpg' height='90'>","null","Animation1","",""
"","","","","","html-keyboard-response","117","493486","0.0-63.0","40","1","2025-02-02 04:26:15","bc01a2b6f61d06f6604adb8657495020","172.251.28.21","Mozilla/5.0 (Windows NT 10.0; Win64; x64) AppleWebKit/537.36 (KHTML, like Gecko) Chrome/132.0.0.0 Safari/537.36","WebKit","Chrome","132.0.0.0","Windows","10.0","https://app.prolific.com/","en-US,en;q=0.9","664efd1322a0666254a51974","679edb085803f58d6bbd31ca","679ef3dd96d08f1e19688d09","","null","<img   src='G_8.jpg' height='90'> <img id='selected'   src='G_7.jpg' height='90'> <img  src='G_4.jpg' height='90'> <img    src='G_5.jpg' height='90'> <img src='G_1.jpg' height='90'> <img src='G_2.jpg' height='90'> <img src='G_6.jpg' height='90'> <img src='G_3.jpg' height='90'>","null","Animation1","",""
"","","","","","html-keyboard-response","118","493998","0.0-64.0","40","1","2025-02-02 04:26:15","bc01a2b6f61d06f6604adb8657495020","172.251.28.21","Mozilla/5.0 (Windows NT 10.0; Win64; x64) AppleWebKit/537.36 (KHTML, like Gecko) Chrome/132.0.0.0 Safari/537.36","WebKit","Chrome","132.0.0.0","Windows","10.0","https://app.prolific.com/","en-US,en;q=0.9","664efd1322a0666254a51974","679edb085803f58d6bbd31ca","679ef3dd96d08f1e19688d09","","null","<img   src='G_8.jpg' height='90'> <img id='selected'   src='G_7.jpg' height='90'> <img id='selected'  src='G_4.jpg' height='90'> <img    src='G_5.jpg' height='90'> <img src='G_1.jpg' height='90'> <img src='G_2.jpg' height='90'> <img src='G_6.jpg' height='90'> <img src='G_3.jpg' height='90'>","null","Animation1","",""
"","","","","","html-keyboard-response","119","494511","0.0-65.0","40","1","2025-02-02 04:26:15","bc01a2b6f61d06f6604adb8657495020","172.251.28.21","Mozilla/5.0 (Windows NT 10.0; Win64; x64) AppleWebKit/537.36 (KHTML, like Gecko) Chrome/132.0.0.0 Safari/537.36","WebKit","Chrome","132.0.0.0","Windows","10.0","https://app.prolific.com/","en-US,en;q=0.9","664efd1322a0666254a51974","679edb085803f58d6bbd31ca","679ef3dd96d08f1e19688d09","","null","<img   src='G_8.jpg' height='90'> <img id='swapped'  src='G_4.jpg' height='90'> <img id='swapped'   src='G_7.jpg' height='90'> <img    src='G_5.jpg' height='90'> <img src='G_1.jpg' height='90'> <img src='G_2.jpg' height='90'> <img src='G_6.jpg' height='90'> <img src='G_3.jpg' height='90'>","null","Animation1","",""
"","","","","","html-keyboard-response","120","494823","0.0-66.0","40","1","2025-02-02 04:26:15","bc01a2b6f61d06f6604adb8657495020","172.251.28.21","Mozilla/5.0 (Windows NT 10.0; Win64; x64) AppleWebKit/537.36 (KHTML, like Gecko) Chrome/132.0.0.0 Safari/537.36","WebKit","Chrome","132.0.0.0","Windows","10.0","https://app.prolific.com/","en-US,en;q=0.9","664efd1322a0666254a51974","679edb085803f58d6bbd31ca","679ef3dd96d08f1e19688d09","","null","<img   src='G_8.jpg' height='90'> <img   src='G_4.jpg' height='90'> <img    src='G_7.jpg' height='90'> <img    src='G_5.jpg' height='90'> <img src='G_1.jpg' height='90'> <img src='G_2.jpg' height='90'> <img src='G_6.jpg' height='90'> <img src='G_3.jpg' height='90'>","null","Animation1","",""
"","","","","","html-keyboard-response","121","495335","0.0-67.0","40","1","2025-02-02 04:26:15","bc01a2b6f61d06f6604adb8657495020","172.251.28.21","Mozilla/5.0 (Windows NT 10.0; Win64; x64) AppleWebKit/537.36 (KHTML, like Gecko) Chrome/132.0.0.0 Safari/537.36","WebKit","Chrome","132.0.0.0","Windows","10.0","https://app.prolific.com/","en-US,en;q=0.9","664efd1322a0666254a51974","679edb085803f58d6bbd31ca","679ef3dd96d08f1e19688d09","","null","<img id='selected'   src='G_8.jpg' height='90'> <img   src='G_4.jpg' height='90'> <img    src='G_7.jpg' height='90'> <img    src='G_5.jpg' height='90'> <img src='G_1.jpg' height='90'> <img src='G_2.jpg' height='90'> <img src='G_6.jpg' height='90'> <img src='G_3.jpg' height='90'>","null","Animation1","",""
"","","","","","html-keyboard-response","122","495847","0.0-68.0","40","1","2025-02-02 04:26:15","bc01a2b6f61d06f6604adb8657495020","172.251.28.21","Mozilla/5.0 (Windows NT 10.0; Win64; x64) AppleWebKit/537.36 (KHTML, like Gecko) Chrome/132.0.0.0 Safari/537.36","WebKit","Chrome","132.0.0.0","Windows","10.0","https://app.prolific.com/","en-US,en;q=0.9","664efd1322a0666254a51974","679edb085803f58d6bbd31ca","679ef3dd96d08f1e19688d09","","null","<img id='selected'   src='G_8.jpg' height='90'> <img id='selected'   src='G_4.jpg' height='90'> <img    src='G_7.jpg' height='90'> <img    src='G_5.jpg' height='90'> <img src='G_1.jpg' height='90'> <img src='G_2.jpg' height='90'> <img src='G_6.jpg' height='90'> <img src='G_3.jpg' height='90'>","null","Animation1","",""
"","","","","","html-keyboard-response","123","496362","0.0-69.0","40","1","2025-02-02 04:26:15","bc01a2b6f61d06f6604adb8657495020","172.251.28.21","Mozilla/5.0 (Windows NT 10.0; Win64; x64) AppleWebKit/537.36 (KHTML, like Gecko) Chrome/132.0.0.0 Safari/537.36","WebKit","Chrome","132.0.0.0","Windows","10.0","https://app.prolific.com/","en-US,en;q=0.9","664efd1322a0666254a51974","679edb085803f58d6bbd31ca","679ef3dd96d08f1e19688d09","","null","<img id='swapped'   src='G_4.jpg' height='90'> <img id='swapped'   src='G_8.jpg' height='90'> <img    src='G_7.jpg' height='90'> <img    src='G_5.jpg' height='90'> <img src='G_1.jpg' height='90'> <img src='G_2.jpg' height='90'> <img src='G_6.jpg' height='90'> <img src='G_3.jpg' height='90'>","null","Animation1","",""
"","","","","","html-keyboard-response","124","496675","0.0-70.0","40","1","2025-02-02 04:26:15","bc01a2b6f61d06f6604adb8657495020","172.251.28.21","Mozilla/5.0 (Windows NT 10.0; Win64; x64) AppleWebKit/537.36 (KHTML, like Gecko) Chrome/132.0.0.0 Safari/537.36","WebKit","Chrome","132.0.0.0","Windows","10.0","https://app.prolific.com/","en-US,en;q=0.9","664efd1322a0666254a51974","679edb085803f58d6bbd31ca","679ef3dd96d08f1e19688d09","","null","<img    src='G_4.jpg' height='90'> <img    src='G_8.jpg' height='90'> <img    src='G_7.jpg' height='90'> <img    src='G_5.jpg' height='90'> <img src='G_1.jpg' height='90'> <img src='G_2.jpg' height='90'> <img src='G_6.jpg' height='90'> <img src='G_3.jpg' height='90'>","null","Animation1","",""
"","","","","","html-keyboard-response","125","497191","0.0-71.0","40","1","2025-02-02 04:26:15","bc01a2b6f61d06f6604adb8657495020","172.251.28.21","Mozilla/5.0 (Windows NT 10.0; Win64; x64) AppleWebKit/537.36 (KHTML, like Gecko) Chrome/132.0.0.0 Safari/537.36","WebKit","Chrome","132.0.0.0","Windows","10.0","https://app.prolific.com/","en-US,en;q=0.9","664efd1322a0666254a51974","679edb085803f58d6bbd31ca","679ef3dd96d08f1e19688d09","","null","<img    src='G_4.jpg' height='90'> <img    src='G_8.jpg' height='90'> <img    src='G_7.jpg' height='90'> <img id='selected'    src='G_5.jpg' height='90'> <img src='G_1.jpg' height='90'> <img src='G_2.jpg' height='90'> <img src='G_6.jpg' height='90'> <img src='G_3.jpg' height='90'>","null","Animation1","",""
"","","","","","html-keyboard-response","126","497703","0.0-72.0","40","1","2025-02-02 04:26:15","bc01a2b6f61d06f6604adb8657495020","172.251.28.21","Mozilla/5.0 (Windows NT 10.0; Win64; x64) AppleWebKit/537.36 (KHTML, like Gecko) Chrome/132.0.0.0 Safari/537.36","WebKit","Chrome","132.0.0.0","Windows","10.0","https://app.prolific.com/","en-US,en;q=0.9","664efd1322a0666254a51974","679edb085803f58d6bbd31ca","679ef3dd96d08f1e19688d09","","null","<img    src='G_4.jpg' height='90'> <img    src='G_8.jpg' height='90'> <img    src='G_7.jpg' height='90'> <img id='selected'    src='G_5.jpg' height='90'> <img id='selected' src='G_1.jpg' height='90'> <img src='G_2.jpg' height='90'> <img src='G_6.jpg' height='90'> <img src='G_3.jpg' height='90'>","null","Animation1","",""
"","","","","","html-keyboard-response","127","498212","0.0-73.0","40","1","2025-02-02 04:26:15","bc01a2b6f61d06f6604adb8657495020","172.251.28.21","Mozilla/5.0 (Windows NT 10.0; Win64; x64) AppleWebKit/537.36 (KHTML, like Gecko) Chrome/132.0.0.0 Safari/537.36","WebKit","Chrome","132.0.0.0","Windows","10.0","https://app.prolific.com/","en-US,en;q=0.9","664efd1322a0666254a51974","679edb085803f58d6bbd31ca","679ef3dd96d08f1e19688d09","","null","<img    src='G_4.jpg' height='90'> <img    src='G_8.jpg' height='90'> <img    src='G_7.jpg' height='90'> <img id='swapped' src='G_1.jpg' height='90'> <img id='swapped'    src='G_5.jpg' height='90'> <img src='G_2.jpg' height='90'> <img src='G_6.jpg' height='90'> <img src='G_3.jpg' height='90'>","null","Animation1","",""
"","","","","","html-keyboard-response","128","498528","0.0-74.0","40","1","2025-02-02 04:26:15","bc01a2b6f61d06f6604adb8657495020","172.251.28.21","Mozilla/5.0 (Windows NT 10.0; Win64; x64) AppleWebKit/537.36 (KHTML, like Gecko) Chrome/132.0.0.0 Safari/537.36","WebKit","Chrome","132.0.0.0","Windows","10.0","https://app.prolific.com/","en-US,en;q=0.9","664efd1322a0666254a51974","679edb085803f58d6bbd31ca","679ef3dd96d08f1e19688d09","","null","<img    src='G_4.jpg' height='90'> <img    src='G_8.jpg' height='90'> <img    src='G_7.jpg' height='90'> <img  src='G_1.jpg' height='90'> <img     src='G_5.jpg' height='90'> <img src='G_2.jpg' height='90'> <img src='G_6.jpg' height='90'> <img src='G_3.jpg' height='90'>","null","Animation1","",""
"","","","","","html-keyboard-response","129","499040","0.0-75.0","40","1","2025-02-02 04:26:15","bc01a2b6f61d06f6604adb8657495020","172.251.28.21","Mozilla/5.0 (Windows NT 10.0; Win64; x64) AppleWebKit/537.36 (KHTML, like Gecko) Chrome/132.0.0.0 Safari/537.36","WebKit","Chrome","132.0.0.0","Windows","10.0","https://app.prolific.com/","en-US,en;q=0.9","664efd1322a0666254a51974","679edb085803f58d6bbd31ca","679ef3dd96d08f1e19688d09","","null","<img    src='G_4.jpg' height='90'> <img    src='G_8.jpg' height='90'> <img id='selected'    src='G_7.jpg' height='90'> <img  src='G_1.jpg' height='90'> <img     src='G_5.jpg' height='90'> <img src='G_2.jpg' height='90'> <img src='G_6.jpg' height='90'> <img src='G_3.jpg' height='90'>","null","Animation1","",""
"","","","","","html-keyboard-response","130","499555","0.0-76.0","40","1","2025-02-02 04:26:15","bc01a2b6f61d06f6604adb8657495020","172.251.28.21","Mozilla/5.0 (Windows NT 10.0; Win64; x64) AppleWebKit/537.36 (KHTML, like Gecko) Chrome/132.0.0.0 Safari/537.36","WebKit","Chrome","132.0.0.0","Windows","10.0","https://app.prolific.com/","en-US,en;q=0.9","664efd1322a0666254a51974","679edb085803f58d6bbd31ca","679ef3dd96d08f1e19688d09","","null","<img    src='G_4.jpg' height='90'> <img    src='G_8.jpg' height='90'> <img id='selected'    src='G_7.jpg' height='90'> <img id='selected'  src='G_1.jpg' height='90'> <img     src='G_5.jpg' height='90'> <img src='G_2.jpg' height='90'> <img src='G_6.jpg' height='90'> <img src='G_3.jpg' height='90'>","null","Animation1","",""
"","","","","","html-keyboard-response","131","500070","0.0-77.0","40","1","2025-02-02 04:26:15","bc01a2b6f61d06f6604adb8657495020","172.251.28.21","Mozilla/5.0 (Windows NT 10.0; Win64; x64) AppleWebKit/537.36 (KHTML, like Gecko) Chrome/132.0.0.0 Safari/537.36","WebKit","Chrome","132.0.0.0","Windows","10.0","https://app.prolific.com/","en-US,en;q=0.9","664efd1322a0666254a51974","679edb085803f58d6bbd31ca","679ef3dd96d08f1e19688d09","","null","<img    src='G_4.jpg' height='90'> <img    src='G_8.jpg' height='90'> <img id='swapped'  src='G_1.jpg' height='90'> <img id='swapped'    src='G_7.jpg' height='90'> <img     src='G_5.jpg' height='90'> <img src='G_2.jpg' height='90'> <img src='G_6.jpg' height='90'> <img src='G_3.jpg' height='90'>","null","Animation1","",""
"","","","","","html-keyboard-response","132","500379","0.0-78.0","40","1","2025-02-02 04:26:15","bc01a2b6f61d06f6604adb8657495020","172.251.28.21","Mozilla/5.0 (Windows NT 10.0; Win64; x64) AppleWebKit/537.36 (KHTML, like Gecko) Chrome/132.0.0.0 Safari/537.36","WebKit","Chrome","132.0.0.0","Windows","10.0","https://app.prolific.com/","en-US,en;q=0.9","664efd1322a0666254a51974","679edb085803f58d6bbd31ca","679ef3dd96d08f1e19688d09","","null","<img    src='G_4.jpg' height='90'> <img    src='G_8.jpg' height='90'> <img   src='G_1.jpg' height='90'> <img     src='G_7.jpg' height='90'> <img     src='G_5.jpg' height='90'> <img src='G_2.jpg' height='90'> <img src='G_6.jpg' height='90'> <img src='G_3.jpg' height='90'>","null","Animation1","",""
"","","","","","html-keyboard-response","133","500891","0.0-79.0","40","1","2025-02-02 04:26:15","bc01a2b6f61d06f6604adb8657495020","172.251.28.21","Mozilla/5.0 (Windows NT 10.0; Win64; x64) AppleWebKit/537.36 (KHTML, like Gecko) Chrome/132.0.0.0 Safari/537.36","WebKit","Chrome","132.0.0.0","Windows","10.0","https://app.prolific.com/","en-US,en;q=0.9","664efd1322a0666254a51974","679edb085803f58d6bbd31ca","679ef3dd96d08f1e19688d09","","null","<img    src='G_4.jpg' height='90'> <img id='selected'    src='G_8.jpg' height='90'> <img   src='G_1.jpg' height='90'> <img     src='G_7.jpg' height='90'> <img     src='G_5.jpg' height='90'> <img src='G_2.jpg' height='90'> <img src='G_6.jpg' height='90'> <img src='G_3.jpg' height='90'>","null","Animation1","",""
"","","","","","html-keyboard-response","134","501394","0.0-80.0","40","1","2025-02-02 04:26:15","bc01a2b6f61d06f6604adb8657495020","172.251.28.21","Mozilla/5.0 (Windows NT 10.0; Win64; x64) AppleWebKit/537.36 (KHTML, like Gecko) Chrome/132.0.0.0 Safari/537.36","WebKit","Chrome","132.0.0.0","Windows","10.0","https://app.prolific.com/","en-US,en;q=0.9","664efd1322a0666254a51974","679edb085803f58d6bbd31ca","679ef3dd96d08f1e19688d09","","null","<img    src='G_4.jpg' height='90'> <img id='selected'    src='G_8.jpg' height='90'> <img id='selected'   src='G_1.jpg' height='90'> <img     src='G_7.jpg' height='90'> <img     src='G_5.jpg' height='90'> <img src='G_2.jpg' height='90'> <img src='G_6.jpg' height='90'> <img src='G_3.jpg' height='90'>","null","Animation1","",""
"","","","","","html-keyboard-response","135","501906","0.0-81.0","40","1","2025-02-02 04:26:15","bc01a2b6f61d06f6604adb8657495020","172.251.28.21","Mozilla/5.0 (Windows NT 10.0; Win64; x64) AppleWebKit/537.36 (KHTML, like Gecko) Chrome/132.0.0.0 Safari/537.36","WebKit","Chrome","132.0.0.0","Windows","10.0","https://app.prolific.com/","en-US,en;q=0.9","664efd1322a0666254a51974","679edb085803f58d6bbd31ca","679ef3dd96d08f1e19688d09","","null","<img    src='G_4.jpg' height='90'> <img id='swapped'   src='G_1.jpg' height='90'> <img id='swapped'    src='G_8.jpg' height='90'> <img     src='G_7.jpg' height='90'> <img     src='G_5.jpg' height='90'> <img src='G_2.jpg' height='90'> <img src='G_6.jpg' height='90'> <img src='G_3.jpg' height='90'>","null","Animation1","",""
"","","","","","html-keyboard-response","136","502217","0.0-82.0","40","1","2025-02-02 04:26:15","bc01a2b6f61d06f6604adb8657495020","172.251.28.21","Mozilla/5.0 (Windows NT 10.0; Win64; x64) AppleWebKit/537.36 (KHTML, like Gecko) Chrome/132.0.0.0 Safari/537.36","WebKit","Chrome","132.0.0.0","Windows","10.0","https://app.prolific.com/","en-US,en;q=0.9","664efd1322a0666254a51974","679edb085803f58d6bbd31ca","679ef3dd96d08f1e19688d09","","null","<img    src='G_4.jpg' height='90'> <img    src='G_1.jpg' height='90'> <img     src='G_8.jpg' height='90'> <img     src='G_7.jpg' height='90'> <img     src='G_5.jpg' height='90'> <img src='G_2.jpg' height='90'> <img src='G_6.jpg' height='90'> <img src='G_3.jpg' height='90'>","null","Animation1","",""
"","","","","","html-keyboard-response","137","502732","0.0-83.0","40","1","2025-02-02 04:26:15","bc01a2b6f61d06f6604adb8657495020","172.251.28.21","Mozilla/5.0 (Windows NT 10.0; Win64; x64) AppleWebKit/537.36 (KHTML, like Gecko) Chrome/132.0.0.0 Safari/537.36","WebKit","Chrome","132.0.0.0","Windows","10.0","https://app.prolific.com/","en-US,en;q=0.9","664efd1322a0666254a51974","679edb085803f58d6bbd31ca","679ef3dd96d08f1e19688d09","","null","<img id='selected'    src='G_4.jpg' height='90'> <img    src='G_1.jpg' height='90'> <img     src='G_8.jpg' height='90'> <img     src='G_7.jpg' height='90'> <img     src='G_5.jpg' height='90'> <img src='G_2.jpg' height='90'> <img src='G_6.jpg' height='90'> <img src='G_3.jpg' height='90'>","null","Animation1","",""
"","","","","","html-keyboard-response","138","503247","0.0-84.0","40","1","2025-02-02 04:26:15","bc01a2b6f61d06f6604adb8657495020","172.251.28.21","Mozilla/5.0 (Windows NT 10.0; Win64; x64) AppleWebKit/537.36 (KHTML, like Gecko) Chrome/132.0.0.0 Safari/537.36","WebKit","Chrome","132.0.0.0","Windows","10.0","https://app.prolific.com/","en-US,en;q=0.9","664efd1322a0666254a51974","679edb085803f58d6bbd31ca","679ef3dd96d08f1e19688d09","","null","<img id='selected'    src='G_4.jpg' height='90'> <img id='selected'    src='G_1.jpg' height='90'> <img     src='G_8.jpg' height='90'> <img     src='G_7.jpg' height='90'> <img     src='G_5.jpg' height='90'> <img src='G_2.jpg' height='90'> <img src='G_6.jpg' height='90'> <img src='G_3.jpg' height='90'>","null","Animation1","",""
"","","","","","html-keyboard-response","139","503760","0.0-85.0","40","1","2025-02-02 04:26:15","bc01a2b6f61d06f6604adb8657495020","172.251.28.21","Mozilla/5.0 (Windows NT 10.0; Win64; x64) AppleWebKit/537.36 (KHTML, like Gecko) Chrome/132.0.0.0 Safari/537.36","WebKit","Chrome","132.0.0.0","Windows","10.0","https://app.prolific.com/","en-US,en;q=0.9","664efd1322a0666254a51974","679edb085803f58d6bbd31ca","679ef3dd96d08f1e19688d09","","null","<img id='selected'    src='G_4.jpg' height='90'> <img id='selected'    src='G_1.jpg' height='90'> <img     src='G_8.jpg' height='90'> <img     src='G_7.jpg' height='90'> <img     src='G_5.jpg' height='90'> <img src='G_2.jpg' height='90'> <img src='G_6.jpg' height='90'> <img src='G_3.jpg' height='90'>","null","Animation1","",""
"","","","","","html-keyboard-response","140","504071","0.0-86.0","40","1","2025-02-02 04:26:15","bc01a2b6f61d06f6604adb8657495020","172.251.28.21","Mozilla/5.0 (Windows NT 10.0; Win64; x64) AppleWebKit/537.36 (KHTML, like Gecko) Chrome/132.0.0.0 Safari/537.36","WebKit","Chrome","132.0.0.0","Windows","10.0","https://app.prolific.com/","en-US,en;q=0.9","664efd1322a0666254a51974","679edb085803f58d6bbd31ca","679ef3dd96d08f1e19688d09","","null","<img     src='G_4.jpg' height='90'> <img     src='G_1.jpg' height='90'> <img     src='G_8.jpg' height='90'> <img     src='G_7.jpg' height='90'> <img     src='G_5.jpg' height='90'> <img src='G_2.jpg' height='90'> <img src='G_6.jpg' height='90'> <img src='G_3.jpg' height='90'>","null","Animation1","",""
"","","","","","html-keyboard-response","141","504585","0.0-87.0","40","1","2025-02-02 04:26:15","bc01a2b6f61d06f6604adb8657495020","172.251.28.21","Mozilla/5.0 (Windows NT 10.0; Win64; x64) AppleWebKit/537.36 (KHTML, like Gecko) Chrome/132.0.0.0 Safari/537.36","WebKit","Chrome","132.0.0.0","Windows","10.0","https://app.prolific.com/","en-US,en;q=0.9","664efd1322a0666254a51974","679edb085803f58d6bbd31ca","679ef3dd96d08f1e19688d09","","null","<img     src='G_4.jpg' height='90'> <img     src='G_1.jpg' height='90'> <img     src='G_8.jpg' height='90'> <img     src='G_7.jpg' height='90'> <img id='selected'     src='G_5.jpg' height='90'> <img src='G_2.jpg' height='90'> <img src='G_6.jpg' height='90'> <img src='G_3.jpg' height='90'>","null","Animation1","",""
"","","","","","html-keyboard-response","142","505088","0.0-88.0","40","1","2025-02-02 04:26:15","bc01a2b6f61d06f6604adb8657495020","172.251.28.21","Mozilla/5.0 (Windows NT 10.0; Win64; x64) AppleWebKit/537.36 (KHTML, like Gecko) Chrome/132.0.0.0 Safari/537.36","WebKit","Chrome","132.0.0.0","Windows","10.0","https://app.prolific.com/","en-US,en;q=0.9","664efd1322a0666254a51974","679edb085803f58d6bbd31ca","679ef3dd96d08f1e19688d09","","null","<img     src='G_4.jpg' height='90'> <img     src='G_1.jpg' height='90'> <img     src='G_8.jpg' height='90'> <img     src='G_7.jpg' height='90'> <img id='selected'     src='G_5.jpg' height='90'> <img id='selected' src='G_2.jpg' height='90'> <img src='G_6.jpg' height='90'> <img src='G_3.jpg' height='90'>","null","Animation1","",""
"","","","","","html-keyboard-response","143","505593","0.0-89.0","40","1","2025-02-02 04:26:15","bc01a2b6f61d06f6604adb8657495020","172.251.28.21","Mozilla/5.0 (Windows NT 10.0; Win64; x64) AppleWebKit/537.36 (KHTML, like Gecko) Chrome/132.0.0.0 Safari/537.36","WebKit","Chrome","132.0.0.0","Windows","10.0","https://app.prolific.com/","en-US,en;q=0.9","664efd1322a0666254a51974","679edb085803f58d6bbd31ca","679ef3dd96d08f1e19688d09","","null","<img     src='G_4.jpg' height='90'> <img     src='G_1.jpg' height='90'> <img     src='G_8.jpg' height='90'> <img     src='G_7.jpg' height='90'> <img id='swapped' src='G_2.jpg' height='90'> <img id='swapped'     src='G_5.jpg' height='90'> <img src='G_6.jpg' height='90'> <img src='G_3.jpg' height='90'>","null","Animation1","",""
"","","","","","html-keyboard-response","144","505903","0.0-90.0","40","1","2025-02-02 04:26:15","bc01a2b6f61d06f6604adb8657495020","172.251.28.21","Mozilla/5.0 (Windows NT 10.0; Win64; x64) AppleWebKit/537.36 (KHTML, like Gecko) Chrome/132.0.0.0 Safari/537.36","WebKit","Chrome","132.0.0.0","Windows","10.0","https://app.prolific.com/","en-US,en;q=0.9","664efd1322a0666254a51974","679edb085803f58d6bbd31ca","679ef3dd96d08f1e19688d09","","null","<img     src='G_4.jpg' height='90'> <img     src='G_1.jpg' height='90'> <img     src='G_8.jpg' height='90'> <img     src='G_7.jpg' height='90'> <img  src='G_2.jpg' height='90'> <img      src='G_5.jpg' height='90'> <img src='G_6.jpg' height='90'> <img src='G_3.jpg' height='90'>","null","Animation1","",""
"","","","","","html-keyboard-response","145","506417","0.0-91.0","40","1","2025-02-02 04:26:15","bc01a2b6f61d06f6604adb8657495020","172.251.28.21","Mozilla/5.0 (Windows NT 10.0; Win64; x64) AppleWebKit/537.36 (KHTML, like Gecko) Chrome/132.0.0.0 Safari/537.36","WebKit","Chrome","132.0.0.0","Windows","10.0","https://app.prolific.com/","en-US,en;q=0.9","664efd1322a0666254a51974","679edb085803f58d6bbd31ca","679ef3dd96d08f1e19688d09","","null","<img     src='G_4.jpg' height='90'> <img     src='G_1.jpg' height='90'> <img     src='G_8.jpg' height='90'> <img id='selected'     src='G_7.jpg' height='90'> <img  src='G_2.jpg' height='90'> <img      src='G_5.jpg' height='90'> <img src='G_6.jpg' height='90'> <img src='G_3.jpg' height='90'>","null","Animation1","",""
"","","","","","html-keyboard-response","146","506927","0.0-92.0","40","1","2025-02-02 04:26:15","bc01a2b6f61d06f6604adb8657495020","172.251.28.21","Mozilla/5.0 (Windows NT 10.0; Win64; x64) AppleWebKit/537.36 (KHTML, like Gecko) Chrome/132.0.0.0 Safari/537.36","WebKit","Chrome","132.0.0.0","Windows","10.0","https://app.prolific.com/","en-US,en;q=0.9","664efd1322a0666254a51974","679edb085803f58d6bbd31ca","679ef3dd96d08f1e19688d09","","null","<img     src='G_4.jpg' height='90'> <img     src='G_1.jpg' height='90'> <img     src='G_8.jpg' height='90'> <img id='selected'     src='G_7.jpg' height='90'> <img id='selected'  src='G_2.jpg' height='90'> <img      src='G_5.jpg' height='90'> <img src='G_6.jpg' height='90'> <img src='G_3.jpg' height='90'>","null","Animation1","",""
"","","","","","html-keyboard-response","147","507441","0.0-93.0","40","1","2025-02-02 04:26:15","bc01a2b6f61d06f6604adb8657495020","172.251.28.21","Mozilla/5.0 (Windows NT 10.0; Win64; x64) AppleWebKit/537.36 (KHTML, like Gecko) Chrome/132.0.0.0 Safari/537.36","WebKit","Chrome","132.0.0.0","Windows","10.0","https://app.prolific.com/","en-US,en;q=0.9","664efd1322a0666254a51974","679edb085803f58d6bbd31ca","679ef3dd96d08f1e19688d09","","null","<img     src='G_4.jpg' height='90'> <img     src='G_1.jpg' height='90'> <img     src='G_8.jpg' height='90'> <img id='selected'     src='G_7.jpg' height='90'> <img id='selected'  src='G_2.jpg' height='90'> <img      src='G_5.jpg' height='90'> <img src='G_6.jpg' height='90'> <img src='G_3.jpg' height='90'>","null","Animation1","",""
"","","","","","html-keyboard-response","148","507753","0.0-94.0","40","1","2025-02-02 04:26:15","bc01a2b6f61d06f6604adb8657495020","172.251.28.21","Mozilla/5.0 (Windows NT 10.0; Win64; x64) AppleWebKit/537.36 (KHTML, like Gecko) Chrome/132.0.0.0 Safari/537.36","WebKit","Chrome","132.0.0.0","Windows","10.0","https://app.prolific.com/","en-US,en;q=0.9","664efd1322a0666254a51974","679edb085803f58d6bbd31ca","679ef3dd96d08f1e19688d09","","null","<img     src='G_4.jpg' height='90'> <img     src='G_1.jpg' height='90'> <img     src='G_8.jpg' height='90'> <img      src='G_7.jpg' height='90'> <img   src='G_2.jpg' height='90'> <img      src='G_5.jpg' height='90'> <img src='G_6.jpg' height='90'> <img src='G_3.jpg' height='90'>","null","Animation1","",""
"","","","","","html-keyboard-response","149","508269","0.0-95.0","40","1","2025-02-02 04:26:15","bc01a2b6f61d06f6604adb8657495020","172.251.28.21","Mozilla/5.0 (Windows NT 10.0; Win64; x64) AppleWebKit/537.36 (KHTML, like Gecko) Chrome/132.0.0.0 Safari/537.36","WebKit","Chrome","132.0.0.0","Windows","10.0","https://app.prolific.com/","en-US,en;q=0.9","664efd1322a0666254a51974","679edb085803f58d6bbd31ca","679ef3dd96d08f1e19688d09","","null","<img     src='G_4.jpg' height='90'> <img     src='G_1.jpg' height='90'> <img     src='G_8.jpg' height='90'> <img      src='G_7.jpg' height='90'> <img   src='G_2.jpg' height='90'> <img id='selected'      src='G_5.jpg' height='90'> <img src='G_6.jpg' height='90'> <img src='G_3.jpg' height='90'>","null","Animation1","",""
"","","","","","html-keyboard-response","150","508782","0.0-96.0","40","1","2025-02-02 04:26:15","bc01a2b6f61d06f6604adb8657495020","172.251.28.21","Mozilla/5.0 (Windows NT 10.0; Win64; x64) AppleWebKit/537.36 (KHTML, like Gecko) Chrome/132.0.0.0 Safari/537.36","WebKit","Chrome","132.0.0.0","Windows","10.0","https://app.prolific.com/","en-US,en;q=0.9","664efd1322a0666254a51974","679edb085803f58d6bbd31ca","679ef3dd96d08f1e19688d09","","null","<img     src='G_4.jpg' height='90'> <img     src='G_1.jpg' height='90'> <img     src='G_8.jpg' height='90'> <img      src='G_7.jpg' height='90'> <img   src='G_2.jpg' height='90'> <img id='selected'      src='G_5.jpg' height='90'> <img id='selected' src='G_6.jpg' height='90'> <img src='G_3.jpg' height='90'>","null","Animation1","",""
"","","","","","html-keyboard-response","151","509297","0.0-97.0","40","1","2025-02-02 04:26:15","bc01a2b6f61d06f6604adb8657495020","172.251.28.21","Mozilla/5.0 (Windows NT 10.0; Win64; x64) AppleWebKit/537.36 (KHTML, like Gecko) Chrome/132.0.0.0 Safari/537.36","WebKit","Chrome","132.0.0.0","Windows","10.0","https://app.prolific.com/","en-US,en;q=0.9","664efd1322a0666254a51974","679edb085803f58d6bbd31ca","679ef3dd96d08f1e19688d09","","null","<img     src='G_4.jpg' height='90'> <img     src='G_1.jpg' height='90'> <img     src='G_8.jpg' height='90'> <img      src='G_7.jpg' height='90'> <img   src='G_2.jpg' height='90'> <img id='selected'      src='G_5.jpg' height='90'> <img id='selected' src='G_6.jpg' height='90'> <img src='G_3.jpg' height='90'>","null","Animation1","",""
"","","","","","html-keyboard-response","152","509606","0.0-98.0","40","1","2025-02-02 04:26:15","bc01a2b6f61d06f6604adb8657495020","172.251.28.21","Mozilla/5.0 (Windows NT 10.0; Win64; x64) AppleWebKit/537.36 (KHTML, like Gecko) Chrome/132.0.0.0 Safari/537.36","WebKit","Chrome","132.0.0.0","Windows","10.0","https://app.prolific.com/","en-US,en;q=0.9","664efd1322a0666254a51974","679edb085803f58d6bbd31ca","679ef3dd96d08f1e19688d09","","null","<img     src='G_4.jpg' height='90'> <img     src='G_1.jpg' height='90'> <img     src='G_8.jpg' height='90'> <img      src='G_7.jpg' height='90'> <img   src='G_2.jpg' height='90'> <img       src='G_5.jpg' height='90'> <img  src='G_6.jpg' height='90'> <img src='G_3.jpg' height='90'>","null","Animation1","",""
"","","","","","html-keyboard-response","153","510119","0.0-99.0","40","1","2025-02-02 04:26:15","bc01a2b6f61d06f6604adb8657495020","172.251.28.21","Mozilla/5.0 (Windows NT 10.0; Win64; x64) AppleWebKit/537.36 (KHTML, like Gecko) Chrome/132.0.0.0 Safari/537.36","WebKit","Chrome","132.0.0.0","Windows","10.0","https://app.prolific.com/","en-US,en;q=0.9","664efd1322a0666254a51974","679edb085803f58d6bbd31ca","679ef3dd96d08f1e19688d09","","null","<img     src='G_4.jpg' height='90'> <img     src='G_1.jpg' height='90'> <img     src='G_8.jpg' height='90'> <img      src='G_7.jpg' height='90'> <img   src='G_2.jpg' height='90'> <img       src='G_5.jpg' height='90'> <img id='selected'  src='G_6.jpg' height='90'> <img src='G_3.jpg' height='90'>","null","Animation1","",""
"","","","","","html-keyboard-response","154","510631","0.0-100.0","40","1","2025-02-02 04:26:15","bc01a2b6f61d06f6604adb8657495020","172.251.28.21","Mozilla/5.0 (Windows NT 10.0; Win64; x64) AppleWebKit/537.36 (KHTML, like Gecko) Chrome/132.0.0.0 Safari/537.36","WebKit","Chrome","132.0.0.0","Windows","10.0","https://app.prolific.com/","en-US,en;q=0.9","664efd1322a0666254a51974","679edb085803f58d6bbd31ca","679ef3dd96d08f1e19688d09","","null","<img     src='G_4.jpg' height='90'> <img     src='G_1.jpg' height='90'> <img     src='G_8.jpg' height='90'> <img      src='G_7.jpg' height='90'> <img   src='G_2.jpg' height='90'> <img       src='G_5.jpg' height='90'> <img id='selected'  src='G_6.jpg' height='90'> <img id='selected' src='G_3.jpg' height='90'>","null","Animation1","",""
"","","","","","html-keyboard-response","155","511147","0.0-101.0","40","1","2025-02-02 04:26:15","bc01a2b6f61d06f6604adb8657495020","172.251.28.21","Mozilla/5.0 (Windows NT 10.0; Win64; x64) AppleWebKit/537.36 (KHTML, like Gecko) Chrome/132.0.0.0 Safari/537.36","WebKit","Chrome","132.0.0.0","Windows","10.0","https://app.prolific.com/","en-US,en;q=0.9","664efd1322a0666254a51974","679edb085803f58d6bbd31ca","679ef3dd96d08f1e19688d09","","null","<img     src='G_4.jpg' height='90'> <img     src='G_1.jpg' height='90'> <img     src='G_8.jpg' height='90'> <img      src='G_7.jpg' height='90'> <img   src='G_2.jpg' height='90'> <img       src='G_5.jpg' height='90'> <img id='swapped' src='G_3.jpg' height='90'> <img id='swapped'  src='G_6.jpg' height='90'>","null","Animation1","",""
"","","","","","html-keyboard-response","156","511456","0.0-102.0","40","1","2025-02-02 04:26:15","bc01a2b6f61d06f6604adb8657495020","172.251.28.21","Mozilla/5.0 (Windows NT 10.0; Win64; x64) AppleWebKit/537.36 (KHTML, like Gecko) Chrome/132.0.0.0 Safari/537.36","WebKit","Chrome","132.0.0.0","Windows","10.0","https://app.prolific.com/","en-US,en;q=0.9","664efd1322a0666254a51974","679edb085803f58d6bbd31ca","679ef3dd96d08f1e19688d09","","null","<img     src='G_4.jpg' height='90'> <img     src='G_1.jpg' height='90'> <img     src='G_8.jpg' height='90'> <img      src='G_7.jpg' height='90'> <img   src='G_2.jpg' height='90'> <img       src='G_5.jpg' height='90'> <img  src='G_3.jpg' height='90'> <img   src='G_6.jpg' height='90'>","null","Animation1","",""
