"success","timeout","failed_images","failed_audio","failed_video","trial_type","trial_index","time_elapsed","internal_node_id","run_id","condition","recorded_at","source_code_version","ip","user_agent","device","browser","browser_version","platform","platform_version","referer","accept_language","PROLIFIC_PID","STUDY_ID","SESSION_ID","view_history","rt","stimulus","response","phase","question_order","presented_choices"
"true","false","[]","[]","[]","preload","0","236","0.0-0.0","41","1","2025-02-02 04:32:08","bc01a2b6f61d06f6604adb8657495020","45.36.18.87","Mozilla/5.0 (Macintosh; Intel Mac OS X 10_15_7) AppleWebKit/537.36 (KHTML, like Gecko) Chrome/132.0.0.0 Safari/537.36","Macintosh","Chrome","132.0.0.0","OS X","10_15_7","https://app.prolific.com/","en-US,en;q=0.9","671d44c91d7089c757cf3a7e","679edb085803f58d6bbd31ca","679ef545c59970ffbed5e471","","","","","","",""
"","","","","","instructions","1","2624","0.0-1.0","41","1","2025-02-02 04:32:08","bc01a2b6f61d06f6604adb8657495020","45.36.18.87","Mozilla/5.0 (Macintosh; Intel Mac OS X 10_15_7) AppleWebKit/537.36 (KHTML, like Gecko) Chrome/132.0.0.0 Safari/537.36","Macintosh","Chrome","132.0.0.0","OS X","10_15_7","https://app.prolific.com/","en-US,en;q=0.9","671d44c91d7089c757cf3a7e","679edb085803f58d6bbd31ca","679ef545c59970ffbed5e471","[{""page_index"":0,""viewing_time"":2384}]","2385","","","","",""
"","","","","","html-keyboard-response","2","3128","0.0-2.0","41","1","2025-02-02 04:32:08","bc01a2b6f61d06f6604adb8657495020","45.36.18.87","Mozilla/5.0 (Macintosh; Intel Mac OS X 10_15_7) AppleWebKit/537.36 (KHTML, like Gecko) Chrome/132.0.0.0 Safari/537.36","Macintosh","Chrome","132.0.0.0","OS X","10_15_7","https://app.prolific.com/","en-US,en;q=0.9","671d44c91d7089c757cf3a7e","679edb085803f58d6bbd31ca","679ef545c59970ffbed5e471","","null","<p> + <p/>","null","","",""
"","","","","","instructions","3","23178","0.0-3.0","41","1","2025-02-02 04:32:08","bc01a2b6f61d06f6604adb8657495020","45.36.18.87","Mozilla/5.0 (Macintosh; Intel Mac OS X 10_15_7) AppleWebKit/537.36 (KHTML, like Gecko) Chrome/132.0.0.0 Safari/537.36","Macintosh","Chrome","132.0.0.0","OS X","10_15_7","https://app.prolific.com/","en-US,en;q=0.9","671d44c91d7089c757cf3a7e","679edb085803f58d6bbd31ca","679ef545c59970ffbed5e471","[{""page_index"":0,""viewing_time"":5625},{""page_index"":1,""viewing_time"":4154},{""page_index"":2,""viewing_time"":4205},{""page_index"":3,""viewing_time"":2867},{""page_index"":4,""viewing_time"":3199}]","20048","","","","",""
"","","","","","html-button-response","4","27027","0.0-4.0-0.0-0.0","41","1","2025-02-02 04:32:08","bc01a2b6f61d06f6604adb8657495020","45.36.18.87","Mozilla/5.0 (Macintosh; Intel Mac OS X 10_15_7) AppleWebKit/537.36 (KHTML, like Gecko) Chrome/132.0.0.0 Safari/537.36","Macintosh","Chrome","132.0.0.0","OS X","10_15_7","https://app.prolific.com/","en-US,en;q=0.9","671d44c91d7089c757cf3a7e","679edb085803f58d6bbd31ca","679ef545c59970ffbed5e471","","3845","","4","Intro Trial","",""
"","","","","","html-button-response","5","31411","0.0-4.1-0.1-0.1","41","1","2025-02-02 04:32:08","bc01a2b6f61d06f6604adb8657495020","45.36.18.87","Mozilla/5.0 (Macintosh; Intel Mac OS X 10_15_7) AppleWebKit/537.36 (KHTML, like Gecko) Chrome/132.0.0.0 Safari/537.36","Macintosh","Chrome","132.0.0.0","OS X","10_15_7","https://app.prolific.com/","en-US,en;q=0.9","671d44c91d7089c757cf3a7e","679edb085803f58d6bbd31ca","679ef545c59970ffbed5e471","","4380","","4","Intro Trial","",""
"","","","","","html-button-response","6","32094","0.0-4.2-0.2-0.2","41","1","2025-02-02 04:32:08","bc01a2b6f61d06f6604adb8657495020","45.36.18.87","Mozilla/5.0 (Macintosh; Intel Mac OS X 10_15_7) AppleWebKit/537.36 (KHTML, like Gecko) Chrome/132.0.0.0 Safari/537.36","Macintosh","Chrome","132.0.0.0","OS X","10_15_7","https://app.prolific.com/","en-US,en;q=0.9","671d44c91d7089c757cf3a7e","679edb085803f58d6bbd31ca","679ef545c59970ffbed5e471","","680","","4","Intro Trial","",""
"","","","","","html-button-response","7","34328","0.0-4.3-0.3-0.3","41","1","2025-02-02 04:32:08","bc01a2b6f61d06f6604adb8657495020","45.36.18.87","Mozilla/5.0 (Macintosh; Intel Mac OS X 10_15_7) AppleWebKit/537.36 (KHTML, like Gecko) Chrome/132.0.0.0 Safari/537.36","Macintosh","Chrome","132.0.0.0","OS X","10_15_7","https://app.prolific.com/","en-US,en;q=0.9","671d44c91d7089c757cf3a7e","679edb085803f58d6bbd31ca","679ef545c59970ffbed5e471","","2230","","0","Intro Trial","",""
"","","","","","html-button-response","8","35328","0.0-4.4-0.4-0.4","41","1","2025-02-02 04:32:08","bc01a2b6f61d06f6604adb8657495020","45.36.18.87","Mozilla/5.0 (Macintosh; Intel Mac OS X 10_15_7) AppleWebKit/537.36 (KHTML, like Gecko) Chrome/132.0.0.0 Safari/537.36","Macintosh","Chrome","132.0.0.0","OS X","10_15_7","https://app.prolific.com/","en-US,en;q=0.9","671d44c91d7089c757cf3a7e","679edb085803f58d6bbd31ca","679ef545c59970ffbed5e471","","997","","1","Intro Trial","",""
"","","","","","html-button-response","9","35910","0.0-4.5-0.5-0.5","41","1","2025-02-02 04:32:08","bc01a2b6f61d06f6604adb8657495020","45.36.18.87","Mozilla/5.0 (Macintosh; Intel Mac OS X 10_15_7) AppleWebKit/537.36 (KHTML, like Gecko) Chrome/132.0.0.0 Safari/537.36","Macintosh","Chrome","132.0.0.0","OS X","10_15_7","https://app.prolific.com/","en-US,en;q=0.9","671d44c91d7089c757cf3a7e","679edb085803f58d6bbd31ca","679ef545c59970ffbed5e471","","580","","0","Intro Trial","",""
"","","","","","html-button-response","10","36560","0.0-4.6-0.6-0.6","41","1","2025-02-02 04:32:08","bc01a2b6f61d06f6604adb8657495020","45.36.18.87","Mozilla/5.0 (Macintosh; Intel Mac OS X 10_15_7) AppleWebKit/537.36 (KHTML, like Gecko) Chrome/132.0.0.0 Safari/537.36","Macintosh","Chrome","132.0.0.0","OS X","10_15_7","https://app.prolific.com/","en-US,en;q=0.9","671d44c91d7089c757cf3a7e","679edb085803f58d6bbd31ca","679ef545c59970ffbed5e471","","646","","1","Intro Trial","",""
"","","","","","html-button-response","11","36977","0.0-4.7-0.7-0.7","41","1","2025-02-02 04:32:08","bc01a2b6f61d06f6604adb8657495020","45.36.18.87","Mozilla/5.0 (Macintosh; Intel Mac OS X 10_15_7) AppleWebKit/537.36 (KHTML, like Gecko) Chrome/132.0.0.0 Safari/537.36","Macintosh","Chrome","132.0.0.0","OS X","10_15_7","https://app.prolific.com/","en-US,en;q=0.9","671d44c91d7089c757cf3a7e","679edb085803f58d6bbd31ca","679ef545c59970ffbed5e471","","414","","0","Intro Trial","",""
"","","","","","html-button-response","12","37561","0.0-4.8-0.8-0.8","41","1","2025-02-02 04:32:08","bc01a2b6f61d06f6604adb8657495020","45.36.18.87","Mozilla/5.0 (Macintosh; Intel Mac OS X 10_15_7) AppleWebKit/537.36 (KHTML, like Gecko) Chrome/132.0.0.0 Safari/537.36","Macintosh","Chrome","132.0.0.0","OS X","10_15_7","https://app.prolific.com/","en-US,en;q=0.9","671d44c91d7089c757cf3a7e","679edb085803f58d6bbd31ca","679ef545c59970ffbed5e471","","581","","1","Intro Trial","",""
"","","","","","html-button-response","13","37944","0.0-4.9-0.9-0.9","41","1","2025-02-02 04:32:08","bc01a2b6f61d06f6604adb8657495020","45.36.18.87","Mozilla/5.0 (Macintosh; Intel Mac OS X 10_15_7) AppleWebKit/537.36 (KHTML, like Gecko) Chrome/132.0.0.0 Safari/537.36","Macintosh","Chrome","132.0.0.0","OS X","10_15_7","https://app.prolific.com/","en-US,en;q=0.9","671d44c91d7089c757cf3a7e","679edb085803f58d6bbd31ca","679ef545c59970ffbed5e471","","380","","2","Intro Trial","",""
"","","","","","html-button-response","14","38543","0.0-4.10-0.10-0.10","41","1","2025-02-02 04:32:08","bc01a2b6f61d06f6604adb8657495020","45.36.18.87","Mozilla/5.0 (Macintosh; Intel Mac OS X 10_15_7) AppleWebKit/537.36 (KHTML, like Gecko) Chrome/132.0.0.0 Safari/537.36","Macintosh","Chrome","132.0.0.0","OS X","10_15_7","https://app.prolific.com/","en-US,en;q=0.9","671d44c91d7089c757cf3a7e","679edb085803f58d6bbd31ca","679ef545c59970ffbed5e471","","596","","1","Intro Trial","",""
"","","","","","html-button-response","15","39328","0.0-4.11-0.11-0.11","41","1","2025-02-02 04:32:08","bc01a2b6f61d06f6604adb8657495020","45.36.18.87","Mozilla/5.0 (Macintosh; Intel Mac OS X 10_15_7) AppleWebKit/537.36 (KHTML, like Gecko) Chrome/132.0.0.0 Safari/537.36","Macintosh","Chrome","132.0.0.0","OS X","10_15_7","https://app.prolific.com/","en-US,en;q=0.9","671d44c91d7089c757cf3a7e","679edb085803f58d6bbd31ca","679ef545c59970ffbed5e471","","783","","4","Intro Trial","",""
"","","","","","html-button-response","16","40161","0.0-4.12-0.12-0.12","41","1","2025-02-02 04:32:08","bc01a2b6f61d06f6604adb8657495020","45.36.18.87","Mozilla/5.0 (Macintosh; Intel Mac OS X 10_15_7) AppleWebKit/537.36 (KHTML, like Gecko) Chrome/132.0.0.0 Safari/537.36","Macintosh","Chrome","132.0.0.0","OS X","10_15_7","https://app.prolific.com/","en-US,en;q=0.9","671d44c91d7089c757cf3a7e","679edb085803f58d6bbd31ca","679ef545c59970ffbed5e471","","829","","4","Intro Trial","",""
"","","","","","html-button-response","17","40711","0.0-4.13-0.13-0.13","41","1","2025-02-02 04:32:08","bc01a2b6f61d06f6604adb8657495020","45.36.18.87","Mozilla/5.0 (Macintosh; Intel Mac OS X 10_15_7) AppleWebKit/537.36 (KHTML, like Gecko) Chrome/132.0.0.0 Safari/537.36","Macintosh","Chrome","132.0.0.0","OS X","10_15_7","https://app.prolific.com/","en-US,en;q=0.9","671d44c91d7089c757cf3a7e","679edb085803f58d6bbd31ca","679ef545c59970ffbed5e471","","547","","1","Intro Trial","",""
"","","","","","html-button-response","18","41545","0.0-4.14-0.14-0.14","41","1","2025-02-02 04:32:08","bc01a2b6f61d06f6604adb8657495020","45.36.18.87","Mozilla/5.0 (Macintosh; Intel Mac OS X 10_15_7) AppleWebKit/537.36 (KHTML, like Gecko) Chrome/132.0.0.0 Safari/537.36","Macintosh","Chrome","132.0.0.0","OS X","10_15_7","https://app.prolific.com/","en-US,en;q=0.9","671d44c91d7089c757cf3a7e","679edb085803f58d6bbd31ca","679ef545c59970ffbed5e471","","830","","0","Intro Trial","",""
"","","","","","html-button-response","19","42177","0.0-4.15-0.15-0.15","41","1","2025-02-02 04:32:08","bc01a2b6f61d06f6604adb8657495020","45.36.18.87","Mozilla/5.0 (Macintosh; Intel Mac OS X 10_15_7) AppleWebKit/537.36 (KHTML, like Gecko) Chrome/132.0.0.0 Safari/537.36","Macintosh","Chrome","132.0.0.0","OS X","10_15_7","https://app.prolific.com/","en-US,en;q=0.9","671d44c91d7089c757cf3a7e","679edb085803f58d6bbd31ca","679ef545c59970ffbed5e471","","629","","4","Intro Trial","",""
"","","","","","html-button-response","20","42944","0.0-4.16-0.16-0.16","41","1","2025-02-02 04:32:08","bc01a2b6f61d06f6604adb8657495020","45.36.18.87","Mozilla/5.0 (Macintosh; Intel Mac OS X 10_15_7) AppleWebKit/537.36 (KHTML, like Gecko) Chrome/132.0.0.0 Safari/537.36","Macintosh","Chrome","132.0.0.0","OS X","10_15_7","https://app.prolific.com/","en-US,en;q=0.9","671d44c91d7089c757cf3a7e","679edb085803f58d6bbd31ca","679ef545c59970ffbed5e471","","764","","0","Intro Trial","",""
"","","","","","html-button-response","21","43494","0.0-4.17-0.17-0.17","41","1","2025-02-02 04:32:08","bc01a2b6f61d06f6604adb8657495020","45.36.18.87","Mozilla/5.0 (Macintosh; Intel Mac OS X 10_15_7) AppleWebKit/537.36 (KHTML, like Gecko) Chrome/132.0.0.0 Safari/537.36","Macintosh","Chrome","132.0.0.0","OS X","10_15_7","https://app.prolific.com/","en-US,en;q=0.9","671d44c91d7089c757cf3a7e","679edb085803f58d6bbd31ca","679ef545c59970ffbed5e471","","547","","3","Intro Trial","",""
"","","","","","html-button-response","22","43996","0.0-4.18-0.18-0.18","41","1","2025-02-02 04:32:08","bc01a2b6f61d06f6604adb8657495020","45.36.18.87","Mozilla/5.0 (Macintosh; Intel Mac OS X 10_15_7) AppleWebKit/537.36 (KHTML, like Gecko) Chrome/132.0.0.0 Safari/537.36","Macintosh","Chrome","132.0.0.0","OS X","10_15_7","https://app.prolific.com/","en-US,en;q=0.9","671d44c91d7089c757cf3a7e","679edb085803f58d6bbd31ca","679ef545c59970ffbed5e471","","499","","2","Intro Trial","",""
"","","","","","html-button-response","23","44378","0.0-4.19-0.19-0.19","41","1","2025-02-02 04:32:08","bc01a2b6f61d06f6604adb8657495020","45.36.18.87","Mozilla/5.0 (Macintosh; Intel Mac OS X 10_15_7) AppleWebKit/537.36 (KHTML, like Gecko) Chrome/132.0.0.0 Safari/537.36","Macintosh","Chrome","132.0.0.0","OS X","10_15_7","https://app.prolific.com/","en-US,en;q=0.9","671d44c91d7089c757cf3a7e","679edb085803f58d6bbd31ca","679ef545c59970ffbed5e471","","379","","1","Intro Trial","",""
"","","","","","html-button-response","24","47561","0.0-4.20-0.20-0.20","41","1","2025-02-02 04:32:08","bc01a2b6f61d06f6604adb8657495020","45.36.18.87","Mozilla/5.0 (Macintosh; Intel Mac OS X 10_15_7) AppleWebKit/537.36 (KHTML, like Gecko) Chrome/132.0.0.0 Safari/537.36","Macintosh","Chrome","132.0.0.0","OS X","10_15_7","https://app.prolific.com/","en-US,en;q=0.9","671d44c91d7089c757cf3a7e","679edb085803f58d6bbd31ca","679ef545c59970ffbed5e471","","3181","","0","Intro Trial","",""
"","","","","","html-button-response","25","47745","0.0-4.21-0.21-0.21","41","1","2025-02-02 04:32:08","bc01a2b6f61d06f6604adb8657495020","45.36.18.87","Mozilla/5.0 (Macintosh; Intel Mac OS X 10_15_7) AppleWebKit/537.36 (KHTML, like Gecko) Chrome/132.0.0.0 Safari/537.36","Macintosh","Chrome","132.0.0.0","OS X","10_15_7","https://app.prolific.com/","en-US,en;q=0.9","671d44c91d7089c757cf3a7e","679edb085803f58d6bbd31ca","679ef545c59970ffbed5e471","","180","","0","Intro Trial","",""
"","","","","","html-button-response","26","48379","0.0-4.22-0.22-0.22","41","1","2025-02-02 04:32:08","bc01a2b6f61d06f6604adb8657495020","45.36.18.87","Mozilla/5.0 (Macintosh; Intel Mac OS X 10_15_7) AppleWebKit/537.36 (KHTML, like Gecko) Chrome/132.0.0.0 Safari/537.36","Macintosh","Chrome","132.0.0.0","OS X","10_15_7","https://app.prolific.com/","en-US,en;q=0.9","671d44c91d7089c757cf3a7e","679edb085803f58d6bbd31ca","679ef545c59970ffbed5e471","","631","","0","Intro Trial","",""
"","","","","","html-button-response","27","48545","0.0-4.23-0.23-0.23","41","1","2025-02-02 04:32:08","bc01a2b6f61d06f6604adb8657495020","45.36.18.87","Mozilla/5.0 (Macintosh; Intel Mac OS X 10_15_7) AppleWebKit/537.36 (KHTML, like Gecko) Chrome/132.0.0.0 Safari/537.36","Macintosh","Chrome","132.0.0.0","OS X","10_15_7","https://app.prolific.com/","en-US,en;q=0.9","671d44c91d7089c757cf3a7e","679edb085803f58d6bbd31ca","679ef545c59970ffbed5e471","","164","","0","Intro Trial","",""
"","","","","","html-button-response","28","49179","0.0-4.24-0.24-0.24","41","1","2025-02-02 04:32:08","bc01a2b6f61d06f6604adb8657495020","45.36.18.87","Mozilla/5.0 (Macintosh; Intel Mac OS X 10_15_7) AppleWebKit/537.36 (KHTML, like Gecko) Chrome/132.0.0.0 Safari/537.36","Macintosh","Chrome","132.0.0.0","OS X","10_15_7","https://app.prolific.com/","en-US,en;q=0.9","671d44c91d7089c757cf3a7e","679edb085803f58d6bbd31ca","679ef545c59970ffbed5e471","","630","","1","Intro Trial","",""
"","","","","","html-button-response","29","49678","0.0-4.25-0.25-0.25","41","1","2025-02-02 04:32:08","bc01a2b6f61d06f6604adb8657495020","45.36.18.87","Mozilla/5.0 (Macintosh; Intel Mac OS X 10_15_7) AppleWebKit/537.36 (KHTML, like Gecko) Chrome/132.0.0.0 Safari/537.36","Macintosh","Chrome","132.0.0.0","OS X","10_15_7","https://app.prolific.com/","en-US,en;q=0.9","671d44c91d7089c757cf3a7e","679edb085803f58d6bbd31ca","679ef545c59970ffbed5e471","","496","","0","Intro Trial","",""
"","","","","","html-button-response","30","50112","0.0-4.26-0.26-0.26","41","1","2025-02-02 04:32:08","bc01a2b6f61d06f6604adb8657495020","45.36.18.87","Mozilla/5.0 (Macintosh; Intel Mac OS X 10_15_7) AppleWebKit/537.36 (KHTML, like Gecko) Chrome/132.0.0.0 Safari/537.36","Macintosh","Chrome","132.0.0.0","OS X","10_15_7","https://app.prolific.com/","en-US,en;q=0.9","671d44c91d7089c757cf3a7e","679edb085803f58d6bbd31ca","679ef545c59970ffbed5e471","","430","","0","Intro Trial","",""
"","","","","","html-button-response","31","51045","0.0-4.27-0.27-0.27","41","1","2025-02-02 04:32:08","bc01a2b6f61d06f6604adb8657495020","45.36.18.87","Mozilla/5.0 (Macintosh; Intel Mac OS X 10_15_7) AppleWebKit/537.36 (KHTML, like Gecko) Chrome/132.0.0.0 Safari/537.36","Macintosh","Chrome","132.0.0.0","OS X","10_15_7","https://app.prolific.com/","en-US,en;q=0.9","671d44c91d7089c757cf3a7e","679edb085803f58d6bbd31ca","679ef545c59970ffbed5e471","","930","","4","Intro Trial","",""
"","","","","","html-button-response","32","52012","0.0-4.28-0.28-0.28","41","1","2025-02-02 04:32:08","bc01a2b6f61d06f6604adb8657495020","45.36.18.87","Mozilla/5.0 (Macintosh; Intel Mac OS X 10_15_7) AppleWebKit/537.36 (KHTML, like Gecko) Chrome/132.0.0.0 Safari/537.36","Macintosh","Chrome","132.0.0.0","OS X","10_15_7","https://app.prolific.com/","en-US,en;q=0.9","671d44c91d7089c757cf3a7e","679edb085803f58d6bbd31ca","679ef545c59970ffbed5e471","","963","","5","Intro Trial","",""
"","","","","","html-keyboard-response","33","58299","0.0-5.0","41","1","2025-02-02 04:32:08","bc01a2b6f61d06f6604adb8657495020","45.36.18.87","Mozilla/5.0 (Macintosh; Intel Mac OS X 10_15_7) AppleWebKit/537.36 (KHTML, like Gecko) Chrome/132.0.0.0 Safari/537.36","Macintosh","Chrome","132.0.0.0","OS X","10_15_7","https://app.prolific.com/","en-US,en;q=0.9","671d44c91d7089c757cf3a7e","679edb085803f58d6bbd31ca","679ef545c59970ffbed5e471","","6284","[""You sorted incorrectly by using the balance 11 times. <br><br> <img src='G_5.jpg' height='90'><img src='G_2.jpg' height='90'><img src='G_3.jpg' height='90'><img src='G_4.jpg' height='90'><img src='G_1.jpg' height='90'><br><br> Your final order is 1,2,3,5,4<br><br><br>Omgne Sort in this game will allow you to sort correctly by using the balance 8 times. Press Enter to learn it!""]","enter","","",""
"","","","","","html-keyboard-response","34","60236","0.0-6.0","41","1","2025-02-02 04:32:08","bc01a2b6f61d06f6604adb8657495020","45.36.18.87","Mozilla/5.0 (Macintosh; Intel Mac OS X 10_15_7) AppleWebKit/537.36 (KHTML, like Gecko) Chrome/132.0.0.0 Safari/537.36","Macintosh","Chrome","132.0.0.0","OS X","10_15_7","https://app.prolific.com/","en-US,en;q=0.9","671d44c91d7089c757cf3a7e","679edb085803f58d6bbd31ca","679ef545c59970ffbed5e471","","1934","<p>Welcome to the learning phase! <br><br> You will learn by six examples. The following learning trials will not be used to calculate your performance. <br><br> Press Enter to continue.<p/>","enter","","",""
"","","","","","html-keyboard-response","35","61729","0.0-7.0","41","1","2025-02-02 04:32:08","bc01a2b6f61d06f6604adb8657495020","45.36.18.87","Mozilla/5.0 (Macintosh; Intel Mac OS X 10_15_7) AppleWebKit/537.36 (KHTML, like Gecko) Chrome/132.0.0.0 Safari/537.36","Macintosh","Chrome","132.0.0.0","OS X","10_15_7","https://app.prolific.com/","en-US,en;q=0.9","671d44c91d7089c757cf3a7e","679edb085803f58d6bbd31ca","679ef545c59970ffbed5e471","","1492","[""Example 1<br><br>You will watch Omnge Sort in action. Try to identify any patterns in the comparisons made by this method. <br><br>Press Enter to continue.""]","enter","","",""
"","","","","","html-keyboard-response","36","62232","0.0-8.0","41","1","2025-02-02 04:32:08","bc01a2b6f61d06f6604adb8657495020","45.36.18.87","Mozilla/5.0 (Macintosh; Intel Mac OS X 10_15_7) AppleWebKit/537.36 (KHTML, like Gecko) Chrome/132.0.0.0 Safari/537.36","Macintosh","Chrome","132.0.0.0","OS X","10_15_7","https://app.prolific.com/","en-US,en;q=0.9","671d44c91d7089c757cf3a7e","679edb085803f58d6bbd31ca","679ef545c59970ffbed5e471","","null","<img id='selected' src='G_3.jpg' height='90'> <img src='G_7.jpg' height='90'> <img src='G_9.jpg' height='90'> <img src='G_5.jpg' height='90'> <img src='G_1.jpg' height='90'>","null","Animation0","",""
"","","","","","html-keyboard-response","37","62736","0.0-9.0","41","1","2025-02-02 04:32:08","bc01a2b6f61d06f6604adb8657495020","45.36.18.87","Mozilla/5.0 (Macintosh; Intel Mac OS X 10_15_7) AppleWebKit/537.36 (KHTML, like Gecko) Chrome/132.0.0.0 Safari/537.36","Macintosh","Chrome","132.0.0.0","OS X","10_15_7","https://app.prolific.com/","en-US,en;q=0.9","671d44c91d7089c757cf3a7e","679edb085803f58d6bbd31ca","679ef545c59970ffbed5e471","","null","<img id='selected' src='G_3.jpg' height='90'> <img id='selected' src='G_7.jpg' height='90'> <img src='G_9.jpg' height='90'> <img src='G_5.jpg' height='90'> <img src='G_1.jpg' height='90'>","null","Animation0","",""
"","","","","","html-keyboard-response","38","63239","0.0-10.0","41","1","2025-02-02 04:32:08","bc01a2b6f61d06f6604adb8657495020","45.36.18.87","Mozilla/5.0 (Macintosh; Intel Mac OS X 10_15_7) AppleWebKit/537.36 (KHTML, like Gecko) Chrome/132.0.0.0 Safari/537.36","Macintosh","Chrome","132.0.0.0","OS X","10_15_7","https://app.prolific.com/","en-US,en;q=0.9","671d44c91d7089c757cf3a7e","679edb085803f58d6bbd31ca","679ef545c59970ffbed5e471","","null","<img id='swapped' src='G_7.jpg' height='90'> <img id='swapped' src='G_3.jpg' height='90'> <img src='G_9.jpg' height='90'> <img src='G_5.jpg' height='90'> <img src='G_1.jpg' height='90'>","null","Animation0","",""
"","","","","","html-keyboard-response","39","63543","0.0-11.0","41","1","2025-02-02 04:32:08","bc01a2b6f61d06f6604adb8657495020","45.36.18.87","Mozilla/5.0 (Macintosh; Intel Mac OS X 10_15_7) AppleWebKit/537.36 (KHTML, like Gecko) Chrome/132.0.0.0 Safari/537.36","Macintosh","Chrome","132.0.0.0","OS X","10_15_7","https://app.prolific.com/","en-US,en;q=0.9","671d44c91d7089c757cf3a7e","679edb085803f58d6bbd31ca","679ef545c59970ffbed5e471","","null","<img  src='G_7.jpg' height='90'> <img  src='G_3.jpg' height='90'> <img src='G_9.jpg' height='90'> <img src='G_5.jpg' height='90'> <img src='G_1.jpg' height='90'>","null","Animation0","",""
"","","","","","html-keyboard-response","40","64047","0.0-12.0","41","1","2025-02-02 04:32:08","bc01a2b6f61d06f6604adb8657495020","45.36.18.87","Mozilla/5.0 (Macintosh; Intel Mac OS X 10_15_7) AppleWebKit/537.36 (KHTML, like Gecko) Chrome/132.0.0.0 Safari/537.36","Macintosh","Chrome","132.0.0.0","OS X","10_15_7","https://app.prolific.com/","en-US,en;q=0.9","671d44c91d7089c757cf3a7e","679edb085803f58d6bbd31ca","679ef545c59970ffbed5e471","","null","<img  src='G_7.jpg' height='90'> <img id='selected'  src='G_3.jpg' height='90'> <img src='G_9.jpg' height='90'> <img src='G_5.jpg' height='90'> <img src='G_1.jpg' height='90'>","null","Animation0","",""
"","","","","","html-keyboard-response","41","64551","0.0-13.0","41","1","2025-02-02 04:32:08","bc01a2b6f61d06f6604adb8657495020","45.36.18.87","Mozilla/5.0 (Macintosh; Intel Mac OS X 10_15_7) AppleWebKit/537.36 (KHTML, like Gecko) Chrome/132.0.0.0 Safari/537.36","Macintosh","Chrome","132.0.0.0","OS X","10_15_7","https://app.prolific.com/","en-US,en;q=0.9","671d44c91d7089c757cf3a7e","679edb085803f58d6bbd31ca","679ef545c59970ffbed5e471","","null","<img  src='G_7.jpg' height='90'> <img id='selected'  src='G_3.jpg' height='90'> <img id='selected' src='G_9.jpg' height='90'> <img src='G_5.jpg' height='90'> <img src='G_1.jpg' height='90'>","null","Animation0","",""
"","","","","","html-keyboard-response","42","65054","0.0-14.0","41","1","2025-02-02 04:32:08","bc01a2b6f61d06f6604adb8657495020","45.36.18.87","Mozilla/5.0 (Macintosh; Intel Mac OS X 10_15_7) AppleWebKit/537.36 (KHTML, like Gecko) Chrome/132.0.0.0 Safari/537.36","Macintosh","Chrome","132.0.0.0","OS X","10_15_7","https://app.prolific.com/","en-US,en;q=0.9","671d44c91d7089c757cf3a7e","679edb085803f58d6bbd31ca","679ef545c59970ffbed5e471","","null","<img  src='G_7.jpg' height='90'> <img id='selected'  src='G_3.jpg' height='90'> <img id='selected' src='G_9.jpg' height='90'> <img src='G_5.jpg' height='90'> <img src='G_1.jpg' height='90'>","null","Animation0","",""
"","","","","","html-keyboard-response","43","65357","0.0-15.0","41","1","2025-02-02 04:32:08","bc01a2b6f61d06f6604adb8657495020","45.36.18.87","Mozilla/5.0 (Macintosh; Intel Mac OS X 10_15_7) AppleWebKit/537.36 (KHTML, like Gecko) Chrome/132.0.0.0 Safari/537.36","Macintosh","Chrome","132.0.0.0","OS X","10_15_7","https://app.prolific.com/","en-US,en;q=0.9","671d44c91d7089c757cf3a7e","679edb085803f58d6bbd31ca","679ef545c59970ffbed5e471","","null","<img  src='G_7.jpg' height='90'> <img   src='G_3.jpg' height='90'> <img  src='G_9.jpg' height='90'> <img src='G_5.jpg' height='90'> <img src='G_1.jpg' height='90'>","null","Animation0","",""
"","","","","","html-keyboard-response","44","65863","0.0-16.0","41","1","2025-02-02 04:32:08","bc01a2b6f61d06f6604adb8657495020","45.36.18.87","Mozilla/5.0 (Macintosh; Intel Mac OS X 10_15_7) AppleWebKit/537.36 (KHTML, like Gecko) Chrome/132.0.0.0 Safari/537.36","Macintosh","Chrome","132.0.0.0","OS X","10_15_7","https://app.prolific.com/","en-US,en;q=0.9","671d44c91d7089c757cf3a7e","679edb085803f58d6bbd31ca","679ef545c59970ffbed5e471","","null","<img  src='G_7.jpg' height='90'> <img   src='G_3.jpg' height='90'> <img id='selected'  src='G_9.jpg' height='90'> <img src='G_5.jpg' height='90'> <img src='G_1.jpg' height='90'>","null","Animation0","",""
"","","","","","html-keyboard-response","45","66366","0.0-17.0","41","1","2025-02-02 04:32:08","bc01a2b6f61d06f6604adb8657495020","45.36.18.87","Mozilla/5.0 (Macintosh; Intel Mac OS X 10_15_7) AppleWebKit/537.36 (KHTML, like Gecko) Chrome/132.0.0.0 Safari/537.36","Macintosh","Chrome","132.0.0.0","OS X","10_15_7","https://app.prolific.com/","en-US,en;q=0.9","671d44c91d7089c757cf3a7e","679edb085803f58d6bbd31ca","679ef545c59970ffbed5e471","","null","<img  src='G_7.jpg' height='90'> <img   src='G_3.jpg' height='90'> <img id='selected'  src='G_9.jpg' height='90'> <img id='selected' src='G_5.jpg' height='90'> <img src='G_1.jpg' height='90'>","null","Animation0","",""
"","","","","","html-keyboard-response","46","66870","0.0-18.0","41","1","2025-02-02 04:32:08","bc01a2b6f61d06f6604adb8657495020","45.36.18.87","Mozilla/5.0 (Macintosh; Intel Mac OS X 10_15_7) AppleWebKit/537.36 (KHTML, like Gecko) Chrome/132.0.0.0 Safari/537.36","Macintosh","Chrome","132.0.0.0","OS X","10_15_7","https://app.prolific.com/","en-US,en;q=0.9","671d44c91d7089c757cf3a7e","679edb085803f58d6bbd31ca","679ef545c59970ffbed5e471","","null","<img  src='G_7.jpg' height='90'> <img   src='G_3.jpg' height='90'> <img id='selected'  src='G_9.jpg' height='90'> <img id='selected' src='G_5.jpg' height='90'> <img src='G_1.jpg' height='90'>","null","Animation0","",""
"","","","","","html-keyboard-response","47","67175","0.0-19.0","41","1","2025-02-02 04:32:08","bc01a2b6f61d06f6604adb8657495020","45.36.18.87","Mozilla/5.0 (Macintosh; Intel Mac OS X 10_15_7) AppleWebKit/537.36 (KHTML, like Gecko) Chrome/132.0.0.0 Safari/537.36","Macintosh","Chrome","132.0.0.0","OS X","10_15_7","https://app.prolific.com/","en-US,en;q=0.9","671d44c91d7089c757cf3a7e","679edb085803f58d6bbd31ca","679ef545c59970ffbed5e471","","null","<img  src='G_7.jpg' height='90'> <img   src='G_3.jpg' height='90'> <img   src='G_9.jpg' height='90'> <img  src='G_5.jpg' height='90'> <img src='G_1.jpg' height='90'>","null","Animation0","",""
"","","","","","html-keyboard-response","48","67678","0.0-20.0","41","1","2025-02-02 04:32:08","bc01a2b6f61d06f6604adb8657495020","45.36.18.87","Mozilla/5.0 (Macintosh; Intel Mac OS X 10_15_7) AppleWebKit/537.36 (KHTML, like Gecko) Chrome/132.0.0.0 Safari/537.36","Macintosh","Chrome","132.0.0.0","OS X","10_15_7","https://app.prolific.com/","en-US,en;q=0.9","671d44c91d7089c757cf3a7e","679edb085803f58d6bbd31ca","679ef545c59970ffbed5e471","","null","<img  src='G_7.jpg' height='90'> <img   src='G_3.jpg' height='90'> <img   src='G_9.jpg' height='90'> <img id='selected'  src='G_5.jpg' height='90'> <img src='G_1.jpg' height='90'>","null","Animation0","",""
"","","","","","html-keyboard-response","49","68183","0.0-21.0","41","1","2025-02-02 04:32:08","bc01a2b6f61d06f6604adb8657495020","45.36.18.87","Mozilla/5.0 (Macintosh; Intel Mac OS X 10_15_7) AppleWebKit/537.36 (KHTML, like Gecko) Chrome/132.0.0.0 Safari/537.36","Macintosh","Chrome","132.0.0.0","OS X","10_15_7","https://app.prolific.com/","en-US,en;q=0.9","671d44c91d7089c757cf3a7e","679edb085803f58d6bbd31ca","679ef545c59970ffbed5e471","","null","<img  src='G_7.jpg' height='90'> <img   src='G_3.jpg' height='90'> <img   src='G_9.jpg' height='90'> <img id='selected'  src='G_5.jpg' height='90'> <img id='selected' src='G_1.jpg' height='90'>","null","Animation0","",""
"","","","","","html-keyboard-response","50","68687","0.0-22.0","41","1","2025-02-02 04:32:08","bc01a2b6f61d06f6604adb8657495020","45.36.18.87","Mozilla/5.0 (Macintosh; Intel Mac OS X 10_15_7) AppleWebKit/537.36 (KHTML, like Gecko) Chrome/132.0.0.0 Safari/537.36","Macintosh","Chrome","132.0.0.0","OS X","10_15_7","https://app.prolific.com/","en-US,en;q=0.9","671d44c91d7089c757cf3a7e","679edb085803f58d6bbd31ca","679ef545c59970ffbed5e471","","null","<img  src='G_7.jpg' height='90'> <img   src='G_3.jpg' height='90'> <img   src='G_9.jpg' height='90'> <img id='selected'  src='G_5.jpg' height='90'> <img id='selected' src='G_1.jpg' height='90'>","null","Animation0","",""
"","","","","","html-keyboard-response","51","68992","0.0-23.0","41","1","2025-02-02 04:32:08","bc01a2b6f61d06f6604adb8657495020","45.36.18.87","Mozilla/5.0 (Macintosh; Intel Mac OS X 10_15_7) AppleWebKit/537.36 (KHTML, like Gecko) Chrome/132.0.0.0 Safari/537.36","Macintosh","Chrome","132.0.0.0","OS X","10_15_7","https://app.prolific.com/","en-US,en;q=0.9","671d44c91d7089c757cf3a7e","679edb085803f58d6bbd31ca","679ef545c59970ffbed5e471","","null","<img  src='G_7.jpg' height='90'> <img   src='G_3.jpg' height='90'> <img   src='G_9.jpg' height='90'> <img   src='G_5.jpg' height='90'> <img  src='G_1.jpg' height='90'>","null","Animation0","",""
"","","","","","html-keyboard-response","52","70582","0.0-24.0","41","1","2025-02-02 04:32:08","bc01a2b6f61d06f6604adb8657495020","45.36.18.87","Mozilla/5.0 (Macintosh; Intel Mac OS X 10_15_7) AppleWebKit/537.36 (KHTML, like Gecko) Chrome/132.0.0.0 Safari/537.36","Macintosh","Chrome","132.0.0.0","OS X","10_15_7","https://app.prolific.com/","en-US,en;q=0.9","671d44c91d7089c757cf3a7e","679edb085803f58d6bbd31ca","679ef545c59970ffbed5e471","","1588","[""Did you notice any patterns? <br><br>Press Enter to watch that example again and follow the steps of Omgne Sort.""]","enter","","",""
"","","","","","html-button-response","53","70987","0.0-25.0","41","1","2025-02-02 04:32:08","bc01a2b6f61d06f6604adb8657495020","45.36.18.87","Mozilla/5.0 (Macintosh; Intel Mac OS X 10_15_7) AppleWebKit/537.36 (KHTML, like Gecko) Chrome/132.0.0.0 Safari/537.36","Macintosh","Chrome","132.0.0.0","OS X","10_15_7","https://app.prolific.com/","en-US,en;q=0.9","671d44c91d7089c757cf3a7e","679edb085803f58d6bbd31ca","679ef545c59970ffbed5e471","","null","<img id='selected' src='G_3.jpg' height='90'> <img src='G_7.jpg' height='90'> <img src='G_9.jpg' height='90'> <img src='G_5.jpg' height='90'> <img src='G_1.jpg' height='90'>","null","Learning example 0","",""
"","","","","","html-button-response","54","71291","0.0-26.0","41","1","2025-02-02 04:32:08","bc01a2b6f61d06f6604adb8657495020","45.36.18.87","Mozilla/5.0 (Macintosh; Intel Mac OS X 10_15_7) AppleWebKit/537.36 (KHTML, like Gecko) Chrome/132.0.0.0 Safari/537.36","Macintosh","Chrome","132.0.0.0","OS X","10_15_7","https://app.prolific.com/","en-US,en;q=0.9","671d44c91d7089c757cf3a7e","679edb085803f58d6bbd31ca","679ef545c59970ffbed5e471","","null","<img id='selected' src='G_3.jpg' height='90'> <img id='selected' src='G_7.jpg' height='90'> <img src='G_9.jpg' height='90'> <img src='G_5.jpg' height='90'> <img src='G_1.jpg' height='90'>","null","Learning example 0","",""
"","","","","","html-button-response","55","71595","0.0-27.0","41","1","2025-02-02 04:32:08","bc01a2b6f61d06f6604adb8657495020","45.36.18.87","Mozilla/5.0 (Macintosh; Intel Mac OS X 10_15_7) AppleWebKit/537.36 (KHTML, like Gecko) Chrome/132.0.0.0 Safari/537.36","Macintosh","Chrome","132.0.0.0","OS X","10_15_7","https://app.prolific.com/","en-US,en;q=0.9","671d44c91d7089c757cf3a7e","679edb085803f58d6bbd31ca","679ef545c59970ffbed5e471","","null","<img id='swapped' src='G_7.jpg' height='90'> <img id='swapped' src='G_3.jpg' height='90'> <img src='G_9.jpg' height='90'> <img src='G_5.jpg' height='90'> <img src='G_1.jpg' height='90'>","null","Learning example 0","",""
"","","","","","html-button-response","56","76297","0.0-28.0-0.0-0.0","41","1","2025-02-02 04:32:08","bc01a2b6f61d06f6604adb8657495020","45.36.18.87","Mozilla/5.0 (Macintosh; Intel Mac OS X 10_15_7) AppleWebKit/537.36 (KHTML, like Gecko) Chrome/132.0.0.0 Safari/537.36","Macintosh","Chrome","132.0.0.0","OS X","10_15_7","https://app.prolific.com/","en-US,en;q=0.9","671d44c91d7089c757cf3a7e","679edb085803f58d6bbd31ca","679ef545c59970ffbed5e471","","4697","<img id='swapped' src='G_7.jpg' height='90'> <img id='swapped' src='G_3.jpg' height='90'> <img src='G_9.jpg' height='90'> <img src='G_5.jpg' height='90'> <img src='G_1.jpg' height='90'>","1","Learning example 0","",""
"","","","","","html-button-response","57","76762","0.0-28.1-0.1-0.1","41","1","2025-02-02 04:32:08","bc01a2b6f61d06f6604adb8657495020","45.36.18.87","Mozilla/5.0 (Macintosh; Intel Mac OS X 10_15_7) AppleWebKit/537.36 (KHTML, like Gecko) Chrome/132.0.0.0 Safari/537.36","Macintosh","Chrome","132.0.0.0","OS X","10_15_7","https://app.prolific.com/","en-US,en;q=0.9","671d44c91d7089c757cf3a7e","679edb085803f58d6bbd31ca","679ef545c59970ffbed5e471","","460","<img id='swapped' src='G_7.jpg' height='90'> <img id='swapped' src='G_3.jpg' height='90'> <img src='G_9.jpg' height='90'> <img src='G_5.jpg' height='90'> <img src='G_1.jpg' height='90'>","0","Learning example 0","",""
"","","","","","html-button-response","58","76966","0.0-29.0","41","1","2025-02-02 04:32:08","bc01a2b6f61d06f6604adb8657495020","45.36.18.87","Mozilla/5.0 (Macintosh; Intel Mac OS X 10_15_7) AppleWebKit/537.36 (KHTML, like Gecko) Chrome/132.0.0.0 Safari/537.36","Macintosh","Chrome","132.0.0.0","OS X","10_15_7","https://app.prolific.com/","en-US,en;q=0.9","671d44c91d7089c757cf3a7e","679edb085803f58d6bbd31ca","679ef545c59970ffbed5e471","","null","<img  src='G_7.jpg' height='90'> <img  src='G_3.jpg' height='90'> <img src='G_9.jpg' height='90'> <img src='G_5.jpg' height='90'> <img src='G_1.jpg' height='90'>","null","Learning example 0","",""
"","","","","","html-button-response","59","77371","0.0-30.0","41","1","2025-02-02 04:32:08","bc01a2b6f61d06f6604adb8657495020","45.36.18.87","Mozilla/5.0 (Macintosh; Intel Mac OS X 10_15_7) AppleWebKit/537.36 (KHTML, like Gecko) Chrome/132.0.0.0 Safari/537.36","Macintosh","Chrome","132.0.0.0","OS X","10_15_7","https://app.prolific.com/","en-US,en;q=0.9","671d44c91d7089c757cf3a7e","679edb085803f58d6bbd31ca","679ef545c59970ffbed5e471","","null","<img  src='G_7.jpg' height='90'> <img id='selected'  src='G_3.jpg' height='90'> <img src='G_9.jpg' height='90'> <img src='G_5.jpg' height='90'> <img src='G_1.jpg' height='90'>","null","Learning example 0","",""
"","","","","","html-button-response","60","77675","0.0-31.0","41","1","2025-02-02 04:32:08","bc01a2b6f61d06f6604adb8657495020","45.36.18.87","Mozilla/5.0 (Macintosh; Intel Mac OS X 10_15_7) AppleWebKit/537.36 (KHTML, like Gecko) Chrome/132.0.0.0 Safari/537.36","Macintosh","Chrome","132.0.0.0","OS X","10_15_7","https://app.prolific.com/","en-US,en;q=0.9","671d44c91d7089c757cf3a7e","679edb085803f58d6bbd31ca","679ef545c59970ffbed5e471","","null","<img  src='G_7.jpg' height='90'> <img id='selected'  src='G_3.jpg' height='90'> <img id='selected' src='G_9.jpg' height='90'> <img src='G_5.jpg' height='90'> <img src='G_1.jpg' height='90'>","null","Learning example 0","",""
"","","","","","html-button-response","61","77980","0.0-32.0","41","1","2025-02-02 04:32:08","bc01a2b6f61d06f6604adb8657495020","45.36.18.87","Mozilla/5.0 (Macintosh; Intel Mac OS X 10_15_7) AppleWebKit/537.36 (KHTML, like Gecko) Chrome/132.0.0.0 Safari/537.36","Macintosh","Chrome","132.0.0.0","OS X","10_15_7","https://app.prolific.com/","en-US,en;q=0.9","671d44c91d7089c757cf3a7e","679edb085803f58d6bbd31ca","679ef545c59970ffbed5e471","","null","<img  src='G_7.jpg' height='90'> <img id='selected'  src='G_3.jpg' height='90'> <img id='selected' src='G_9.jpg' height='90'> <img src='G_5.jpg' height='90'> <img src='G_1.jpg' height='90'>","null","Learning example 0","",""
"","","","","","html-button-response","62","78264","0.0-33.0-0.0-0.0","41","1","2025-02-02 04:32:08","bc01a2b6f61d06f6604adb8657495020","45.36.18.87","Mozilla/5.0 (Macintosh; Intel Mac OS X 10_15_7) AppleWebKit/537.36 (KHTML, like Gecko) Chrome/132.0.0.0 Safari/537.36","Macintosh","Chrome","132.0.0.0","OS X","10_15_7","https://app.prolific.com/","en-US,en;q=0.9","671d44c91d7089c757cf3a7e","679edb085803f58d6bbd31ca","679ef545c59970ffbed5e471","","279","<img  src='G_7.jpg' height='90'> <img id='selected'  src='G_3.jpg' height='90'> <img id='selected' src='G_9.jpg' height='90'> <img src='G_5.jpg' height='90'> <img src='G_1.jpg' height='90'>","1","Learning example 0","",""
"","","","","","html-button-response","63","78764","0.0-33.1-0.1-0.1","41","1","2025-02-02 04:32:08","bc01a2b6f61d06f6604adb8657495020","45.36.18.87","Mozilla/5.0 (Macintosh; Intel Mac OS X 10_15_7) AppleWebKit/537.36 (KHTML, like Gecko) Chrome/132.0.0.0 Safari/537.36","Macintosh","Chrome","132.0.0.0","OS X","10_15_7","https://app.prolific.com/","en-US,en;q=0.9","671d44c91d7089c757cf3a7e","679edb085803f58d6bbd31ca","679ef545c59970ffbed5e471","","495","<img  src='G_7.jpg' height='90'> <img id='selected'  src='G_3.jpg' height='90'> <img id='selected' src='G_9.jpg' height='90'> <img src='G_5.jpg' height='90'> <img src='G_1.jpg' height='90'>","2","Learning example 0","",""
"","","","","","html-button-response","64","78968","0.0-34.0","41","1","2025-02-02 04:32:08","bc01a2b6f61d06f6604adb8657495020","45.36.18.87","Mozilla/5.0 (Macintosh; Intel Mac OS X 10_15_7) AppleWebKit/537.36 (KHTML, like Gecko) Chrome/132.0.0.0 Safari/537.36","Macintosh","Chrome","132.0.0.0","OS X","10_15_7","https://app.prolific.com/","en-US,en;q=0.9","671d44c91d7089c757cf3a7e","679edb085803f58d6bbd31ca","679ef545c59970ffbed5e471","","null","<img  src='G_7.jpg' height='90'> <img   src='G_3.jpg' height='90'> <img  src='G_9.jpg' height='90'> <img src='G_5.jpg' height='90'> <img src='G_1.jpg' height='90'>","null","Learning example 0","",""
"","","","","","html-button-response","65","79373","0.0-35.0","41","1","2025-02-02 04:32:08","bc01a2b6f61d06f6604adb8657495020","45.36.18.87","Mozilla/5.0 (Macintosh; Intel Mac OS X 10_15_7) AppleWebKit/537.36 (KHTML, like Gecko) Chrome/132.0.0.0 Safari/537.36","Macintosh","Chrome","132.0.0.0","OS X","10_15_7","https://app.prolific.com/","en-US,en;q=0.9","671d44c91d7089c757cf3a7e","679edb085803f58d6bbd31ca","679ef545c59970ffbed5e471","","null","<img  src='G_7.jpg' height='90'> <img   src='G_3.jpg' height='90'> <img id='selected'  src='G_9.jpg' height='90'> <img src='G_5.jpg' height='90'> <img src='G_1.jpg' height='90'>","null","Learning example 0","",""
"","","","","","html-button-response","66","79678","0.0-36.0","41","1","2025-02-02 04:32:08","bc01a2b6f61d06f6604adb8657495020","45.36.18.87","Mozilla/5.0 (Macintosh; Intel Mac OS X 10_15_7) AppleWebKit/537.36 (KHTML, like Gecko) Chrome/132.0.0.0 Safari/537.36","Macintosh","Chrome","132.0.0.0","OS X","10_15_7","https://app.prolific.com/","en-US,en;q=0.9","671d44c91d7089c757cf3a7e","679edb085803f58d6bbd31ca","679ef545c59970ffbed5e471","","null","<img  src='G_7.jpg' height='90'> <img   src='G_3.jpg' height='90'> <img id='selected'  src='G_9.jpg' height='90'> <img id='selected' src='G_5.jpg' height='90'> <img src='G_1.jpg' height='90'>","null","Learning example 0","",""
"","","","","","html-button-response","67","79983","0.0-37.0","41","1","2025-02-02 04:32:08","bc01a2b6f61d06f6604adb8657495020","45.36.18.87","Mozilla/5.0 (Macintosh; Intel Mac OS X 10_15_7) AppleWebKit/537.36 (KHTML, like Gecko) Chrome/132.0.0.0 Safari/537.36","Macintosh","Chrome","132.0.0.0","OS X","10_15_7","https://app.prolific.com/","en-US,en;q=0.9","671d44c91d7089c757cf3a7e","679edb085803f58d6bbd31ca","679ef545c59970ffbed5e471","","null","<img  src='G_7.jpg' height='90'> <img   src='G_3.jpg' height='90'> <img id='selected'  src='G_9.jpg' height='90'> <img id='selected' src='G_5.jpg' height='90'> <img src='G_1.jpg' height='90'>","null","Learning example 0","",""
"","","","","","html-button-response","68","80431","0.0-38.0-0.0-0.0","41","1","2025-02-02 04:32:08","bc01a2b6f61d06f6604adb8657495020","45.36.18.87","Mozilla/5.0 (Macintosh; Intel Mac OS X 10_15_7) AppleWebKit/537.36 (KHTML, like Gecko) Chrome/132.0.0.0 Safari/537.36","Macintosh","Chrome","132.0.0.0","OS X","10_15_7","https://app.prolific.com/","en-US,en;q=0.9","671d44c91d7089c757cf3a7e","679edb085803f58d6bbd31ca","679ef545c59970ffbed5e471","","443","<img  src='G_7.jpg' height='90'> <img   src='G_3.jpg' height='90'> <img id='selected'  src='G_9.jpg' height='90'> <img id='selected' src='G_5.jpg' height='90'> <img src='G_1.jpg' height='90'>","3","Learning example 0","",""
"","","","","","html-button-response","69","81114","0.0-38.1-0.1-0.1","41","1","2025-02-02 04:32:08","bc01a2b6f61d06f6604adb8657495020","45.36.18.87","Mozilla/5.0 (Macintosh; Intel Mac OS X 10_15_7) AppleWebKit/537.36 (KHTML, like Gecko) Chrome/132.0.0.0 Safari/537.36","Macintosh","Chrome","132.0.0.0","OS X","10_15_7","https://app.prolific.com/","en-US,en;q=0.9","671d44c91d7089c757cf3a7e","679edb085803f58d6bbd31ca","679ef545c59970ffbed5e471","","678","<img  src='G_7.jpg' height='90'> <img   src='G_3.jpg' height='90'> <img id='selected'  src='G_9.jpg' height='90'> <img id='selected' src='G_5.jpg' height='90'> <img src='G_1.jpg' height='90'>","2","Learning example 0","",""
"","","","","","html-button-response","70","81318","0.0-39.0","41","1","2025-02-02 04:32:08","bc01a2b6f61d06f6604adb8657495020","45.36.18.87","Mozilla/5.0 (Macintosh; Intel Mac OS X 10_15_7) AppleWebKit/537.36 (KHTML, like Gecko) Chrome/132.0.0.0 Safari/537.36","Macintosh","Chrome","132.0.0.0","OS X","10_15_7","https://app.prolific.com/","en-US,en;q=0.9","671d44c91d7089c757cf3a7e","679edb085803f58d6bbd31ca","679ef545c59970ffbed5e471","","null","<img  src='G_7.jpg' height='90'> <img   src='G_3.jpg' height='90'> <img   src='G_9.jpg' height='90'> <img  src='G_5.jpg' height='90'> <img src='G_1.jpg' height='90'>","null","Learning example 0","",""
"","","","","","html-button-response","71","81723","0.0-40.0","41","1","2025-02-02 04:32:08","bc01a2b6f61d06f6604adb8657495020","45.36.18.87","Mozilla/5.0 (Macintosh; Intel Mac OS X 10_15_7) AppleWebKit/537.36 (KHTML, like Gecko) Chrome/132.0.0.0 Safari/537.36","Macintosh","Chrome","132.0.0.0","OS X","10_15_7","https://app.prolific.com/","en-US,en;q=0.9","671d44c91d7089c757cf3a7e","679edb085803f58d6bbd31ca","679ef545c59970ffbed5e471","","null","<img  src='G_7.jpg' height='90'> <img   src='G_3.jpg' height='90'> <img   src='G_9.jpg' height='90'> <img id='selected'  src='G_5.jpg' height='90'> <img src='G_1.jpg' height='90'>","null","Learning example 0","",""
"","","","","","html-button-response","72","82028","0.0-41.0","41","1","2025-02-02 04:32:08","bc01a2b6f61d06f6604adb8657495020","45.36.18.87","Mozilla/5.0 (Macintosh; Intel Mac OS X 10_15_7) AppleWebKit/537.36 (KHTML, like Gecko) Chrome/132.0.0.0 Safari/537.36","Macintosh","Chrome","132.0.0.0","OS X","10_15_7","https://app.prolific.com/","en-US,en;q=0.9","671d44c91d7089c757cf3a7e","679edb085803f58d6bbd31ca","679ef545c59970ffbed5e471","","null","<img  src='G_7.jpg' height='90'> <img   src='G_3.jpg' height='90'> <img   src='G_9.jpg' height='90'> <img id='selected'  src='G_5.jpg' height='90'> <img id='selected' src='G_1.jpg' height='90'>","null","Learning example 0","",""
"","","","","","html-button-response","73","82331","0.0-42.0","41","1","2025-02-02 04:32:08","bc01a2b6f61d06f6604adb8657495020","45.36.18.87","Mozilla/5.0 (Macintosh; Intel Mac OS X 10_15_7) AppleWebKit/537.36 (KHTML, like Gecko) Chrome/132.0.0.0 Safari/537.36","Macintosh","Chrome","132.0.0.0","OS X","10_15_7","https://app.prolific.com/","en-US,en;q=0.9","671d44c91d7089c757cf3a7e","679edb085803f58d6bbd31ca","679ef545c59970ffbed5e471","","298","<img  src='G_7.jpg' height='90'> <img   src='G_3.jpg' height='90'> <img   src='G_9.jpg' height='90'> <img id='selected'  src='G_5.jpg' height='90'> <img id='selected' src='G_1.jpg' height='90'>","3","Learning example 0","",""
"","","","","","html-button-response","74","83098","0.0-43.0-0.0-0.0","41","1","2025-02-02 04:32:08","bc01a2b6f61d06f6604adb8657495020","45.36.18.87","Mozilla/5.0 (Macintosh; Intel Mac OS X 10_15_7) AppleWebKit/537.36 (KHTML, like Gecko) Chrome/132.0.0.0 Safari/537.36","Macintosh","Chrome","132.0.0.0","OS X","10_15_7","https://app.prolific.com/","en-US,en;q=0.9","671d44c91d7089c757cf3a7e","679edb085803f58d6bbd31ca","679ef545c59970ffbed5e471","","761","<img  src='G_7.jpg' height='90'> <img   src='G_3.jpg' height='90'> <img   src='G_9.jpg' height='90'> <img id='selected'  src='G_5.jpg' height='90'> <img id='selected' src='G_1.jpg' height='90'>","4","Learning example 0","",""
"","","","","","html-button-response","75","83304","0.0-44.0","41","1","2025-02-02 04:32:08","bc01a2b6f61d06f6604adb8657495020","45.36.18.87","Mozilla/5.0 (Macintosh; Intel Mac OS X 10_15_7) AppleWebKit/537.36 (KHTML, like Gecko) Chrome/132.0.0.0 Safari/537.36","Macintosh","Chrome","132.0.0.0","OS X","10_15_7","https://app.prolific.com/","en-US,en;q=0.9","671d44c91d7089c757cf3a7e","679edb085803f58d6bbd31ca","679ef545c59970ffbed5e471","","null","<img  src='G_7.jpg' height='90'> <img   src='G_3.jpg' height='90'> <img   src='G_9.jpg' height='90'> <img   src='G_5.jpg' height='90'> <img  src='G_1.jpg' height='90'>","null","Learning example 0","",""
"","","","","","html-keyboard-response","76","88288","0.0-45.0","41","1","2025-02-02 04:32:08","bc01a2b6f61d06f6604adb8657495020","45.36.18.87","Mozilla/5.0 (Macintosh; Intel Mac OS X 10_15_7) AppleWebKit/537.36 (KHTML, like Gecko) Chrome/132.0.0.0 Safari/537.36","Macintosh","Chrome","132.0.0.0","OS X","10_15_7","https://app.prolific.com/","en-US,en;q=0.9","671d44c91d7089c757cf3a7e","679edb085803f58d6bbd31ca","679ef545c59970ffbed5e471","","4980","[""Final order was 1,2,3,4,5. The initial order was 2,1,3,4,5.<br>It took 1 swaps to sort it correctly with Omgne Sort. <br><br>Press Enter to continue.""]"," ","","",""
"","","","","","html-keyboard-response","77","89964","0.0-46.0","41","1","2025-02-02 04:32:08","bc01a2b6f61d06f6604adb8657495020","45.36.18.87","Mozilla/5.0 (Macintosh; Intel Mac OS X 10_15_7) AppleWebKit/537.36 (KHTML, like Gecko) Chrome/132.0.0.0 Safari/537.36","Macintosh","Chrome","132.0.0.0","OS X","10_15_7","https://app.prolific.com/","en-US,en;q=0.9","671d44c91d7089c757cf3a7e","679edb085803f58d6bbd31ca","679ef545c59970ffbed5e471","","1674","[""Example 2<br><br>You will watch Omnge Sort in action. Try to identify any patterns in the comparisons made by this method. <br><br>Press Enter to continue.""]"," ","","",""
"","","","","","html-keyboard-response","78","90468","0.0-47.0","41","1","2025-02-02 04:32:08","bc01a2b6f61d06f6604adb8657495020","45.36.18.87","Mozilla/5.0 (Macintosh; Intel Mac OS X 10_15_7) AppleWebKit/537.36 (KHTML, like Gecko) Chrome/132.0.0.0 Safari/537.36","Macintosh","Chrome","132.0.0.0","OS X","10_15_7","https://app.prolific.com/","en-US,en;q=0.9","671d44c91d7089c757cf3a7e","679edb085803f58d6bbd31ca","679ef545c59970ffbed5e471","","null","<img id='selected' src='G_4.jpg' height='90'> <img src='G_7.jpg' height='90'> <img src='G_3.jpg' height='90'> <img src='G_8.jpg' height='90'> <img src='G_1.jpg' height='90'> <img src='G_6.jpg' height='90'> <img src='G_2.jpg' height='90'> <img src='G_5.jpg' height='90'>","null","Animation1","",""
"","","","","","html-keyboard-response","79","90973","0.0-48.0","41","1","2025-02-02 04:32:08","bc01a2b6f61d06f6604adb8657495020","45.36.18.87","Mozilla/5.0 (Macintosh; Intel Mac OS X 10_15_7) AppleWebKit/537.36 (KHTML, like Gecko) Chrome/132.0.0.0 Safari/537.36","Macintosh","Chrome","132.0.0.0","OS X","10_15_7","https://app.prolific.com/","en-US,en;q=0.9","671d44c91d7089c757cf3a7e","679edb085803f58d6bbd31ca","679ef545c59970ffbed5e471","","null","<img id='selected' src='G_4.jpg' height='90'> <img id='selected' src='G_7.jpg' height='90'> <img src='G_3.jpg' height='90'> <img src='G_8.jpg' height='90'> <img src='G_1.jpg' height='90'> <img src='G_6.jpg' height='90'> <img src='G_2.jpg' height='90'> <img src='G_5.jpg' height='90'>","null","Animation1","",""
"","","","","","html-keyboard-response","80","91479","0.0-49.0","41","1","2025-02-02 04:32:08","bc01a2b6f61d06f6604adb8657495020","45.36.18.87","Mozilla/5.0 (Macintosh; Intel Mac OS X 10_15_7) AppleWebKit/537.36 (KHTML, like Gecko) Chrome/132.0.0.0 Safari/537.36","Macintosh","Chrome","132.0.0.0","OS X","10_15_7","https://app.prolific.com/","en-US,en;q=0.9","671d44c91d7089c757cf3a7e","679edb085803f58d6bbd31ca","679ef545c59970ffbed5e471","","null","<img id='selected' src='G_4.jpg' height='90'> <img id='selected' src='G_7.jpg' height='90'> <img src='G_3.jpg' height='90'> <img src='G_8.jpg' height='90'> <img src='G_1.jpg' height='90'> <img src='G_6.jpg' height='90'> <img src='G_2.jpg' height='90'> <img src='G_5.jpg' height='90'>","null","Animation1","",""
"","","","","","html-keyboard-response","81","91786","0.0-50.0","41","1","2025-02-02 04:32:08","bc01a2b6f61d06f6604adb8657495020","45.36.18.87","Mozilla/5.0 (Macintosh; Intel Mac OS X 10_15_7) AppleWebKit/537.36 (KHTML, like Gecko) Chrome/132.0.0.0 Safari/537.36","Macintosh","Chrome","132.0.0.0","OS X","10_15_7","https://app.prolific.com/","en-US,en;q=0.9","671d44c91d7089c757cf3a7e","679edb085803f58d6bbd31ca","679ef545c59970ffbed5e471","","null","<img  src='G_4.jpg' height='90'> <img  src='G_7.jpg' height='90'> <img src='G_3.jpg' height='90'> <img src='G_8.jpg' height='90'> <img src='G_1.jpg' height='90'> <img src='G_6.jpg' height='90'> <img src='G_2.jpg' height='90'> <img src='G_5.jpg' height='90'>","null","Animation1","",""
"","","","","","html-keyboard-response","82","92291","0.0-51.0","41","1","2025-02-02 04:32:08","bc01a2b6f61d06f6604adb8657495020","45.36.18.87","Mozilla/5.0 (Macintosh; Intel Mac OS X 10_15_7) AppleWebKit/537.36 (KHTML, like Gecko) Chrome/132.0.0.0 Safari/537.36","Macintosh","Chrome","132.0.0.0","OS X","10_15_7","https://app.prolific.com/","en-US,en;q=0.9","671d44c91d7089c757cf3a7e","679edb085803f58d6bbd31ca","679ef545c59970ffbed5e471","","null","<img  src='G_4.jpg' height='90'> <img id='selected'  src='G_7.jpg' height='90'> <img src='G_3.jpg' height='90'> <img src='G_8.jpg' height='90'> <img src='G_1.jpg' height='90'> <img src='G_6.jpg' height='90'> <img src='G_2.jpg' height='90'> <img src='G_5.jpg' height='90'>","null","Animation1","",""
"","","","","","html-keyboard-response","83","92797","0.0-52.0","41","1","2025-02-02 04:32:08","bc01a2b6f61d06f6604adb8657495020","45.36.18.87","Mozilla/5.0 (Macintosh; Intel Mac OS X 10_15_7) AppleWebKit/537.36 (KHTML, like Gecko) Chrome/132.0.0.0 Safari/537.36","Macintosh","Chrome","132.0.0.0","OS X","10_15_7","https://app.prolific.com/","en-US,en;q=0.9","671d44c91d7089c757cf3a7e","679edb085803f58d6bbd31ca","679ef545c59970ffbed5e471","","null","<img  src='G_4.jpg' height='90'> <img id='selected'  src='G_7.jpg' height='90'> <img id='selected' src='G_3.jpg' height='90'> <img src='G_8.jpg' height='90'> <img src='G_1.jpg' height='90'> <img src='G_6.jpg' height='90'> <img src='G_2.jpg' height='90'> <img src='G_5.jpg' height='90'>","null","Animation1","",""
"","","","","","html-keyboard-response","84","93302","0.0-53.0","41","1","2025-02-02 04:32:08","bc01a2b6f61d06f6604adb8657495020","45.36.18.87","Mozilla/5.0 (Macintosh; Intel Mac OS X 10_15_7) AppleWebKit/537.36 (KHTML, like Gecko) Chrome/132.0.0.0 Safari/537.36","Macintosh","Chrome","132.0.0.0","OS X","10_15_7","https://app.prolific.com/","en-US,en;q=0.9","671d44c91d7089c757cf3a7e","679edb085803f58d6bbd31ca","679ef545c59970ffbed5e471","","null","<img  src='G_4.jpg' height='90'> <img id='swapped' src='G_3.jpg' height='90'> <img id='swapped'  src='G_7.jpg' height='90'> <img src='G_8.jpg' height='90'> <img src='G_1.jpg' height='90'> <img src='G_6.jpg' height='90'> <img src='G_2.jpg' height='90'> <img src='G_5.jpg' height='90'>","null","Animation1","",""
"","","","","","html-keyboard-response","85","93608","0.0-54.0","41","1","2025-02-02 04:32:08","bc01a2b6f61d06f6604adb8657495020","45.36.18.87","Mozilla/5.0 (Macintosh; Intel Mac OS X 10_15_7) AppleWebKit/537.36 (KHTML, like Gecko) Chrome/132.0.0.0 Safari/537.36","Macintosh","Chrome","132.0.0.0","OS X","10_15_7","https://app.prolific.com/","en-US,en;q=0.9","671d44c91d7089c757cf3a7e","679edb085803f58d6bbd31ca","679ef545c59970ffbed5e471","","null","<img  src='G_4.jpg' height='90'> <img  src='G_3.jpg' height='90'> <img   src='G_7.jpg' height='90'> <img src='G_8.jpg' height='90'> <img src='G_1.jpg' height='90'> <img src='G_6.jpg' height='90'> <img src='G_2.jpg' height='90'> <img src='G_5.jpg' height='90'>","null","Animation1","",""
"","","","","","html-keyboard-response","86","94114","0.0-55.0","41","1","2025-02-02 04:32:08","bc01a2b6f61d06f6604adb8657495020","45.36.18.87","Mozilla/5.0 (Macintosh; Intel Mac OS X 10_15_7) AppleWebKit/537.36 (KHTML, like Gecko) Chrome/132.0.0.0 Safari/537.36","Macintosh","Chrome","132.0.0.0","OS X","10_15_7","https://app.prolific.com/","en-US,en;q=0.9","671d44c91d7089c757cf3a7e","679edb085803f58d6bbd31ca","679ef545c59970ffbed5e471","","null","<img id='selected'  src='G_4.jpg' height='90'> <img  src='G_3.jpg' height='90'> <img   src='G_7.jpg' height='90'> <img src='G_8.jpg' height='90'> <img src='G_1.jpg' height='90'> <img src='G_6.jpg' height='90'> <img src='G_2.jpg' height='90'> <img src='G_5.jpg' height='90'>","null","Animation1","",""
"","","","","","html-keyboard-response","87","94620","0.0-56.0","41","1","2025-02-02 04:32:08","bc01a2b6f61d06f6604adb8657495020","45.36.18.87","Mozilla/5.0 (Macintosh; Intel Mac OS X 10_15_7) AppleWebKit/537.36 (KHTML, like Gecko) Chrome/132.0.0.0 Safari/537.36","Macintosh","Chrome","132.0.0.0","OS X","10_15_7","https://app.prolific.com/","en-US,en;q=0.9","671d44c91d7089c757cf3a7e","679edb085803f58d6bbd31ca","679ef545c59970ffbed5e471","","null","<img id='selected'  src='G_4.jpg' height='90'> <img id='selected'  src='G_3.jpg' height='90'> <img   src='G_7.jpg' height='90'> <img src='G_8.jpg' height='90'> <img src='G_1.jpg' height='90'> <img src='G_6.jpg' height='90'> <img src='G_2.jpg' height='90'> <img src='G_5.jpg' height='90'>","null","Animation1","",""
"","","","","","html-keyboard-response","88","95124","0.0-57.0","41","1","2025-02-02 04:32:08","bc01a2b6f61d06f6604adb8657495020","45.36.18.87","Mozilla/5.0 (Macintosh; Intel Mac OS X 10_15_7) AppleWebKit/537.36 (KHTML, like Gecko) Chrome/132.0.0.0 Safari/537.36","Macintosh","Chrome","132.0.0.0","OS X","10_15_7","https://app.prolific.com/","en-US,en;q=0.9","671d44c91d7089c757cf3a7e","679edb085803f58d6bbd31ca","679ef545c59970ffbed5e471","","null","<img id='swapped'  src='G_3.jpg' height='90'> <img id='swapped'  src='G_4.jpg' height='90'> <img   src='G_7.jpg' height='90'> <img src='G_8.jpg' height='90'> <img src='G_1.jpg' height='90'> <img src='G_6.jpg' height='90'> <img src='G_2.jpg' height='90'> <img src='G_5.jpg' height='90'>","null","Animation1","",""
"","","","","","html-keyboard-response","89","95430","0.0-58.0","41","1","2025-02-02 04:32:08","bc01a2b6f61d06f6604adb8657495020","45.36.18.87","Mozilla/5.0 (Macintosh; Intel Mac OS X 10_15_7) AppleWebKit/537.36 (KHTML, like Gecko) Chrome/132.0.0.0 Safari/537.36","Macintosh","Chrome","132.0.0.0","OS X","10_15_7","https://app.prolific.com/","en-US,en;q=0.9","671d44c91d7089c757cf3a7e","679edb085803f58d6bbd31ca","679ef545c59970ffbed5e471","","null","<img   src='G_3.jpg' height='90'> <img   src='G_4.jpg' height='90'> <img   src='G_7.jpg' height='90'> <img src='G_8.jpg' height='90'> <img src='G_1.jpg' height='90'> <img src='G_6.jpg' height='90'> <img src='G_2.jpg' height='90'> <img src='G_5.jpg' height='90'>","null","Animation1","",""
"","","","","","html-keyboard-response","90","95936","0.0-59.0","41","1","2025-02-02 04:32:08","bc01a2b6f61d06f6604adb8657495020","45.36.18.87","Mozilla/5.0 (Macintosh; Intel Mac OS X 10_15_7) AppleWebKit/537.36 (KHTML, like Gecko) Chrome/132.0.0.0 Safari/537.36","Macintosh","Chrome","132.0.0.0","OS X","10_15_7","https://app.prolific.com/","en-US,en;q=0.9","671d44c91d7089c757cf3a7e","679edb085803f58d6bbd31ca","679ef545c59970ffbed5e471","","null","<img   src='G_3.jpg' height='90'> <img   src='G_4.jpg' height='90'> <img id='selected'   src='G_7.jpg' height='90'> <img src='G_8.jpg' height='90'> <img src='G_1.jpg' height='90'> <img src='G_6.jpg' height='90'> <img src='G_2.jpg' height='90'> <img src='G_5.jpg' height='90'>","null","Animation1","",""
"","","","","","html-keyboard-response","91","96440","0.0-60.0","41","1","2025-02-02 04:32:08","bc01a2b6f61d06f6604adb8657495020","45.36.18.87","Mozilla/5.0 (Macintosh; Intel Mac OS X 10_15_7) AppleWebKit/537.36 (KHTML, like Gecko) Chrome/132.0.0.0 Safari/537.36","Macintosh","Chrome","132.0.0.0","OS X","10_15_7","https://app.prolific.com/","en-US,en;q=0.9","671d44c91d7089c757cf3a7e","679edb085803f58d6bbd31ca","679ef545c59970ffbed5e471","","null","<img   src='G_3.jpg' height='90'> <img   src='G_4.jpg' height='90'> <img id='selected'   src='G_7.jpg' height='90'> <img id='selected' src='G_8.jpg' height='90'> <img src='G_1.jpg' height='90'> <img src='G_6.jpg' height='90'> <img src='G_2.jpg' height='90'> <img src='G_5.jpg' height='90'>","null","Animation1","",""
"","","","","","html-keyboard-response","92","97808","0.0-61.0","41","1","2025-02-02 04:32:08","bc01a2b6f61d06f6604adb8657495020","45.36.18.87","Mozilla/5.0 (Macintosh; Intel Mac OS X 10_15_7) AppleWebKit/537.36 (KHTML, like Gecko) Chrome/132.0.0.0 Safari/537.36","Macintosh","Chrome","132.0.0.0","OS X","10_15_7","https://app.prolific.com/","en-US,en;q=0.9","671d44c91d7089c757cf3a7e","679edb085803f58d6bbd31ca","679ef545c59970ffbed5e471","","null","<img   src='G_3.jpg' height='90'> <img   src='G_4.jpg' height='90'> <img id='swapped' src='G_8.jpg' height='90'> <img id='swapped'   src='G_7.jpg' height='90'> <img src='G_1.jpg' height='90'> <img src='G_6.jpg' height='90'> <img src='G_2.jpg' height='90'> <img src='G_5.jpg' height='90'>","null","Animation1","",""
"","","","","","html-keyboard-response","93","98556","0.0-62.0","41","1","2025-02-02 04:32:08","bc01a2b6f61d06f6604adb8657495020","45.36.18.87","Mozilla/5.0 (Macintosh; Intel Mac OS X 10_15_7) AppleWebKit/537.36 (KHTML, like Gecko) Chrome/132.0.0.0 Safari/537.36","Macintosh","Chrome","132.0.0.0","OS X","10_15_7","https://app.prolific.com/","en-US,en;q=0.9","671d44c91d7089c757cf3a7e","679edb085803f58d6bbd31ca","679ef545c59970ffbed5e471","","null","<img   src='G_3.jpg' height='90'> <img   src='G_4.jpg' height='90'> <img  src='G_8.jpg' height='90'> <img    src='G_7.jpg' height='90'> <img src='G_1.jpg' height='90'> <img src='G_6.jpg' height='90'> <img src='G_2.jpg' height='90'> <img src='G_5.jpg' height='90'>","null","Animation1","",""
"","","","","","html-keyboard-response","94","99062","0.0-63.0","41","1","2025-02-02 04:32:08","bc01a2b6f61d06f6604adb8657495020","45.36.18.87","Mozilla/5.0 (Macintosh; Intel Mac OS X 10_15_7) AppleWebKit/537.36 (KHTML, like Gecko) Chrome/132.0.0.0 Safari/537.36","Macintosh","Chrome","132.0.0.0","OS X","10_15_7","https://app.prolific.com/","en-US,en;q=0.9","671d44c91d7089c757cf3a7e","679edb085803f58d6bbd31ca","679ef545c59970ffbed5e471","","null","<img   src='G_3.jpg' height='90'> <img id='selected'   src='G_4.jpg' height='90'> <img  src='G_8.jpg' height='90'> <img    src='G_7.jpg' height='90'> <img src='G_1.jpg' height='90'> <img src='G_6.jpg' height='90'> <img src='G_2.jpg' height='90'> <img src='G_5.jpg' height='90'>","null","Animation1","",""
"","","","","","html-keyboard-response","95","99566","0.0-64.0","41","1","2025-02-02 04:32:08","bc01a2b6f61d06f6604adb8657495020","45.36.18.87","Mozilla/5.0 (Macintosh; Intel Mac OS X 10_15_7) AppleWebKit/537.36 (KHTML, like Gecko) Chrome/132.0.0.0 Safari/537.36","Macintosh","Chrome","132.0.0.0","OS X","10_15_7","https://app.prolific.com/","en-US,en;q=0.9","671d44c91d7089c757cf3a7e","679edb085803f58d6bbd31ca","679ef545c59970ffbed5e471","","null","<img   src='G_3.jpg' height='90'> <img id='selected'   src='G_4.jpg' height='90'> <img id='selected'  src='G_8.jpg' height='90'> <img    src='G_7.jpg' height='90'> <img src='G_1.jpg' height='90'> <img src='G_6.jpg' height='90'> <img src='G_2.jpg' height='90'> <img src='G_5.jpg' height='90'>","null","Animation1","",""
"","","","","","html-keyboard-response","96","100071","0.0-65.0","41","1","2025-02-02 04:32:08","bc01a2b6f61d06f6604adb8657495020","45.36.18.87","Mozilla/5.0 (Macintosh; Intel Mac OS X 10_15_7) AppleWebKit/537.36 (KHTML, like Gecko) Chrome/132.0.0.0 Safari/537.36","Macintosh","Chrome","132.0.0.0","OS X","10_15_7","https://app.prolific.com/","en-US,en;q=0.9","671d44c91d7089c757cf3a7e","679edb085803f58d6bbd31ca","679ef545c59970ffbed5e471","","null","<img   src='G_3.jpg' height='90'> <img id='swapped'  src='G_8.jpg' height='90'> <img id='swapped'   src='G_4.jpg' height='90'> <img    src='G_7.jpg' height='90'> <img src='G_1.jpg' height='90'> <img src='G_6.jpg' height='90'> <img src='G_2.jpg' height='90'> <img src='G_5.jpg' height='90'>","null","Animation1","",""
"","","","","","html-keyboard-response","97","100378","0.0-66.0","41","1","2025-02-02 04:32:08","bc01a2b6f61d06f6604adb8657495020","45.36.18.87","Mozilla/5.0 (Macintosh; Intel Mac OS X 10_15_7) AppleWebKit/537.36 (KHTML, like Gecko) Chrome/132.0.0.0 Safari/537.36","Macintosh","Chrome","132.0.0.0","OS X","10_15_7","https://app.prolific.com/","en-US,en;q=0.9","671d44c91d7089c757cf3a7e","679edb085803f58d6bbd31ca","679ef545c59970ffbed5e471","","null","<img   src='G_3.jpg' height='90'> <img   src='G_8.jpg' height='90'> <img    src='G_4.jpg' height='90'> <img    src='G_7.jpg' height='90'> <img src='G_1.jpg' height='90'> <img src='G_6.jpg' height='90'> <img src='G_2.jpg' height='90'> <img src='G_5.jpg' height='90'>","null","Animation1","",""
"","","","","","html-keyboard-response","98","100883","0.0-67.0","41","1","2025-02-02 04:32:08","bc01a2b6f61d06f6604adb8657495020","45.36.18.87","Mozilla/5.0 (Macintosh; Intel Mac OS X 10_15_7) AppleWebKit/537.36 (KHTML, like Gecko) Chrome/132.0.0.0 Safari/537.36","Macintosh","Chrome","132.0.0.0","OS X","10_15_7","https://app.prolific.com/","en-US,en;q=0.9","671d44c91d7089c757cf3a7e","679edb085803f58d6bbd31ca","679ef545c59970ffbed5e471","","null","<img id='selected'   src='G_3.jpg' height='90'> <img   src='G_8.jpg' height='90'> <img    src='G_4.jpg' height='90'> <img    src='G_7.jpg' height='90'> <img src='G_1.jpg' height='90'> <img src='G_6.jpg' height='90'> <img src='G_2.jpg' height='90'> <img src='G_5.jpg' height='90'>","null","Animation1","",""
"","","","","","html-keyboard-response","99","101389","0.0-68.0","41","1","2025-02-02 04:32:08","bc01a2b6f61d06f6604adb8657495020","45.36.18.87","Mozilla/5.0 (Macintosh; Intel Mac OS X 10_15_7) AppleWebKit/537.36 (KHTML, like Gecko) Chrome/132.0.0.0 Safari/537.36","Macintosh","Chrome","132.0.0.0","OS X","10_15_7","https://app.prolific.com/","en-US,en;q=0.9","671d44c91d7089c757cf3a7e","679edb085803f58d6bbd31ca","679ef545c59970ffbed5e471","","null","<img id='selected'   src='G_3.jpg' height='90'> <img id='selected'   src='G_8.jpg' height='90'> <img    src='G_4.jpg' height='90'> <img    src='G_7.jpg' height='90'> <img src='G_1.jpg' height='90'> <img src='G_6.jpg' height='90'> <img src='G_2.jpg' height='90'> <img src='G_5.jpg' height='90'>","null","Animation1","",""
"","","","","","html-keyboard-response","100","101893","0.0-69.0","41","1","2025-02-02 04:32:08","bc01a2b6f61d06f6604adb8657495020","45.36.18.87","Mozilla/5.0 (Macintosh; Intel Mac OS X 10_15_7) AppleWebKit/537.36 (KHTML, like Gecko) Chrome/132.0.0.0 Safari/537.36","Macintosh","Chrome","132.0.0.0","OS X","10_15_7","https://app.prolific.com/","en-US,en;q=0.9","671d44c91d7089c757cf3a7e","679edb085803f58d6bbd31ca","679ef545c59970ffbed5e471","","null","<img id='swapped'   src='G_8.jpg' height='90'> <img id='swapped'   src='G_3.jpg' height='90'> <img    src='G_4.jpg' height='90'> <img    src='G_7.jpg' height='90'> <img src='G_1.jpg' height='90'> <img src='G_6.jpg' height='90'> <img src='G_2.jpg' height='90'> <img src='G_5.jpg' height='90'>","null","Animation1","",""
"","","","","","html-keyboard-response","101","102200","0.0-70.0","41","1","2025-02-02 04:32:08","bc01a2b6f61d06f6604adb8657495020","45.36.18.87","Mozilla/5.0 (Macintosh; Intel Mac OS X 10_15_7) AppleWebKit/537.36 (KHTML, like Gecko) Chrome/132.0.0.0 Safari/537.36","Macintosh","Chrome","132.0.0.0","OS X","10_15_7","https://app.prolific.com/","en-US,en;q=0.9","671d44c91d7089c757cf3a7e","679edb085803f58d6bbd31ca","679ef545c59970ffbed5e471","","null","<img    src='G_8.jpg' height='90'> <img    src='G_3.jpg' height='90'> <img    src='G_4.jpg' height='90'> <img    src='G_7.jpg' height='90'> <img src='G_1.jpg' height='90'> <img src='G_6.jpg' height='90'> <img src='G_2.jpg' height='90'> <img src='G_5.jpg' height='90'>","null","Animation1","",""
"","","","","","html-keyboard-response","102","102706","0.0-71.0","41","1","2025-02-02 04:32:08","bc01a2b6f61d06f6604adb8657495020","45.36.18.87","Mozilla/5.0 (Macintosh; Intel Mac OS X 10_15_7) AppleWebKit/537.36 (KHTML, like Gecko) Chrome/132.0.0.0 Safari/537.36","Macintosh","Chrome","132.0.0.0","OS X","10_15_7","https://app.prolific.com/","en-US,en;q=0.9","671d44c91d7089c757cf3a7e","679edb085803f58d6bbd31ca","679ef545c59970ffbed5e471","","null","<img    src='G_8.jpg' height='90'> <img    src='G_3.jpg' height='90'> <img    src='G_4.jpg' height='90'> <img id='selected'    src='G_7.jpg' height='90'> <img src='G_1.jpg' height='90'> <img src='G_6.jpg' height='90'> <img src='G_2.jpg' height='90'> <img src='G_5.jpg' height='90'>","null","Animation1","",""
"","","","","","html-keyboard-response","103","103212","0.0-72.0","41","1","2025-02-02 04:32:08","bc01a2b6f61d06f6604adb8657495020","45.36.18.87","Mozilla/5.0 (Macintosh; Intel Mac OS X 10_15_7) AppleWebKit/537.36 (KHTML, like Gecko) Chrome/132.0.0.0 Safari/537.36","Macintosh","Chrome","132.0.0.0","OS X","10_15_7","https://app.prolific.com/","en-US,en;q=0.9","671d44c91d7089c757cf3a7e","679edb085803f58d6bbd31ca","679ef545c59970ffbed5e471","","null","<img    src='G_8.jpg' height='90'> <img    src='G_3.jpg' height='90'> <img    src='G_4.jpg' height='90'> <img id='selected'    src='G_7.jpg' height='90'> <img id='selected' src='G_1.jpg' height='90'> <img src='G_6.jpg' height='90'> <img src='G_2.jpg' height='90'> <img src='G_5.jpg' height='90'>","null","Animation1","",""
"","","","","","html-keyboard-response","104","103718","0.0-73.0","41","1","2025-02-02 04:32:08","bc01a2b6f61d06f6604adb8657495020","45.36.18.87","Mozilla/5.0 (Macintosh; Intel Mac OS X 10_15_7) AppleWebKit/537.36 (KHTML, like Gecko) Chrome/132.0.0.0 Safari/537.36","Macintosh","Chrome","132.0.0.0","OS X","10_15_7","https://app.prolific.com/","en-US,en;q=0.9","671d44c91d7089c757cf3a7e","679edb085803f58d6bbd31ca","679ef545c59970ffbed5e471","","null","<img    src='G_8.jpg' height='90'> <img    src='G_3.jpg' height='90'> <img    src='G_4.jpg' height='90'> <img id='swapped' src='G_1.jpg' height='90'> <img id='swapped'    src='G_7.jpg' height='90'> <img src='G_6.jpg' height='90'> <img src='G_2.jpg' height='90'> <img src='G_5.jpg' height='90'>","null","Animation1","",""
"","","","","","html-keyboard-response","105","104026","0.0-74.0","41","1","2025-02-02 04:32:08","bc01a2b6f61d06f6604adb8657495020","45.36.18.87","Mozilla/5.0 (Macintosh; Intel Mac OS X 10_15_7) AppleWebKit/537.36 (KHTML, like Gecko) Chrome/132.0.0.0 Safari/537.36","Macintosh","Chrome","132.0.0.0","OS X","10_15_7","https://app.prolific.com/","en-US,en;q=0.9","671d44c91d7089c757cf3a7e","679edb085803f58d6bbd31ca","679ef545c59970ffbed5e471","","null","<img    src='G_8.jpg' height='90'> <img    src='G_3.jpg' height='90'> <img    src='G_4.jpg' height='90'> <img  src='G_1.jpg' height='90'> <img     src='G_7.jpg' height='90'> <img src='G_6.jpg' height='90'> <img src='G_2.jpg' height='90'> <img src='G_5.jpg' height='90'>","null","Animation1","",""
"","","","","","html-keyboard-response","106","104532","0.0-75.0","41","1","2025-02-02 04:32:08","bc01a2b6f61d06f6604adb8657495020","45.36.18.87","Mozilla/5.0 (Macintosh; Intel Mac OS X 10_15_7) AppleWebKit/537.36 (KHTML, like Gecko) Chrome/132.0.0.0 Safari/537.36","Macintosh","Chrome","132.0.0.0","OS X","10_15_7","https://app.prolific.com/","en-US,en;q=0.9","671d44c91d7089c757cf3a7e","679edb085803f58d6bbd31ca","679ef545c59970ffbed5e471","","null","<img    src='G_8.jpg' height='90'> <img    src='G_3.jpg' height='90'> <img id='selected'    src='G_4.jpg' height='90'> <img  src='G_1.jpg' height='90'> <img     src='G_7.jpg' height='90'> <img src='G_6.jpg' height='90'> <img src='G_2.jpg' height='90'> <img src='G_5.jpg' height='90'>","null","Animation1","",""
"","","","","","html-keyboard-response","107","105036","0.0-76.0","41","1","2025-02-02 04:32:08","bc01a2b6f61d06f6604adb8657495020","45.36.18.87","Mozilla/5.0 (Macintosh; Intel Mac OS X 10_15_7) AppleWebKit/537.36 (KHTML, like Gecko) Chrome/132.0.0.0 Safari/537.36","Macintosh","Chrome","132.0.0.0","OS X","10_15_7","https://app.prolific.com/","en-US,en;q=0.9","671d44c91d7089c757cf3a7e","679edb085803f58d6bbd31ca","679ef545c59970ffbed5e471","","null","<img    src='G_8.jpg' height='90'> <img    src='G_3.jpg' height='90'> <img id='selected'    src='G_4.jpg' height='90'> <img id='selected'  src='G_1.jpg' height='90'> <img     src='G_7.jpg' height='90'> <img src='G_6.jpg' height='90'> <img src='G_2.jpg' height='90'> <img src='G_5.jpg' height='90'>","null","Animation1","",""
"","","","","","html-keyboard-response","108","105542","0.0-77.0","41","1","2025-02-02 04:32:08","bc01a2b6f61d06f6604adb8657495020","45.36.18.87","Mozilla/5.0 (Macintosh; Intel Mac OS X 10_15_7) AppleWebKit/537.36 (KHTML, like Gecko) Chrome/132.0.0.0 Safari/537.36","Macintosh","Chrome","132.0.0.0","OS X","10_15_7","https://app.prolific.com/","en-US,en;q=0.9","671d44c91d7089c757cf3a7e","679edb085803f58d6bbd31ca","679ef545c59970ffbed5e471","","null","<img    src='G_8.jpg' height='90'> <img    src='G_3.jpg' height='90'> <img id='swapped'  src='G_1.jpg' height='90'> <img id='swapped'    src='G_4.jpg' height='90'> <img     src='G_7.jpg' height='90'> <img src='G_6.jpg' height='90'> <img src='G_2.jpg' height='90'> <img src='G_5.jpg' height='90'>","null","Animation1","",""
"","","","","","html-keyboard-response","109","105850","0.0-78.0","41","1","2025-02-02 04:32:08","bc01a2b6f61d06f6604adb8657495020","45.36.18.87","Mozilla/5.0 (Macintosh; Intel Mac OS X 10_15_7) AppleWebKit/537.36 (KHTML, like Gecko) Chrome/132.0.0.0 Safari/537.36","Macintosh","Chrome","132.0.0.0","OS X","10_15_7","https://app.prolific.com/","en-US,en;q=0.9","671d44c91d7089c757cf3a7e","679edb085803f58d6bbd31ca","679ef545c59970ffbed5e471","","null","<img    src='G_8.jpg' height='90'> <img    src='G_3.jpg' height='90'> <img   src='G_1.jpg' height='90'> <img     src='G_4.jpg' height='90'> <img     src='G_7.jpg' height='90'> <img src='G_6.jpg' height='90'> <img src='G_2.jpg' height='90'> <img src='G_5.jpg' height='90'>","null","Animation1","",""
"","","","","","html-keyboard-response","110","106357","0.0-79.0","41","1","2025-02-02 04:32:08","bc01a2b6f61d06f6604adb8657495020","45.36.18.87","Mozilla/5.0 (Macintosh; Intel Mac OS X 10_15_7) AppleWebKit/537.36 (KHTML, like Gecko) Chrome/132.0.0.0 Safari/537.36","Macintosh","Chrome","132.0.0.0","OS X","10_15_7","https://app.prolific.com/","en-US,en;q=0.9","671d44c91d7089c757cf3a7e","679edb085803f58d6bbd31ca","679ef545c59970ffbed5e471","","null","<img    src='G_8.jpg' height='90'> <img id='selected'    src='G_3.jpg' height='90'> <img   src='G_1.jpg' height='90'> <img     src='G_4.jpg' height='90'> <img     src='G_7.jpg' height='90'> <img src='G_6.jpg' height='90'> <img src='G_2.jpg' height='90'> <img src='G_5.jpg' height='90'>","null","Animation1","",""
"","","","","","html-keyboard-response","111","106862","0.0-80.0","41","1","2025-02-02 04:32:08","bc01a2b6f61d06f6604adb8657495020","45.36.18.87","Mozilla/5.0 (Macintosh; Intel Mac OS X 10_15_7) AppleWebKit/537.36 (KHTML, like Gecko) Chrome/132.0.0.0 Safari/537.36","Macintosh","Chrome","132.0.0.0","OS X","10_15_7","https://app.prolific.com/","en-US,en;q=0.9","671d44c91d7089c757cf3a7e","679edb085803f58d6bbd31ca","679ef545c59970ffbed5e471","","null","<img    src='G_8.jpg' height='90'> <img id='selected'    src='G_3.jpg' height='90'> <img id='selected'   src='G_1.jpg' height='90'> <img     src='G_4.jpg' height='90'> <img     src='G_7.jpg' height='90'> <img src='G_6.jpg' height='90'> <img src='G_2.jpg' height='90'> <img src='G_5.jpg' height='90'>","null","Animation1","",""
"","","","","","html-keyboard-response","112","107370","0.0-81.0","41","1","2025-02-02 04:32:08","bc01a2b6f61d06f6604adb8657495020","45.36.18.87","Mozilla/5.0 (Macintosh; Intel Mac OS X 10_15_7) AppleWebKit/537.36 (KHTML, like Gecko) Chrome/132.0.0.0 Safari/537.36","Macintosh","Chrome","132.0.0.0","OS X","10_15_7","https://app.prolific.com/","en-US,en;q=0.9","671d44c91d7089c757cf3a7e","679edb085803f58d6bbd31ca","679ef545c59970ffbed5e471","","null","<img    src='G_8.jpg' height='90'> <img id='swapped'   src='G_1.jpg' height='90'> <img id='swapped'    src='G_3.jpg' height='90'> <img     src='G_4.jpg' height='90'> <img     src='G_7.jpg' height='90'> <img src='G_6.jpg' height='90'> <img src='G_2.jpg' height='90'> <img src='G_5.jpg' height='90'>","null","Animation1","",""
"","","","","","html-keyboard-response","113","107677","0.0-82.0","41","1","2025-02-02 04:32:08","bc01a2b6f61d06f6604adb8657495020","45.36.18.87","Mozilla/5.0 (Macintosh; Intel Mac OS X 10_15_7) AppleWebKit/537.36 (KHTML, like Gecko) Chrome/132.0.0.0 Safari/537.36","Macintosh","Chrome","132.0.0.0","OS X","10_15_7","https://app.prolific.com/","en-US,en;q=0.9","671d44c91d7089c757cf3a7e","679edb085803f58d6bbd31ca","679ef545c59970ffbed5e471","","null","<img    src='G_8.jpg' height='90'> <img    src='G_1.jpg' height='90'> <img     src='G_3.jpg' height='90'> <img     src='G_4.jpg' height='90'> <img     src='G_7.jpg' height='90'> <img src='G_6.jpg' height='90'> <img src='G_2.jpg' height='90'> <img src='G_5.jpg' height='90'>","null","Animation1","",""
"","","","","","html-keyboard-response","114","108183","0.0-83.0","41","1","2025-02-02 04:32:08","bc01a2b6f61d06f6604adb8657495020","45.36.18.87","Mozilla/5.0 (Macintosh; Intel Mac OS X 10_15_7) AppleWebKit/537.36 (KHTML, like Gecko) Chrome/132.0.0.0 Safari/537.36","Macintosh","Chrome","132.0.0.0","OS X","10_15_7","https://app.prolific.com/","en-US,en;q=0.9","671d44c91d7089c757cf3a7e","679edb085803f58d6bbd31ca","679ef545c59970ffbed5e471","","null","<img id='selected'    src='G_8.jpg' height='90'> <img    src='G_1.jpg' height='90'> <img     src='G_3.jpg' height='90'> <img     src='G_4.jpg' height='90'> <img     src='G_7.jpg' height='90'> <img src='G_6.jpg' height='90'> <img src='G_2.jpg' height='90'> <img src='G_5.jpg' height='90'>","null","Animation1","",""
"","","","","","html-keyboard-response","115","108689","0.0-84.0","41","1","2025-02-02 04:32:08","bc01a2b6f61d06f6604adb8657495020","45.36.18.87","Mozilla/5.0 (Macintosh; Intel Mac OS X 10_15_7) AppleWebKit/537.36 (KHTML, like Gecko) Chrome/132.0.0.0 Safari/537.36","Macintosh","Chrome","132.0.0.0","OS X","10_15_7","https://app.prolific.com/","en-US,en;q=0.9","671d44c91d7089c757cf3a7e","679edb085803f58d6bbd31ca","679ef545c59970ffbed5e471","","null","<img id='selected'    src='G_8.jpg' height='90'> <img id='selected'    src='G_1.jpg' height='90'> <img     src='G_3.jpg' height='90'> <img     src='G_4.jpg' height='90'> <img     src='G_7.jpg' height='90'> <img src='G_6.jpg' height='90'> <img src='G_2.jpg' height='90'> <img src='G_5.jpg' height='90'>","null","Animation1","",""
"","","","","","html-keyboard-response","116","109194","0.0-85.0","41","1","2025-02-02 04:32:08","bc01a2b6f61d06f6604adb8657495020","45.36.18.87","Mozilla/5.0 (Macintosh; Intel Mac OS X 10_15_7) AppleWebKit/537.36 (KHTML, like Gecko) Chrome/132.0.0.0 Safari/537.36","Macintosh","Chrome","132.0.0.0","OS X","10_15_7","https://app.prolific.com/","en-US,en;q=0.9","671d44c91d7089c757cf3a7e","679edb085803f58d6bbd31ca","679ef545c59970ffbed5e471","","null","<img id='selected'    src='G_8.jpg' height='90'> <img id='selected'    src='G_1.jpg' height='90'> <img     src='G_3.jpg' height='90'> <img     src='G_4.jpg' height='90'> <img     src='G_7.jpg' height='90'> <img src='G_6.jpg' height='90'> <img src='G_2.jpg' height='90'> <img src='G_5.jpg' height='90'>","null","Animation1","",""
"","","","","","html-keyboard-response","117","109501","0.0-86.0","41","1","2025-02-02 04:32:08","bc01a2b6f61d06f6604adb8657495020","45.36.18.87","Mozilla/5.0 (Macintosh; Intel Mac OS X 10_15_7) AppleWebKit/537.36 (KHTML, like Gecko) Chrome/132.0.0.0 Safari/537.36","Macintosh","Chrome","132.0.0.0","OS X","10_15_7","https://app.prolific.com/","en-US,en;q=0.9","671d44c91d7089c757cf3a7e","679edb085803f58d6bbd31ca","679ef545c59970ffbed5e471","","null","<img     src='G_8.jpg' height='90'> <img     src='G_1.jpg' height='90'> <img     src='G_3.jpg' height='90'> <img     src='G_4.jpg' height='90'> <img     src='G_7.jpg' height='90'> <img src='G_6.jpg' height='90'> <img src='G_2.jpg' height='90'> <img src='G_5.jpg' height='90'>","null","Animation1","",""
"","","","","","html-keyboard-response","118","110010","0.0-87.0","41","1","2025-02-02 04:32:08","bc01a2b6f61d06f6604adb8657495020","45.36.18.87","Mozilla/5.0 (Macintosh; Intel Mac OS X 10_15_7) AppleWebKit/537.36 (KHTML, like Gecko) Chrome/132.0.0.0 Safari/537.36","Macintosh","Chrome","132.0.0.0","OS X","10_15_7","https://app.prolific.com/","en-US,en;q=0.9","671d44c91d7089c757cf3a7e","679edb085803f58d6bbd31ca","679ef545c59970ffbed5e471","","null","<img     src='G_8.jpg' height='90'> <img     src='G_1.jpg' height='90'> <img     src='G_3.jpg' height='90'> <img     src='G_4.jpg' height='90'> <img id='selected'     src='G_7.jpg' height='90'> <img src='G_6.jpg' height='90'> <img src='G_2.jpg' height='90'> <img src='G_5.jpg' height='90'>","null","Animation1","",""
"","","","","","html-keyboard-response","119","110516","0.0-88.0","41","1","2025-02-02 04:32:08","bc01a2b6f61d06f6604adb8657495020","45.36.18.87","Mozilla/5.0 (Macintosh; Intel Mac OS X 10_15_7) AppleWebKit/537.36 (KHTML, like Gecko) Chrome/132.0.0.0 Safari/537.36","Macintosh","Chrome","132.0.0.0","OS X","10_15_7","https://app.prolific.com/","en-US,en;q=0.9","671d44c91d7089c757cf3a7e","679edb085803f58d6bbd31ca","679ef545c59970ffbed5e471","","null","<img     src='G_8.jpg' height='90'> <img     src='G_1.jpg' height='90'> <img     src='G_3.jpg' height='90'> <img     src='G_4.jpg' height='90'> <img id='selected'     src='G_7.jpg' height='90'> <img id='selected' src='G_6.jpg' height='90'> <img src='G_2.jpg' height='90'> <img src='G_5.jpg' height='90'>","null","Animation1","",""
"","","","","","html-keyboard-response","120","111021","0.0-89.0","41","1","2025-02-02 04:32:08","bc01a2b6f61d06f6604adb8657495020","45.36.18.87","Mozilla/5.0 (Macintosh; Intel Mac OS X 10_15_7) AppleWebKit/537.36 (KHTML, like Gecko) Chrome/132.0.0.0 Safari/537.36","Macintosh","Chrome","132.0.0.0","OS X","10_15_7","https://app.prolific.com/","en-US,en;q=0.9","671d44c91d7089c757cf3a7e","679edb085803f58d6bbd31ca","679ef545c59970ffbed5e471","","null","<img     src='G_8.jpg' height='90'> <img     src='G_1.jpg' height='90'> <img     src='G_3.jpg' height='90'> <img     src='G_4.jpg' height='90'> <img id='swapped' src='G_6.jpg' height='90'> <img id='swapped'     src='G_7.jpg' height='90'> <img src='G_2.jpg' height='90'> <img src='G_5.jpg' height='90'>","null","Animation1","",""
"","","","","","html-keyboard-response","121","111328","0.0-90.0","41","1","2025-02-02 04:32:08","bc01a2b6f61d06f6604adb8657495020","45.36.18.87","Mozilla/5.0 (Macintosh; Intel Mac OS X 10_15_7) AppleWebKit/537.36 (KHTML, like Gecko) Chrome/132.0.0.0 Safari/537.36","Macintosh","Chrome","132.0.0.0","OS X","10_15_7","https://app.prolific.com/","en-US,en;q=0.9","671d44c91d7089c757cf3a7e","679edb085803f58d6bbd31ca","679ef545c59970ffbed5e471","","null","<img     src='G_8.jpg' height='90'> <img     src='G_1.jpg' height='90'> <img     src='G_3.jpg' height='90'> <img     src='G_4.jpg' height='90'> <img  src='G_6.jpg' height='90'> <img      src='G_7.jpg' height='90'> <img src='G_2.jpg' height='90'> <img src='G_5.jpg' height='90'>","null","Animation1","",""
"","","","","","html-keyboard-response","122","111834","0.0-91.0","41","1","2025-02-02 04:32:08","bc01a2b6f61d06f6604adb8657495020","45.36.18.87","Mozilla/5.0 (Macintosh; Intel Mac OS X 10_15_7) AppleWebKit/537.36 (KHTML, like Gecko) Chrome/132.0.0.0 Safari/537.36","Macintosh","Chrome","132.0.0.0","OS X","10_15_7","https://app.prolific.com/","en-US,en;q=0.9","671d44c91d7089c757cf3a7e","679edb085803f58d6bbd31ca","679ef545c59970ffbed5e471","","null","<img     src='G_8.jpg' height='90'> <img     src='G_1.jpg' height='90'> <img     src='G_3.jpg' height='90'> <img id='selected'     src='G_4.jpg' height='90'> <img  src='G_6.jpg' height='90'> <img      src='G_7.jpg' height='90'> <img src='G_2.jpg' height='90'> <img src='G_5.jpg' height='90'>","null","Animation1","",""
"","","","","","html-keyboard-response","123","112343","0.0-92.0","41","1","2025-02-02 04:32:08","bc01a2b6f61d06f6604adb8657495020","45.36.18.87","Mozilla/5.0 (Macintosh; Intel Mac OS X 10_15_7) AppleWebKit/537.36 (KHTML, like Gecko) Chrome/132.0.0.0 Safari/537.36","Macintosh","Chrome","132.0.0.0","OS X","10_15_7","https://app.prolific.com/","en-US,en;q=0.9","671d44c91d7089c757cf3a7e","679edb085803f58d6bbd31ca","679ef545c59970ffbed5e471","","null","<img     src='G_8.jpg' height='90'> <img     src='G_1.jpg' height='90'> <img     src='G_3.jpg' height='90'> <img id='selected'     src='G_4.jpg' height='90'> <img id='selected'  src='G_6.jpg' height='90'> <img      src='G_7.jpg' height='90'> <img src='G_2.jpg' height='90'> <img src='G_5.jpg' height='90'>","null","Animation1","",""
"","","","","","html-keyboard-response","124","112848","0.0-93.0","41","1","2025-02-02 04:32:08","bc01a2b6f61d06f6604adb8657495020","45.36.18.87","Mozilla/5.0 (Macintosh; Intel Mac OS X 10_15_7) AppleWebKit/537.36 (KHTML, like Gecko) Chrome/132.0.0.0 Safari/537.36","Macintosh","Chrome","132.0.0.0","OS X","10_15_7","https://app.prolific.com/","en-US,en;q=0.9","671d44c91d7089c757cf3a7e","679edb085803f58d6bbd31ca","679ef545c59970ffbed5e471","","null","<img     src='G_8.jpg' height='90'> <img     src='G_1.jpg' height='90'> <img     src='G_3.jpg' height='90'> <img id='selected'     src='G_4.jpg' height='90'> <img id='selected'  src='G_6.jpg' height='90'> <img      src='G_7.jpg' height='90'> <img src='G_2.jpg' height='90'> <img src='G_5.jpg' height='90'>","null","Animation1","",""
"","","","","","html-keyboard-response","125","113152","0.0-94.0","41","1","2025-02-02 04:32:08","bc01a2b6f61d06f6604adb8657495020","45.36.18.87","Mozilla/5.0 (Macintosh; Intel Mac OS X 10_15_7) AppleWebKit/537.36 (KHTML, like Gecko) Chrome/132.0.0.0 Safari/537.36","Macintosh","Chrome","132.0.0.0","OS X","10_15_7","https://app.prolific.com/","en-US,en;q=0.9","671d44c91d7089c757cf3a7e","679edb085803f58d6bbd31ca","679ef545c59970ffbed5e471","","null","<img     src='G_8.jpg' height='90'> <img     src='G_1.jpg' height='90'> <img     src='G_3.jpg' height='90'> <img      src='G_4.jpg' height='90'> <img   src='G_6.jpg' height='90'> <img      src='G_7.jpg' height='90'> <img src='G_2.jpg' height='90'> <img src='G_5.jpg' height='90'>","null","Animation1","",""
"","","","","","html-keyboard-response","126","113658","0.0-95.0","41","1","2025-02-02 04:32:08","bc01a2b6f61d06f6604adb8657495020","45.36.18.87","Mozilla/5.0 (Macintosh; Intel Mac OS X 10_15_7) AppleWebKit/537.36 (KHTML, like Gecko) Chrome/132.0.0.0 Safari/537.36","Macintosh","Chrome","132.0.0.0","OS X","10_15_7","https://app.prolific.com/","en-US,en;q=0.9","671d44c91d7089c757cf3a7e","679edb085803f58d6bbd31ca","679ef545c59970ffbed5e471","","null","<img     src='G_8.jpg' height='90'> <img     src='G_1.jpg' height='90'> <img     src='G_3.jpg' height='90'> <img      src='G_4.jpg' height='90'> <img   src='G_6.jpg' height='90'> <img id='selected'      src='G_7.jpg' height='90'> <img src='G_2.jpg' height='90'> <img src='G_5.jpg' height='90'>","null","Animation1","",""
"","","","","","html-keyboard-response","127","114165","0.0-96.0","41","1","2025-02-02 04:32:08","bc01a2b6f61d06f6604adb8657495020","45.36.18.87","Mozilla/5.0 (Macintosh; Intel Mac OS X 10_15_7) AppleWebKit/537.36 (KHTML, like Gecko) Chrome/132.0.0.0 Safari/537.36","Macintosh","Chrome","132.0.0.0","OS X","10_15_7","https://app.prolific.com/","en-US,en;q=0.9","671d44c91d7089c757cf3a7e","679edb085803f58d6bbd31ca","679ef545c59970ffbed5e471","","null","<img     src='G_8.jpg' height='90'> <img     src='G_1.jpg' height='90'> <img     src='G_3.jpg' height='90'> <img      src='G_4.jpg' height='90'> <img   src='G_6.jpg' height='90'> <img id='selected'      src='G_7.jpg' height='90'> <img id='selected' src='G_2.jpg' height='90'> <img src='G_5.jpg' height='90'>","null","Animation1","",""
"","","","","","html-keyboard-response","128","114673","0.0-97.0","41","1","2025-02-02 04:32:08","bc01a2b6f61d06f6604adb8657495020","45.36.18.87","Mozilla/5.0 (Macintosh; Intel Mac OS X 10_15_7) AppleWebKit/537.36 (KHTML, like Gecko) Chrome/132.0.0.0 Safari/537.36","Macintosh","Chrome","132.0.0.0","OS X","10_15_7","https://app.prolific.com/","en-US,en;q=0.9","671d44c91d7089c757cf3a7e","679edb085803f58d6bbd31ca","679ef545c59970ffbed5e471","","null","<img     src='G_8.jpg' height='90'> <img     src='G_1.jpg' height='90'> <img     src='G_3.jpg' height='90'> <img      src='G_4.jpg' height='90'> <img   src='G_6.jpg' height='90'> <img id='selected'      src='G_7.jpg' height='90'> <img id='selected' src='G_2.jpg' height='90'> <img src='G_5.jpg' height='90'>","null","Animation1","",""
"","","","","","html-keyboard-response","129","114978","0.0-98.0","41","1","2025-02-02 04:32:08","bc01a2b6f61d06f6604adb8657495020","45.36.18.87","Mozilla/5.0 (Macintosh; Intel Mac OS X 10_15_7) AppleWebKit/537.36 (KHTML, like Gecko) Chrome/132.0.0.0 Safari/537.36","Macintosh","Chrome","132.0.0.0","OS X","10_15_7","https://app.prolific.com/","en-US,en;q=0.9","671d44c91d7089c757cf3a7e","679edb085803f58d6bbd31ca","679ef545c59970ffbed5e471","","null","<img     src='G_8.jpg' height='90'> <img     src='G_1.jpg' height='90'> <img     src='G_3.jpg' height='90'> <img      src='G_4.jpg' height='90'> <img   src='G_6.jpg' height='90'> <img       src='G_7.jpg' height='90'> <img  src='G_2.jpg' height='90'> <img src='G_5.jpg' height='90'>","null","Animation1","",""
"","","","","","html-keyboard-response","130","115485","0.0-99.0","41","1","2025-02-02 04:32:08","bc01a2b6f61d06f6604adb8657495020","45.36.18.87","Mozilla/5.0 (Macintosh; Intel Mac OS X 10_15_7) AppleWebKit/537.36 (KHTML, like Gecko) Chrome/132.0.0.0 Safari/537.36","Macintosh","Chrome","132.0.0.0","OS X","10_15_7","https://app.prolific.com/","en-US,en;q=0.9","671d44c91d7089c757cf3a7e","679edb085803f58d6bbd31ca","679ef545c59970ffbed5e471","","null","<img     src='G_8.jpg' height='90'> <img     src='G_1.jpg' height='90'> <img     src='G_3.jpg' height='90'> <img      src='G_4.jpg' height='90'> <img   src='G_6.jpg' height='90'> <img       src='G_7.jpg' height='90'> <img id='selected'  src='G_2.jpg' height='90'> <img src='G_5.jpg' height='90'>","null","Animation1","",""
"","","","","","html-keyboard-response","131","115991","0.0-100.0","41","1","2025-02-02 04:32:08","bc01a2b6f61d06f6604adb8657495020","45.36.18.87","Mozilla/5.0 (Macintosh; Intel Mac OS X 10_15_7) AppleWebKit/537.36 (KHTML, like Gecko) Chrome/132.0.0.0 Safari/537.36","Macintosh","Chrome","132.0.0.0","OS X","10_15_7","https://app.prolific.com/","en-US,en;q=0.9","671d44c91d7089c757cf3a7e","679edb085803f58d6bbd31ca","679ef545c59970ffbed5e471","","null","<img     src='G_8.jpg' height='90'> <img     src='G_1.jpg' height='90'> <img     src='G_3.jpg' height='90'> <img      src='G_4.jpg' height='90'> <img   src='G_6.jpg' height='90'> <img       src='G_7.jpg' height='90'> <img id='selected'  src='G_2.jpg' height='90'> <img id='selected' src='G_5.jpg' height='90'>","null","Animation1","",""
"","","","","","html-keyboard-response","132","116498","0.0-101.0","41","1","2025-02-02 04:32:08","bc01a2b6f61d06f6604adb8657495020","45.36.18.87","Mozilla/5.0 (Macintosh; Intel Mac OS X 10_15_7) AppleWebKit/537.36 (KHTML, like Gecko) Chrome/132.0.0.0 Safari/537.36","Macintosh","Chrome","132.0.0.0","OS X","10_15_7","https://app.prolific.com/","en-US,en;q=0.9","671d44c91d7089c757cf3a7e","679edb085803f58d6bbd31ca","679ef545c59970ffbed5e471","","null","<img     src='G_8.jpg' height='90'> <img     src='G_1.jpg' height='90'> <img     src='G_3.jpg' height='90'> <img      src='G_4.jpg' height='90'> <img   src='G_6.jpg' height='90'> <img       src='G_7.jpg' height='90'> <img id='swapped' src='G_5.jpg' height='90'> <img id='swapped'  src='G_2.jpg' height='90'>","null","Animation1","",""
"","","","","","html-keyboard-response","133","116807","0.0-102.0","41","1","2025-02-02 04:32:08","bc01a2b6f61d06f6604adb8657495020","45.36.18.87","Mozilla/5.0 (Macintosh; Intel Mac OS X 10_15_7) AppleWebKit/537.36 (KHTML, like Gecko) Chrome/132.0.0.0 Safari/537.36","Macintosh","Chrome","132.0.0.0","OS X","10_15_7","https://app.prolific.com/","en-US,en;q=0.9","671d44c91d7089c757cf3a7e","679edb085803f58d6bbd31ca","679ef545c59970ffbed5e471","","null","<img     src='G_8.jpg' height='90'> <img     src='G_1.jpg' height='90'> <img     src='G_3.jpg' height='90'> <img      src='G_4.jpg' height='90'> <img   src='G_6.jpg' height='90'> <img       src='G_7.jpg' height='90'> <img  src='G_5.jpg' height='90'> <img   src='G_2.jpg' height='90'>","null","Animation1","",""
"","","","","","html-keyboard-response","134","117314","0.0-103.0","41","1","2025-02-02 04:32:08","bc01a2b6f61d06f6604adb8657495020","45.36.18.87","Mozilla/5.0 (Macintosh; Intel Mac OS X 10_15_7) AppleWebKit/537.36 (KHTML, like Gecko) Chrome/132.0.0.0 Safari/537.36","Macintosh","Chrome","132.0.0.0","OS X","10_15_7","https://app.prolific.com/","en-US,en;q=0.9","671d44c91d7089c757cf3a7e","679edb085803f58d6bbd31ca","679ef545c59970ffbed5e471","","null","<img     src='G_8.jpg' height='90'> <img     src='G_1.jpg' height='90'> <img     src='G_3.jpg' height='90'> <img      src='G_4.jpg' height='90'> <img   src='G_6.jpg' height='90'> <img id='selected'       src='G_7.jpg' height='90'> <img  src='G_5.jpg' height='90'> <img   src='G_2.jpg' height='90'>","null","Animation1","",""
"","","","","","html-keyboard-response","135","117819","0.0-104.0","41","1","2025-02-02 04:32:08","bc01a2b6f61d06f6604adb8657495020","45.36.18.87","Mozilla/5.0 (Macintosh; Intel Mac OS X 10_15_7) AppleWebKit/537.36 (KHTML, like Gecko) Chrome/132.0.0.0 Safari/537.36","Macintosh","Chrome","132.0.0.0","OS X","10_15_7","https://app.prolific.com/","en-US,en;q=0.9","671d44c91d7089c757cf3a7e","679edb085803f58d6bbd31ca","679ef545c59970ffbed5e471","","null","<img     src='G_8.jpg' height='90'> <img     src='G_1.jpg' height='90'> <img     src='G_3.jpg' height='90'> <img      src='G_4.jpg' height='90'> <img   src='G_6.jpg' height='90'> <img id='selected'       src='G_7.jpg' height='90'> <img id='selected'  src='G_5.jpg' height='90'> <img   src='G_2.jpg' height='90'>","null","Animation1","",""
"","","","","","html-keyboard-response","136","118325","0.0-105.0","41","1","2025-02-02 04:32:08","bc01a2b6f61d06f6604adb8657495020","45.36.18.87","Mozilla/5.0 (Macintosh; Intel Mac OS X 10_15_7) AppleWebKit/537.36 (KHTML, like Gecko) Chrome/132.0.0.0 Safari/537.36","Macintosh","Chrome","132.0.0.0","OS X","10_15_7","https://app.prolific.com/","en-US,en;q=0.9","671d44c91d7089c757cf3a7e","679edb085803f58d6bbd31ca","679ef545c59970ffbed5e471","","null","<img     src='G_8.jpg' height='90'> <img     src='G_1.jpg' height='90'> <img     src='G_3.jpg' height='90'> <img      src='G_4.jpg' height='90'> <img   src='G_6.jpg' height='90'> <img id='selected'       src='G_7.jpg' height='90'> <img id='selected'  src='G_5.jpg' height='90'> <img   src='G_2.jpg' height='90'>","null","Animation1","",""
"","","","","","html-keyboard-response","137","118632","0.0-106.0","41","1","2025-02-02 04:32:08","bc01a2b6f61d06f6604adb8657495020","45.36.18.87","Mozilla/5.0 (Macintosh; Intel Mac OS X 10_15_7) AppleWebKit/537.36 (KHTML, like Gecko) Chrome/132.0.0.0 Safari/537.36","Macintosh","Chrome","132.0.0.0","OS X","10_15_7","https://app.prolific.com/","en-US,en;q=0.9","671d44c91d7089c757cf3a7e","679edb085803f58d6bbd31ca","679ef545c59970ffbed5e471","","null","<img     src='G_8.jpg' height='90'> <img     src='G_1.jpg' height='90'> <img     src='G_3.jpg' height='90'> <img      src='G_4.jpg' height='90'> <img   src='G_6.jpg' height='90'> <img        src='G_7.jpg' height='90'> <img   src='G_5.jpg' height='90'> <img   src='G_2.jpg' height='90'>","null","Animation1","",""
"","","","","","html-keyboard-response","138","119465","0.0-107.0","41","1","2025-02-02 04:32:08","bc01a2b6f61d06f6604adb8657495020","45.36.18.87","Mozilla/5.0 (Macintosh; Intel Mac OS X 10_15_7) AppleWebKit/537.36 (KHTML, like Gecko) Chrome/132.0.0.0 Safari/537.36","Macintosh","Chrome","132.0.0.0","OS X","10_15_7","https://app.prolific.com/","en-US,en;q=0.9","671d44c91d7089c757cf3a7e","679edb085803f58d6bbd31ca","679ef545c59970ffbed5e471","","826","[""Did you notice any patterns? <br><br>Press Enter to watch that example again and follow the steps of Omgne Sort.""]"," ","","",""
"","","","","","html-button-response","139","119872","0.0-108.0","41","1","2025-02-02 04:32:08","bc01a2b6f61d06f6604adb8657495020","45.36.18.87","Mozilla/5.0 (Macintosh; Intel Mac OS X 10_15_7) AppleWebKit/537.36 (KHTML, like Gecko) Chrome/132.0.0.0 Safari/537.36","Macintosh","Chrome","132.0.0.0","OS X","10_15_7","https://app.prolific.com/","en-US,en;q=0.9","671d44c91d7089c757cf3a7e","679edb085803f58d6bbd31ca","679ef545c59970ffbed5e471","","null","<img id='selected' src='G_4.jpg' height='90'> <img src='G_7.jpg' height='90'> <img src='G_3.jpg' height='90'> <img src='G_8.jpg' height='90'> <img src='G_1.jpg' height='90'> <img src='G_6.jpg' height='90'> <img src='G_2.jpg' height='90'> <img src='G_5.jpg' height='90'>","null","Learning example 1","",""
"","","","","","html-button-response","140","120181","0.0-109.0","41","1","2025-02-02 04:32:08","bc01a2b6f61d06f6604adb8657495020","45.36.18.87","Mozilla/5.0 (Macintosh; Intel Mac OS X 10_15_7) AppleWebKit/537.36 (KHTML, like Gecko) Chrome/132.0.0.0 Safari/537.36","Macintosh","Chrome","132.0.0.0","OS X","10_15_7","https://app.prolific.com/","en-US,en;q=0.9","671d44c91d7089c757cf3a7e","679edb085803f58d6bbd31ca","679ef545c59970ffbed5e471","","null","<img id='selected' src='G_4.jpg' height='90'> <img id='selected' src='G_7.jpg' height='90'> <img src='G_3.jpg' height='90'> <img src='G_8.jpg' height='90'> <img src='G_1.jpg' height='90'> <img src='G_6.jpg' height='90'> <img src='G_2.jpg' height='90'> <img src='G_5.jpg' height='90'>","null","Learning example 1","",""
"","","","","","html-button-response","141","120490","0.0-110.0","41","1","2025-02-02 04:32:08","bc01a2b6f61d06f6604adb8657495020","45.36.18.87","Mozilla/5.0 (Macintosh; Intel Mac OS X 10_15_7) AppleWebKit/537.36 (KHTML, like Gecko) Chrome/132.0.0.0 Safari/537.36","Macintosh","Chrome","132.0.0.0","OS X","10_15_7","https://app.prolific.com/","en-US,en;q=0.9","671d44c91d7089c757cf3a7e","679edb085803f58d6bbd31ca","679ef545c59970ffbed5e471","","null","<img id='selected' src='G_4.jpg' height='90'> <img id='selected' src='G_7.jpg' height='90'> <img src='G_3.jpg' height='90'> <img src='G_8.jpg' height='90'> <img src='G_1.jpg' height='90'> <img src='G_6.jpg' height='90'> <img src='G_2.jpg' height='90'> <img src='G_5.jpg' height='90'>","null","Learning example 1","",""
"","","","","","html-button-response","142","120918","0.0-111.0-0.0-0.0","41","1","2025-02-02 04:32:08","bc01a2b6f61d06f6604adb8657495020","45.36.18.87","Mozilla/5.0 (Macintosh; Intel Mac OS X 10_15_7) AppleWebKit/537.36 (KHTML, like Gecko) Chrome/132.0.0.0 Safari/537.36","Macintosh","Chrome","132.0.0.0","OS X","10_15_7","https://app.prolific.com/","en-US,en;q=0.9","671d44c91d7089c757cf3a7e","679edb085803f58d6bbd31ca","679ef545c59970ffbed5e471","","421","<img id='selected' src='G_4.jpg' height='90'> <img id='selected' src='G_7.jpg' height='90'> <img src='G_3.jpg' height='90'> <img src='G_8.jpg' height='90'> <img src='G_1.jpg' height='90'> <img src='G_6.jpg' height='90'> <img src='G_2.jpg' height='90'> <img src='G_5.jpg' height='90'>","1","Learning example 1","",""
"","","","","","html-button-response","143","121484","0.0-111.1-0.1-0.1","41","1","2025-02-02 04:32:08","bc01a2b6f61d06f6604adb8657495020","45.36.18.87","Mozilla/5.0 (Macintosh; Intel Mac OS X 10_15_7) AppleWebKit/537.36 (KHTML, like Gecko) Chrome/132.0.0.0 Safari/537.36","Macintosh","Chrome","132.0.0.0","OS X","10_15_7","https://app.prolific.com/","en-US,en;q=0.9","671d44c91d7089c757cf3a7e","679edb085803f58d6bbd31ca","679ef545c59970ffbed5e471","","558","<img id='selected' src='G_4.jpg' height='90'> <img id='selected' src='G_7.jpg' height='90'> <img src='G_3.jpg' height='90'> <img src='G_8.jpg' height='90'> <img src='G_1.jpg' height='90'> <img src='G_6.jpg' height='90'> <img src='G_2.jpg' height='90'> <img src='G_5.jpg' height='90'>","0","Learning example 1","",""
"","","","","","html-button-response","144","121692","0.0-112.0","41","1","2025-02-02 04:32:08","bc01a2b6f61d06f6604adb8657495020","45.36.18.87","Mozilla/5.0 (Macintosh; Intel Mac OS X 10_15_7) AppleWebKit/537.36 (KHTML, like Gecko) Chrome/132.0.0.0 Safari/537.36","Macintosh","Chrome","132.0.0.0","OS X","10_15_7","https://app.prolific.com/","en-US,en;q=0.9","671d44c91d7089c757cf3a7e","679edb085803f58d6bbd31ca","679ef545c59970ffbed5e471","","null","<img  src='G_4.jpg' height='90'> <img  src='G_7.jpg' height='90'> <img src='G_3.jpg' height='90'> <img src='G_8.jpg' height='90'> <img src='G_1.jpg' height='90'> <img src='G_6.jpg' height='90'> <img src='G_2.jpg' height='90'> <img src='G_5.jpg' height='90'>","null","Learning example 1","",""
"","","","","","html-button-response","145","122100","0.0-113.0","41","1","2025-02-02 04:32:08","bc01a2b6f61d06f6604adb8657495020","45.36.18.87","Mozilla/5.0 (Macintosh; Intel Mac OS X 10_15_7) AppleWebKit/537.36 (KHTML, like Gecko) Chrome/132.0.0.0 Safari/537.36","Macintosh","Chrome","132.0.0.0","OS X","10_15_7","https://app.prolific.com/","en-US,en;q=0.9","671d44c91d7089c757cf3a7e","679edb085803f58d6bbd31ca","679ef545c59970ffbed5e471","","null","<img  src='G_4.jpg' height='90'> <img id='selected'  src='G_7.jpg' height='90'> <img src='G_3.jpg' height='90'> <img src='G_8.jpg' height='90'> <img src='G_1.jpg' height='90'> <img src='G_6.jpg' height='90'> <img src='G_2.jpg' height='90'> <img src='G_5.jpg' height='90'>","null","Learning example 1","",""
"","","","","","html-button-response","146","122407","0.0-114.0","41","1","2025-02-02 04:32:08","bc01a2b6f61d06f6604adb8657495020","45.36.18.87","Mozilla/5.0 (Macintosh; Intel Mac OS X 10_15_7) AppleWebKit/537.36 (KHTML, like Gecko) Chrome/132.0.0.0 Safari/537.36","Macintosh","Chrome","132.0.0.0","OS X","10_15_7","https://app.prolific.com/","en-US,en;q=0.9","671d44c91d7089c757cf3a7e","679edb085803f58d6bbd31ca","679ef545c59970ffbed5e471","","null","<img  src='G_4.jpg' height='90'> <img id='selected'  src='G_7.jpg' height='90'> <img id='selected' src='G_3.jpg' height='90'> <img src='G_8.jpg' height='90'> <img src='G_1.jpg' height='90'> <img src='G_6.jpg' height='90'> <img src='G_2.jpg' height='90'> <img src='G_5.jpg' height='90'>","null","Learning example 1","",""
"","","","","","html-button-response","147","122651","0.0-115.0","41","1","2025-02-02 04:32:08","bc01a2b6f61d06f6604adb8657495020","45.36.18.87","Mozilla/5.0 (Macintosh; Intel Mac OS X 10_15_7) AppleWebKit/537.36 (KHTML, like Gecko) Chrome/132.0.0.0 Safari/537.36","Macintosh","Chrome","132.0.0.0","OS X","10_15_7","https://app.prolific.com/","en-US,en;q=0.9","671d44c91d7089c757cf3a7e","679edb085803f58d6bbd31ca","679ef545c59970ffbed5e471","","236","<img  src='G_4.jpg' height='90'> <img id='swapped' src='G_3.jpg' height='90'> <img id='swapped'  src='G_7.jpg' height='90'> <img src='G_8.jpg' height='90'> <img src='G_1.jpg' height='90'> <img src='G_6.jpg' height='90'> <img src='G_2.jpg' height='90'> <img src='G_5.jpg' height='90'>","1","Learning example 1","",""
