"success","timeout","failed_images","failed_audio","failed_video","trial_type","trial_index","time_elapsed","internal_node_id","run_id","condition","recorded_at","source_code_version","ip","user_agent","device","browser","browser_version","platform","platform_version","referer","accept_language","PROLIFIC_PID","STUDY_ID","SESSION_ID","view_history","rt","stimulus","response","phase","question_order","presented_choices"
"true","false","[]","[]","[]","preload","0","239","0.0-0.0","42","1","2025-02-02 04:32:50","bc01a2b6f61d06f6604adb8657495020","98.176.1.21","Mozilla/5.0 (X11; CrOS x86_64 14541.0.0) AppleWebKit/537.36 (KHTML, like Gecko) Chrome/132.0.0.0 Safari/537.36","WebKit","Chrome","132.0.0.0","ChromeOS","14541.0.0","https://app.prolific.com/","en-US,en;q=0.9","666dd3d9e53e0ff59d7cc164","679edb085803f58d6bbd31ca","679ef52607399d1264e22948","","","","","","",""
"","","","","","instructions","1","3211","0.0-1.0","42","1","2025-02-02 04:32:50","bc01a2b6f61d06f6604adb8657495020","98.176.1.21","Mozilla/5.0 (X11; CrOS x86_64 14541.0.0) AppleWebKit/537.36 (KHTML, like Gecko) Chrome/132.0.0.0 Safari/537.36","WebKit","Chrome","132.0.0.0","ChromeOS","14541.0.0","https://app.prolific.com/","en-US,en;q=0.9","666dd3d9e53e0ff59d7cc164","679edb085803f58d6bbd31ca","679ef52607399d1264e22948","[{""page_index"":0,""viewing_time"":2968}]","2969","","","","",""
"","","","","","html-keyboard-response","2","3717","0.0-2.0","42","1","2025-02-02 04:32:50","bc01a2b6f61d06f6604adb8657495020","98.176.1.21","Mozilla/5.0 (X11; CrOS x86_64 14541.0.0) AppleWebKit/537.36 (KHTML, like Gecko) Chrome/132.0.0.0 Safari/537.36","WebKit","Chrome","132.0.0.0","ChromeOS","14541.0.0","https://app.prolific.com/","en-US,en;q=0.9","666dd3d9e53e0ff59d7cc164","679edb085803f58d6bbd31ca","679ef52607399d1264e22948","","null","<p> + <p/>","null","","",""
"","","","","","instructions","3","68708","0.0-3.0","42","1","2025-02-02 04:32:50","bc01a2b6f61d06f6604adb8657495020","98.176.1.21","Mozilla/5.0 (X11; CrOS x86_64 14541.0.0) AppleWebKit/537.36 (KHTML, like Gecko) Chrome/132.0.0.0 Safari/537.36","WebKit","Chrome","132.0.0.0","ChromeOS","14541.0.0","https://app.prolific.com/","en-US,en;q=0.9","666dd3d9e53e0ff59d7cc164","679edb085803f58d6bbd31ca","679ef52607399d1264e22948","[{""page_index"":0,""viewing_time"":2304},{""page_index"":1,""viewing_time"":17210},{""page_index"":2,""viewing_time"":4533},{""page_index"":3,""viewing_time"":33729},{""page_index"":4,""viewing_time"":7212}]","64988","","","","",""
"","","","","","html-button-response","4","92531","0.0-4.0-0.0-0.0","42","1","2025-02-02 04:32:50","bc01a2b6f61d06f6604adb8657495020","98.176.1.21","Mozilla/5.0 (X11; CrOS x86_64 14541.0.0) AppleWebKit/537.36 (KHTML, like Gecko) Chrome/132.0.0.0 Safari/537.36","WebKit","Chrome","132.0.0.0","ChromeOS","14541.0.0","https://app.prolific.com/","en-US,en;q=0.9","666dd3d9e53e0ff59d7cc164","679edb085803f58d6bbd31ca","679ef52607399d1264e22948","","23815","","3","Intro Trial","",""
"","","","","","html-button-response","5","94163","0.0-4.1-0.1-0.1","42","1","2025-02-02 04:32:50","bc01a2b6f61d06f6604adb8657495020","98.176.1.21","Mozilla/5.0 (X11; CrOS x86_64 14541.0.0) AppleWebKit/537.36 (KHTML, like Gecko) Chrome/132.0.0.0 Safari/537.36","WebKit","Chrome","132.0.0.0","ChromeOS","14541.0.0","https://app.prolific.com/","en-US,en;q=0.9","666dd3d9e53e0ff59d7cc164","679edb085803f58d6bbd31ca","679ef52607399d1264e22948","","1627","","1","Intro Trial","",""
"","","","","","html-button-response","6","95079","0.0-4.2-0.2-0.2","42","1","2025-02-02 04:32:50","bc01a2b6f61d06f6604adb8657495020","98.176.1.21","Mozilla/5.0 (X11; CrOS x86_64 14541.0.0) AppleWebKit/537.36 (KHTML, like Gecko) Chrome/132.0.0.0 Safari/537.36","WebKit","Chrome","132.0.0.0","ChromeOS","14541.0.0","https://app.prolific.com/","en-US,en;q=0.9","666dd3d9e53e0ff59d7cc164","679edb085803f58d6bbd31ca","679ef52607399d1264e22948","","913","","1","Intro Trial","",""
"","","","","","html-button-response","7","99060","0.0-4.3-0.3-0.3","42","1","2025-02-02 04:32:50","bc01a2b6f61d06f6604adb8657495020","98.176.1.21","Mozilla/5.0 (X11; CrOS x86_64 14541.0.0) AppleWebKit/537.36 (KHTML, like Gecko) Chrome/132.0.0.0 Safari/537.36","WebKit","Chrome","132.0.0.0","ChromeOS","14541.0.0","https://app.prolific.com/","en-US,en;q=0.9","666dd3d9e53e0ff59d7cc164","679edb085803f58d6bbd31ca","679ef52607399d1264e22948","","3978","","3","Intro Trial","",""
"","","","","","html-button-response","8","102303","0.0-4.4-0.4-0.4","42","1","2025-02-02 04:32:50","bc01a2b6f61d06f6604adb8657495020","98.176.1.21","Mozilla/5.0 (X11; CrOS x86_64 14541.0.0) AppleWebKit/537.36 (KHTML, like Gecko) Chrome/132.0.0.0 Safari/537.36","WebKit","Chrome","132.0.0.0","ChromeOS","14541.0.0","https://app.prolific.com/","en-US,en;q=0.9","666dd3d9e53e0ff59d7cc164","679edb085803f58d6bbd31ca","679ef52607399d1264e22948","","3240","","2","Intro Trial","",""
"","","","","","html-button-response","9","104982","0.0-4.5-0.5-0.5","42","1","2025-02-02 04:32:50","bc01a2b6f61d06f6604adb8657495020","98.176.1.21","Mozilla/5.0 (X11; CrOS x86_64 14541.0.0) AppleWebKit/537.36 (KHTML, like Gecko) Chrome/132.0.0.0 Safari/537.36","WebKit","Chrome","132.0.0.0","ChromeOS","14541.0.0","https://app.prolific.com/","en-US,en;q=0.9","666dd3d9e53e0ff59d7cc164","679edb085803f58d6bbd31ca","679ef52607399d1264e22948","","2677","","3","Intro Trial","",""
"","","","","","html-button-response","10","105570","0.0-4.6-0.6-0.6","42","1","2025-02-02 04:32:50","bc01a2b6f61d06f6604adb8657495020","98.176.1.21","Mozilla/5.0 (X11; CrOS x86_64 14541.0.0) AppleWebKit/537.36 (KHTML, like Gecko) Chrome/132.0.0.0 Safari/537.36","WebKit","Chrome","132.0.0.0","ChromeOS","14541.0.0","https://app.prolific.com/","en-US,en;q=0.9","666dd3d9e53e0ff59d7cc164","679edb085803f58d6bbd31ca","679ef52607399d1264e22948","","585","","3","Intro Trial","",""
"","","","","","html-button-response","11","110385","0.0-4.7-0.7-0.7","42","1","2025-02-02 04:32:50","bc01a2b6f61d06f6604adb8657495020","98.176.1.21","Mozilla/5.0 (X11; CrOS x86_64 14541.0.0) AppleWebKit/537.36 (KHTML, like Gecko) Chrome/132.0.0.0 Safari/537.36","WebKit","Chrome","132.0.0.0","ChromeOS","14541.0.0","https://app.prolific.com/","en-US,en;q=0.9","666dd3d9e53e0ff59d7cc164","679edb085803f58d6bbd31ca","679ef52607399d1264e22948","","4812","","0","Intro Trial","",""
"","","","","","html-button-response","12","111124","0.0-4.8-0.8-0.8","42","1","2025-02-02 04:32:50","bc01a2b6f61d06f6604adb8657495020","98.176.1.21","Mozilla/5.0 (X11; CrOS x86_64 14541.0.0) AppleWebKit/537.36 (KHTML, like Gecko) Chrome/132.0.0.0 Safari/537.36","WebKit","Chrome","132.0.0.0","ChromeOS","14541.0.0","https://app.prolific.com/","en-US,en;q=0.9","666dd3d9e53e0ff59d7cc164","679edb085803f58d6bbd31ca","679ef52607399d1264e22948","","737","","0","Intro Trial","",""
"","","","","","html-button-response","13","119674","0.0-4.9-0.9-0.9","42","1","2025-02-02 04:32:50","bc01a2b6f61d06f6604adb8657495020","98.176.1.21","Mozilla/5.0 (X11; CrOS x86_64 14541.0.0) AppleWebKit/537.36 (KHTML, like Gecko) Chrome/132.0.0.0 Safari/537.36","WebKit","Chrome","132.0.0.0","ChromeOS","14541.0.0","https://app.prolific.com/","en-US,en;q=0.9","666dd3d9e53e0ff59d7cc164","679edb085803f58d6bbd31ca","679ef52607399d1264e22948","","8547","","1","Intro Trial","",""
"","","","","","html-button-response","14","124856","0.0-4.10-0.10-0.10","42","1","2025-02-02 04:32:50","bc01a2b6f61d06f6604adb8657495020","98.176.1.21","Mozilla/5.0 (X11; CrOS x86_64 14541.0.0) AppleWebKit/537.36 (KHTML, like Gecko) Chrome/132.0.0.0 Safari/537.36","WebKit","Chrome","132.0.0.0","ChromeOS","14541.0.0","https://app.prolific.com/","en-US,en;q=0.9","666dd3d9e53e0ff59d7cc164","679edb085803f58d6bbd31ca","679ef52607399d1264e22948","","5180","","3","Intro Trial","",""
"","","","","","html-button-response","15","125623","0.0-4.11-0.11-0.11","42","1","2025-02-02 04:32:50","bc01a2b6f61d06f6604adb8657495020","98.176.1.21","Mozilla/5.0 (X11; CrOS x86_64 14541.0.0) AppleWebKit/537.36 (KHTML, like Gecko) Chrome/132.0.0.0 Safari/537.36","WebKit","Chrome","132.0.0.0","ChromeOS","14541.0.0","https://app.prolific.com/","en-US,en;q=0.9","666dd3d9e53e0ff59d7cc164","679edb085803f58d6bbd31ca","679ef52607399d1264e22948","","764","","1","Intro Trial","",""
"","","","","","html-button-response","16","127932","0.0-4.12-0.12-0.12","42","1","2025-02-02 04:32:50","bc01a2b6f61d06f6604adb8657495020","98.176.1.21","Mozilla/5.0 (X11; CrOS x86_64 14541.0.0) AppleWebKit/537.36 (KHTML, like Gecko) Chrome/132.0.0.0 Safari/537.36","WebKit","Chrome","132.0.0.0","ChromeOS","14541.0.0","https://app.prolific.com/","en-US,en;q=0.9","666dd3d9e53e0ff59d7cc164","679edb085803f58d6bbd31ca","679ef52607399d1264e22948","","2306","","4","Intro Trial","",""
"","","","","","html-button-response","17","129007","0.0-4.13-0.13-0.13","42","1","2025-02-02 04:32:50","bc01a2b6f61d06f6604adb8657495020","98.176.1.21","Mozilla/5.0 (X11; CrOS x86_64 14541.0.0) AppleWebKit/537.36 (KHTML, like Gecko) Chrome/132.0.0.0 Safari/537.36","WebKit","Chrome","132.0.0.0","ChromeOS","14541.0.0","https://app.prolific.com/","en-US,en;q=0.9","666dd3d9e53e0ff59d7cc164","679edb085803f58d6bbd31ca","679ef52607399d1264e22948","","1072","","2","Intro Trial","",""
"","","","","","html-button-response","18","130421","0.0-4.14-0.14-0.14","42","1","2025-02-02 04:32:50","bc01a2b6f61d06f6604adb8657495020","98.176.1.21","Mozilla/5.0 (X11; CrOS x86_64 14541.0.0) AppleWebKit/537.36 (KHTML, like Gecko) Chrome/132.0.0.0 Safari/537.36","WebKit","Chrome","132.0.0.0","ChromeOS","14541.0.0","https://app.prolific.com/","en-US,en;q=0.9","666dd3d9e53e0ff59d7cc164","679edb085803f58d6bbd31ca","679ef52607399d1264e22948","","1411","","3","Intro Trial","",""
"","","","","","html-button-response","19","131138","0.0-4.15-0.15-0.15","42","1","2025-02-02 04:32:50","bc01a2b6f61d06f6604adb8657495020","98.176.1.21","Mozilla/5.0 (X11; CrOS x86_64 14541.0.0) AppleWebKit/537.36 (KHTML, like Gecko) Chrome/132.0.0.0 Safari/537.36","WebKit","Chrome","132.0.0.0","ChromeOS","14541.0.0","https://app.prolific.com/","en-US,en;q=0.9","666dd3d9e53e0ff59d7cc164","679edb085803f58d6bbd31ca","679ef52607399d1264e22948","","715","","4","Intro Trial","",""
"","","","","","html-button-response","20","134224","0.0-4.16-0.16-0.16","42","1","2025-02-02 04:32:50","bc01a2b6f61d06f6604adb8657495020","98.176.1.21","Mozilla/5.0 (X11; CrOS x86_64 14541.0.0) AppleWebKit/537.36 (KHTML, like Gecko) Chrome/132.0.0.0 Safari/537.36","WebKit","Chrome","132.0.0.0","ChromeOS","14541.0.0","https://app.prolific.com/","en-US,en;q=0.9","666dd3d9e53e0ff59d7cc164","679edb085803f58d6bbd31ca","679ef52607399d1264e22948","","3083","","5","Intro Trial","",""
"","","","","","html-keyboard-response","21","149298","0.0-5.0","42","1","2025-02-02 04:32:50","bc01a2b6f61d06f6604adb8657495020","98.176.1.21","Mozilla/5.0 (X11; CrOS x86_64 14541.0.0) AppleWebKit/537.36 (KHTML, like Gecko) Chrome/132.0.0.0 Safari/537.36","WebKit","Chrome","132.0.0.0","ChromeOS","14541.0.0","https://app.prolific.com/","en-US,en;q=0.9","666dd3d9e53e0ff59d7cc164","679edb085803f58d6bbd31ca","679ef52607399d1264e22948","","15071","[""You sorted incorrectly by using the balance 8 times. <br><br> <img src='G_2.jpg' height='90'><img src='G_1.jpg' height='90'><img src='G_5.jpg' height='90'><img src='G_3.jpg' height='90'><img src='G_4.jpg' height='90'><br><br> Your final order is 2,4,1,3,5<br><br><br>Omgne Sort in this game will allow you to sort correctly by using the balance 8 times. Press Enter to learn it!""]","enter","","",""
"","","","","","html-keyboard-response","22","178605","0.0-6.0","42","1","2025-02-02 04:32:50","bc01a2b6f61d06f6604adb8657495020","98.176.1.21","Mozilla/5.0 (X11; CrOS x86_64 14541.0.0) AppleWebKit/537.36 (KHTML, like Gecko) Chrome/132.0.0.0 Safari/537.36","WebKit","Chrome","132.0.0.0","ChromeOS","14541.0.0","https://app.prolific.com/","en-US,en;q=0.9","666dd3d9e53e0ff59d7cc164","679edb085803f58d6bbd31ca","679ef52607399d1264e22948","","29300","<p>Welcome to the learning phase! <br><br> You will learn by six examples. The following learning trials will not be used to calculate your performance. <br><br> Press Enter to continue.<p/>","enter","","",""
"","","","","","html-keyboard-response","23","195130","0.0-7.0","42","1","2025-02-02 04:32:50","bc01a2b6f61d06f6604adb8657495020","98.176.1.21","Mozilla/5.0 (X11; CrOS x86_64 14541.0.0) AppleWebKit/537.36 (KHTML, like Gecko) Chrome/132.0.0.0 Safari/537.36","WebKit","Chrome","132.0.0.0","ChromeOS","14541.0.0","https://app.prolific.com/","en-US,en;q=0.9","666dd3d9e53e0ff59d7cc164","679edb085803f58d6bbd31ca","679ef52607399d1264e22948","","16521","[""Example 1<br><br>You will watch Omnge Sort in action. Try to identify any patterns in the comparisons made by this method. <br><br>Press Enter to continue.""]","enter","","",""
"","","","","","html-keyboard-response","24","195635","0.0-8.0","42","1","2025-02-02 04:32:50","bc01a2b6f61d06f6604adb8657495020","98.176.1.21","Mozilla/5.0 (X11; CrOS x86_64 14541.0.0) AppleWebKit/537.36 (KHTML, like Gecko) Chrome/132.0.0.0 Safari/537.36","WebKit","Chrome","132.0.0.0","ChromeOS","14541.0.0","https://app.prolific.com/","en-US,en;q=0.9","666dd3d9e53e0ff59d7cc164","679edb085803f58d6bbd31ca","679ef52607399d1264e22948","","null","<img id='selected' src='G_3.jpg' height='90'> <img src='G_7.jpg' height='90'> <img src='G_9.jpg' height='90'> <img src='G_1.jpg' height='90'> <img src='G_5.jpg' height='90'>","null","Animation0","",""
"","","","","","html-keyboard-response","25","196139","0.0-9.0","42","1","2025-02-02 04:32:50","bc01a2b6f61d06f6604adb8657495020","98.176.1.21","Mozilla/5.0 (X11; CrOS x86_64 14541.0.0) AppleWebKit/537.36 (KHTML, like Gecko) Chrome/132.0.0.0 Safari/537.36","WebKit","Chrome","132.0.0.0","ChromeOS","14541.0.0","https://app.prolific.com/","en-US,en;q=0.9","666dd3d9e53e0ff59d7cc164","679edb085803f58d6bbd31ca","679ef52607399d1264e22948","","null","<img id='selected' src='G_3.jpg' height='90'> <img id='selected' src='G_7.jpg' height='90'> <img src='G_9.jpg' height='90'> <img src='G_1.jpg' height='90'> <img src='G_5.jpg' height='90'>","null","Animation0","",""
"","","","","","html-keyboard-response","26","196646","0.0-10.0","42","1","2025-02-02 04:32:50","bc01a2b6f61d06f6604adb8657495020","98.176.1.21","Mozilla/5.0 (X11; CrOS x86_64 14541.0.0) AppleWebKit/537.36 (KHTML, like Gecko) Chrome/132.0.0.0 Safari/537.36","WebKit","Chrome","132.0.0.0","ChromeOS","14541.0.0","https://app.prolific.com/","en-US,en;q=0.9","666dd3d9e53e0ff59d7cc164","679edb085803f58d6bbd31ca","679ef52607399d1264e22948","","null","<img id='swapped' src='G_7.jpg' height='90'> <img id='swapped' src='G_3.jpg' height='90'> <img src='G_9.jpg' height='90'> <img src='G_1.jpg' height='90'> <img src='G_5.jpg' height='90'>","null","Animation0","",""
"","","","","","html-keyboard-response","27","196953","0.0-11.0","42","1","2025-02-02 04:32:50","bc01a2b6f61d06f6604adb8657495020","98.176.1.21","Mozilla/5.0 (X11; CrOS x86_64 14541.0.0) AppleWebKit/537.36 (KHTML, like Gecko) Chrome/132.0.0.0 Safari/537.36","WebKit","Chrome","132.0.0.0","ChromeOS","14541.0.0","https://app.prolific.com/","en-US,en;q=0.9","666dd3d9e53e0ff59d7cc164","679edb085803f58d6bbd31ca","679ef52607399d1264e22948","","null","<img  src='G_7.jpg' height='90'> <img  src='G_3.jpg' height='90'> <img src='G_9.jpg' height='90'> <img src='G_1.jpg' height='90'> <img src='G_5.jpg' height='90'>","null","Animation0","",""
"","","","","","html-keyboard-response","28","197459","0.0-12.0","42","1","2025-02-02 04:32:50","bc01a2b6f61d06f6604adb8657495020","98.176.1.21","Mozilla/5.0 (X11; CrOS x86_64 14541.0.0) AppleWebKit/537.36 (KHTML, like Gecko) Chrome/132.0.0.0 Safari/537.36","WebKit","Chrome","132.0.0.0","ChromeOS","14541.0.0","https://app.prolific.com/","en-US,en;q=0.9","666dd3d9e53e0ff59d7cc164","679edb085803f58d6bbd31ca","679ef52607399d1264e22948","","null","<img  src='G_7.jpg' height='90'> <img id='selected'  src='G_3.jpg' height='90'> <img src='G_9.jpg' height='90'> <img src='G_1.jpg' height='90'> <img src='G_5.jpg' height='90'>","null","Animation0","",""
"","","","","","html-keyboard-response","29","197965","0.0-13.0","42","1","2025-02-02 04:32:50","bc01a2b6f61d06f6604adb8657495020","98.176.1.21","Mozilla/5.0 (X11; CrOS x86_64 14541.0.0) AppleWebKit/537.36 (KHTML, like Gecko) Chrome/132.0.0.0 Safari/537.36","WebKit","Chrome","132.0.0.0","ChromeOS","14541.0.0","https://app.prolific.com/","en-US,en;q=0.9","666dd3d9e53e0ff59d7cc164","679edb085803f58d6bbd31ca","679ef52607399d1264e22948","","null","<img  src='G_7.jpg' height='90'> <img id='selected'  src='G_3.jpg' height='90'> <img id='selected' src='G_9.jpg' height='90'> <img src='G_1.jpg' height='90'> <img src='G_5.jpg' height='90'>","null","Animation0","",""
"","","","","","html-keyboard-response","30","198471","0.0-14.0","42","1","2025-02-02 04:32:50","bc01a2b6f61d06f6604adb8657495020","98.176.1.21","Mozilla/5.0 (X11; CrOS x86_64 14541.0.0) AppleWebKit/537.36 (KHTML, like Gecko) Chrome/132.0.0.0 Safari/537.36","WebKit","Chrome","132.0.0.0","ChromeOS","14541.0.0","https://app.prolific.com/","en-US,en;q=0.9","666dd3d9e53e0ff59d7cc164","679edb085803f58d6bbd31ca","679ef52607399d1264e22948","","null","<img  src='G_7.jpg' height='90'> <img id='selected'  src='G_3.jpg' height='90'> <img id='selected' src='G_9.jpg' height='90'> <img src='G_1.jpg' height='90'> <img src='G_5.jpg' height='90'>","null","Animation0","",""
"","","","","","html-keyboard-response","31","198777","0.0-15.0","42","1","2025-02-02 04:32:50","bc01a2b6f61d06f6604adb8657495020","98.176.1.21","Mozilla/5.0 (X11; CrOS x86_64 14541.0.0) AppleWebKit/537.36 (KHTML, like Gecko) Chrome/132.0.0.0 Safari/537.36","WebKit","Chrome","132.0.0.0","ChromeOS","14541.0.0","https://app.prolific.com/","en-US,en;q=0.9","666dd3d9e53e0ff59d7cc164","679edb085803f58d6bbd31ca","679ef52607399d1264e22948","","null","<img  src='G_7.jpg' height='90'> <img   src='G_3.jpg' height='90'> <img  src='G_9.jpg' height='90'> <img src='G_1.jpg' height='90'> <img src='G_5.jpg' height='90'>","null","Animation0","",""
"","","","","","html-keyboard-response","32","199283","0.0-16.0","42","1","2025-02-02 04:32:50","bc01a2b6f61d06f6604adb8657495020","98.176.1.21","Mozilla/5.0 (X11; CrOS x86_64 14541.0.0) AppleWebKit/537.36 (KHTML, like Gecko) Chrome/132.0.0.0 Safari/537.36","WebKit","Chrome","132.0.0.0","ChromeOS","14541.0.0","https://app.prolific.com/","en-US,en;q=0.9","666dd3d9e53e0ff59d7cc164","679edb085803f58d6bbd31ca","679ef52607399d1264e22948","","null","<img  src='G_7.jpg' height='90'> <img   src='G_3.jpg' height='90'> <img id='selected'  src='G_9.jpg' height='90'> <img src='G_1.jpg' height='90'> <img src='G_5.jpg' height='90'>","null","Animation0","",""
"","","","","","html-keyboard-response","33","199790","0.0-17.0","42","1","2025-02-02 04:32:50","bc01a2b6f61d06f6604adb8657495020","98.176.1.21","Mozilla/5.0 (X11; CrOS x86_64 14541.0.0) AppleWebKit/537.36 (KHTML, like Gecko) Chrome/132.0.0.0 Safari/537.36","WebKit","Chrome","132.0.0.0","ChromeOS","14541.0.0","https://app.prolific.com/","en-US,en;q=0.9","666dd3d9e53e0ff59d7cc164","679edb085803f58d6bbd31ca","679ef52607399d1264e22948","","null","<img  src='G_7.jpg' height='90'> <img   src='G_3.jpg' height='90'> <img id='selected'  src='G_9.jpg' height='90'> <img id='selected' src='G_1.jpg' height='90'> <img src='G_5.jpg' height='90'>","null","Animation0","",""
"","","","","","html-keyboard-response","34","200296","0.0-18.0","42","1","2025-02-02 04:32:50","bc01a2b6f61d06f6604adb8657495020","98.176.1.21","Mozilla/5.0 (X11; CrOS x86_64 14541.0.0) AppleWebKit/537.36 (KHTML, like Gecko) Chrome/132.0.0.0 Safari/537.36","WebKit","Chrome","132.0.0.0","ChromeOS","14541.0.0","https://app.prolific.com/","en-US,en;q=0.9","666dd3d9e53e0ff59d7cc164","679edb085803f58d6bbd31ca","679ef52607399d1264e22948","","null","<img  src='G_7.jpg' height='90'> <img   src='G_3.jpg' height='90'> <img id='selected'  src='G_9.jpg' height='90'> <img id='selected' src='G_1.jpg' height='90'> <img src='G_5.jpg' height='90'>","null","Animation0","",""
"","","","","","html-keyboard-response","35","200603","0.0-19.0","42","1","2025-02-02 04:32:50","bc01a2b6f61d06f6604adb8657495020","98.176.1.21","Mozilla/5.0 (X11; CrOS x86_64 14541.0.0) AppleWebKit/537.36 (KHTML, like Gecko) Chrome/132.0.0.0 Safari/537.36","WebKit","Chrome","132.0.0.0","ChromeOS","14541.0.0","https://app.prolific.com/","en-US,en;q=0.9","666dd3d9e53e0ff59d7cc164","679edb085803f58d6bbd31ca","679ef52607399d1264e22948","","null","<img  src='G_7.jpg' height='90'> <img   src='G_3.jpg' height='90'> <img   src='G_9.jpg' height='90'> <img  src='G_1.jpg' height='90'> <img src='G_5.jpg' height='90'>","null","Animation0","",""
"","","","","","html-keyboard-response","36","201111","0.0-20.0","42","1","2025-02-02 04:32:50","bc01a2b6f61d06f6604adb8657495020","98.176.1.21","Mozilla/5.0 (X11; CrOS x86_64 14541.0.0) AppleWebKit/537.36 (KHTML, like Gecko) Chrome/132.0.0.0 Safari/537.36","WebKit","Chrome","132.0.0.0","ChromeOS","14541.0.0","https://app.prolific.com/","en-US,en;q=0.9","666dd3d9e53e0ff59d7cc164","679edb085803f58d6bbd31ca","679ef52607399d1264e22948","","null","<img  src='G_7.jpg' height='90'> <img   src='G_3.jpg' height='90'> <img   src='G_9.jpg' height='90'> <img id='selected'  src='G_1.jpg' height='90'> <img src='G_5.jpg' height='90'>","null","Animation0","",""
"","","","","","html-keyboard-response","37","201615","0.0-21.0","42","1","2025-02-02 04:32:50","bc01a2b6f61d06f6604adb8657495020","98.176.1.21","Mozilla/5.0 (X11; CrOS x86_64 14541.0.0) AppleWebKit/537.36 (KHTML, like Gecko) Chrome/132.0.0.0 Safari/537.36","WebKit","Chrome","132.0.0.0","ChromeOS","14541.0.0","https://app.prolific.com/","en-US,en;q=0.9","666dd3d9e53e0ff59d7cc164","679edb085803f58d6bbd31ca","679ef52607399d1264e22948","","null","<img  src='G_7.jpg' height='90'> <img   src='G_3.jpg' height='90'> <img   src='G_9.jpg' height='90'> <img id='selected'  src='G_1.jpg' height='90'> <img id='selected' src='G_5.jpg' height='90'>","null","Animation0","",""
"","","","","","html-keyboard-response","38","202123","0.0-22.0","42","1","2025-02-02 04:32:50","bc01a2b6f61d06f6604adb8657495020","98.176.1.21","Mozilla/5.0 (X11; CrOS x86_64 14541.0.0) AppleWebKit/537.36 (KHTML, like Gecko) Chrome/132.0.0.0 Safari/537.36","WebKit","Chrome","132.0.0.0","ChromeOS","14541.0.0","https://app.prolific.com/","en-US,en;q=0.9","666dd3d9e53e0ff59d7cc164","679edb085803f58d6bbd31ca","679ef52607399d1264e22948","","null","<img  src='G_7.jpg' height='90'> <img   src='G_3.jpg' height='90'> <img   src='G_9.jpg' height='90'> <img id='selected'  src='G_1.jpg' height='90'> <img id='selected' src='G_5.jpg' height='90'>","null","Animation0","",""
"","","","","","html-keyboard-response","39","202427","0.0-23.0","42","1","2025-02-02 04:32:50","bc01a2b6f61d06f6604adb8657495020","98.176.1.21","Mozilla/5.0 (X11; CrOS x86_64 14541.0.0) AppleWebKit/537.36 (KHTML, like Gecko) Chrome/132.0.0.0 Safari/537.36","WebKit","Chrome","132.0.0.0","ChromeOS","14541.0.0","https://app.prolific.com/","en-US,en;q=0.9","666dd3d9e53e0ff59d7cc164","679edb085803f58d6bbd31ca","679ef52607399d1264e22948","","null","<img  src='G_7.jpg' height='90'> <img   src='G_3.jpg' height='90'> <img   src='G_9.jpg' height='90'> <img   src='G_1.jpg' height='90'> <img  src='G_5.jpg' height='90'>","null","Animation0","",""
"","","","","","html-keyboard-response","40","205638","0.0-24.0","42","1","2025-02-02 04:32:50","bc01a2b6f61d06f6604adb8657495020","98.176.1.21","Mozilla/5.0 (X11; CrOS x86_64 14541.0.0) AppleWebKit/537.36 (KHTML, like Gecko) Chrome/132.0.0.0 Safari/537.36","WebKit","Chrome","132.0.0.0","ChromeOS","14541.0.0","https://app.prolific.com/","en-US,en;q=0.9","666dd3d9e53e0ff59d7cc164","679edb085803f58d6bbd31ca","679ef52607399d1264e22948","","3206","[""Did you notice any patterns? <br><br>Press Enter to watch that example again and follow the steps of Omgne Sort.""]","enter","","",""
"","","","","","html-button-response","41","206046","0.0-25.0","42","1","2025-02-02 04:32:50","bc01a2b6f61d06f6604adb8657495020","98.176.1.21","Mozilla/5.0 (X11; CrOS x86_64 14541.0.0) AppleWebKit/537.36 (KHTML, like Gecko) Chrome/132.0.0.0 Safari/537.36","WebKit","Chrome","132.0.0.0","ChromeOS","14541.0.0","https://app.prolific.com/","en-US,en;q=0.9","666dd3d9e53e0ff59d7cc164","679edb085803f58d6bbd31ca","679ef52607399d1264e22948","","null","<img id='selected' src='G_3.jpg' height='90'> <img src='G_7.jpg' height='90'> <img src='G_9.jpg' height='90'> <img src='G_1.jpg' height='90'> <img src='G_5.jpg' height='90'>","null","Learning example 0","",""
"","","","","","html-button-response","42","206355","0.0-26.0","42","1","2025-02-02 04:32:50","bc01a2b6f61d06f6604adb8657495020","98.176.1.21","Mozilla/5.0 (X11; CrOS x86_64 14541.0.0) AppleWebKit/537.36 (KHTML, like Gecko) Chrome/132.0.0.0 Safari/537.36","WebKit","Chrome","132.0.0.0","ChromeOS","14541.0.0","https://app.prolific.com/","en-US,en;q=0.9","666dd3d9e53e0ff59d7cc164","679edb085803f58d6bbd31ca","679ef52607399d1264e22948","","null","<img id='selected' src='G_3.jpg' height='90'> <img id='selected' src='G_7.jpg' height='90'> <img src='G_9.jpg' height='90'> <img src='G_1.jpg' height='90'> <img src='G_5.jpg' height='90'>","null","Learning example 0","",""
"","","","","","html-button-response","43","206666","0.0-27.0","42","1","2025-02-02 04:32:50","bc01a2b6f61d06f6604adb8657495020","98.176.1.21","Mozilla/5.0 (X11; CrOS x86_64 14541.0.0) AppleWebKit/537.36 (KHTML, like Gecko) Chrome/132.0.0.0 Safari/537.36","WebKit","Chrome","132.0.0.0","ChromeOS","14541.0.0","https://app.prolific.com/","en-US,en;q=0.9","666dd3d9e53e0ff59d7cc164","679edb085803f58d6bbd31ca","679ef52607399d1264e22948","","null","<img id='swapped' src='G_7.jpg' height='90'> <img id='swapped' src='G_3.jpg' height='90'> <img src='G_9.jpg' height='90'> <img src='G_1.jpg' height='90'> <img src='G_5.jpg' height='90'>","null","Learning example 0","",""
"","","","","","html-button-response","44","224632","0.0-28.0-0.0-0.0","42","1","2025-02-02 04:32:50","bc01a2b6f61d06f6604adb8657495020","98.176.1.21","Mozilla/5.0 (X11; CrOS x86_64 14541.0.0) AppleWebKit/537.36 (KHTML, like Gecko) Chrome/132.0.0.0 Safari/537.36","WebKit","Chrome","132.0.0.0","ChromeOS","14541.0.0","https://app.prolific.com/","en-US,en;q=0.9","666dd3d9e53e0ff59d7cc164","679edb085803f58d6bbd31ca","679ef52607399d1264e22948","","17963","<img id='swapped' src='G_7.jpg' height='90'> <img id='swapped' src='G_3.jpg' height='90'> <img src='G_9.jpg' height='90'> <img src='G_1.jpg' height='90'> <img src='G_5.jpg' height='90'>","0","Learning example 0","",""
"","","","","","html-button-response","45","225358","0.0-28.1-0.1-0.1","42","1","2025-02-02 04:32:50","bc01a2b6f61d06f6604adb8657495020","98.176.1.21","Mozilla/5.0 (X11; CrOS x86_64 14541.0.0) AppleWebKit/537.36 (KHTML, like Gecko) Chrome/132.0.0.0 Safari/537.36","WebKit","Chrome","132.0.0.0","ChromeOS","14541.0.0","https://app.prolific.com/","en-US,en;q=0.9","666dd3d9e53e0ff59d7cc164","679edb085803f58d6bbd31ca","679ef52607399d1264e22948","","722","<img id='swapped' src='G_7.jpg' height='90'> <img id='swapped' src='G_3.jpg' height='90'> <img src='G_9.jpg' height='90'> <img src='G_1.jpg' height='90'> <img src='G_5.jpg' height='90'>","1","Learning example 0","",""
"","","","","","html-button-response","46","225562","0.0-29.0","42","1","2025-02-02 04:32:50","bc01a2b6f61d06f6604adb8657495020","98.176.1.21","Mozilla/5.0 (X11; CrOS x86_64 14541.0.0) AppleWebKit/537.36 (KHTML, like Gecko) Chrome/132.0.0.0 Safari/537.36","WebKit","Chrome","132.0.0.0","ChromeOS","14541.0.0","https://app.prolific.com/","en-US,en;q=0.9","666dd3d9e53e0ff59d7cc164","679edb085803f58d6bbd31ca","679ef52607399d1264e22948","","null","<img  src='G_7.jpg' height='90'> <img  src='G_3.jpg' height='90'> <img src='G_9.jpg' height='90'> <img src='G_1.jpg' height='90'> <img src='G_5.jpg' height='90'>","null","Learning example 0","",""
"","","","","","html-button-response","47","225970","0.0-30.0","42","1","2025-02-02 04:32:50","bc01a2b6f61d06f6604adb8657495020","98.176.1.21","Mozilla/5.0 (X11; CrOS x86_64 14541.0.0) AppleWebKit/537.36 (KHTML, like Gecko) Chrome/132.0.0.0 Safari/537.36","WebKit","Chrome","132.0.0.0","ChromeOS","14541.0.0","https://app.prolific.com/","en-US,en;q=0.9","666dd3d9e53e0ff59d7cc164","679edb085803f58d6bbd31ca","679ef52607399d1264e22948","","null","<img  src='G_7.jpg' height='90'> <img id='selected'  src='G_3.jpg' height='90'> <img src='G_9.jpg' height='90'> <img src='G_1.jpg' height='90'> <img src='G_5.jpg' height='90'>","null","Learning example 0","",""
"","","","","","html-button-response","48","226278","0.0-31.0","42","1","2025-02-02 04:32:50","bc01a2b6f61d06f6604adb8657495020","98.176.1.21","Mozilla/5.0 (X11; CrOS x86_64 14541.0.0) AppleWebKit/537.36 (KHTML, like Gecko) Chrome/132.0.0.0 Safari/537.36","WebKit","Chrome","132.0.0.0","ChromeOS","14541.0.0","https://app.prolific.com/","en-US,en;q=0.9","666dd3d9e53e0ff59d7cc164","679edb085803f58d6bbd31ca","679ef52607399d1264e22948","","null","<img  src='G_7.jpg' height='90'> <img id='selected'  src='G_3.jpg' height='90'> <img id='selected' src='G_9.jpg' height='90'> <img src='G_1.jpg' height='90'> <img src='G_5.jpg' height='90'>","null","Learning example 0","",""
"","","","","","html-button-response","49","226587","0.0-32.0","42","1","2025-02-02 04:32:50","bc01a2b6f61d06f6604adb8657495020","98.176.1.21","Mozilla/5.0 (X11; CrOS x86_64 14541.0.0) AppleWebKit/537.36 (KHTML, like Gecko) Chrome/132.0.0.0 Safari/537.36","WebKit","Chrome","132.0.0.0","ChromeOS","14541.0.0","https://app.prolific.com/","en-US,en;q=0.9","666dd3d9e53e0ff59d7cc164","679edb085803f58d6bbd31ca","679ef52607399d1264e22948","","null","<img  src='G_7.jpg' height='90'> <img id='selected'  src='G_3.jpg' height='90'> <img id='selected' src='G_9.jpg' height='90'> <img src='G_1.jpg' height='90'> <img src='G_5.jpg' height='90'>","null","Learning example 0","",""
"","","","","","html-button-response","50","233082","0.0-33.0-0.0-0.0","42","1","2025-02-02 04:32:50","bc01a2b6f61d06f6604adb8657495020","98.176.1.21","Mozilla/5.0 (X11; CrOS x86_64 14541.0.0) AppleWebKit/537.36 (KHTML, like Gecko) Chrome/132.0.0.0 Safari/537.36","WebKit","Chrome","132.0.0.0","ChromeOS","14541.0.0","https://app.prolific.com/","en-US,en;q=0.9","666dd3d9e53e0ff59d7cc164","679edb085803f58d6bbd31ca","679ef52607399d1264e22948","","6490","<img  src='G_7.jpg' height='90'> <img id='selected'  src='G_3.jpg' height='90'> <img id='selected' src='G_9.jpg' height='90'> <img src='G_1.jpg' height='90'> <img src='G_5.jpg' height='90'>","1","Learning example 0","",""
"","","","","","html-button-response","51","235641","0.0-33.1-0.1-0.1","42","1","2025-02-02 04:32:50","bc01a2b6f61d06f6604adb8657495020","98.176.1.21","Mozilla/5.0 (X11; CrOS x86_64 14541.0.0) AppleWebKit/537.36 (KHTML, like Gecko) Chrome/132.0.0.0 Safari/537.36","WebKit","Chrome","132.0.0.0","ChromeOS","14541.0.0","https://app.prolific.com/","en-US,en;q=0.9","666dd3d9e53e0ff59d7cc164","679edb085803f58d6bbd31ca","679ef52607399d1264e22948","","2555","<img  src='G_7.jpg' height='90'> <img id='selected'  src='G_3.jpg' height='90'> <img id='selected' src='G_9.jpg' height='90'> <img src='G_1.jpg' height='90'> <img src='G_5.jpg' height='90'>","2","Learning example 0","",""
"","","","","","html-button-response","52","235848","0.0-34.0","42","1","2025-02-02 04:32:50","bc01a2b6f61d06f6604adb8657495020","98.176.1.21","Mozilla/5.0 (X11; CrOS x86_64 14541.0.0) AppleWebKit/537.36 (KHTML, like Gecko) Chrome/132.0.0.0 Safari/537.36","WebKit","Chrome","132.0.0.0","ChromeOS","14541.0.0","https://app.prolific.com/","en-US,en;q=0.9","666dd3d9e53e0ff59d7cc164","679edb085803f58d6bbd31ca","679ef52607399d1264e22948","","null","<img  src='G_7.jpg' height='90'> <img   src='G_3.jpg' height='90'> <img  src='G_9.jpg' height='90'> <img src='G_1.jpg' height='90'> <img src='G_5.jpg' height='90'>","null","Learning example 0","",""
"","","","","","html-button-response","53","236252","0.0-35.0","42","1","2025-02-02 04:32:50","bc01a2b6f61d06f6604adb8657495020","98.176.1.21","Mozilla/5.0 (X11; CrOS x86_64 14541.0.0) AppleWebKit/537.36 (KHTML, like Gecko) Chrome/132.0.0.0 Safari/537.36","WebKit","Chrome","132.0.0.0","ChromeOS","14541.0.0","https://app.prolific.com/","en-US,en;q=0.9","666dd3d9e53e0ff59d7cc164","679edb085803f58d6bbd31ca","679ef52607399d1264e22948","","null","<img  src='G_7.jpg' height='90'> <img   src='G_3.jpg' height='90'> <img id='selected'  src='G_9.jpg' height='90'> <img src='G_1.jpg' height='90'> <img src='G_5.jpg' height='90'>","null","Learning example 0","",""
"","","","","","html-button-response","54","236558","0.0-36.0","42","1","2025-02-02 04:32:50","bc01a2b6f61d06f6604adb8657495020","98.176.1.21","Mozilla/5.0 (X11; CrOS x86_64 14541.0.0) AppleWebKit/537.36 (KHTML, like Gecko) Chrome/132.0.0.0 Safari/537.36","WebKit","Chrome","132.0.0.0","ChromeOS","14541.0.0","https://app.prolific.com/","en-US,en;q=0.9","666dd3d9e53e0ff59d7cc164","679edb085803f58d6bbd31ca","679ef52607399d1264e22948","","null","<img  src='G_7.jpg' height='90'> <img   src='G_3.jpg' height='90'> <img id='selected'  src='G_9.jpg' height='90'> <img id='selected' src='G_1.jpg' height='90'> <img src='G_5.jpg' height='90'>","null","Learning example 0","",""
"","","","","","html-button-response","55","236865","0.0-37.0","42","1","2025-02-02 04:32:50","bc01a2b6f61d06f6604adb8657495020","98.176.1.21","Mozilla/5.0 (X11; CrOS x86_64 14541.0.0) AppleWebKit/537.36 (KHTML, like Gecko) Chrome/132.0.0.0 Safari/537.36","WebKit","Chrome","132.0.0.0","ChromeOS","14541.0.0","https://app.prolific.com/","en-US,en;q=0.9","666dd3d9e53e0ff59d7cc164","679edb085803f58d6bbd31ca","679ef52607399d1264e22948","","null","<img  src='G_7.jpg' height='90'> <img   src='G_3.jpg' height='90'> <img id='selected'  src='G_9.jpg' height='90'> <img id='selected' src='G_1.jpg' height='90'> <img src='G_5.jpg' height='90'>","null","Learning example 0","",""
"","","","","","html-button-response","56","238418","0.0-38.0-0.0-0.0","42","1","2025-02-02 04:32:50","bc01a2b6f61d06f6604adb8657495020","98.176.1.21","Mozilla/5.0 (X11; CrOS x86_64 14541.0.0) AppleWebKit/537.36 (KHTML, like Gecko) Chrome/132.0.0.0 Safari/537.36","WebKit","Chrome","132.0.0.0","ChromeOS","14541.0.0","https://app.prolific.com/","en-US,en;q=0.9","666dd3d9e53e0ff59d7cc164","679edb085803f58d6bbd31ca","679ef52607399d1264e22948","","1548","<img  src='G_7.jpg' height='90'> <img   src='G_3.jpg' height='90'> <img id='selected'  src='G_9.jpg' height='90'> <img id='selected' src='G_1.jpg' height='90'> <img src='G_5.jpg' height='90'>","3","Learning example 0","",""
"","","","","","html-button-response","57","240668","0.0-38.1-0.1-0.1","42","1","2025-02-02 04:32:50","bc01a2b6f61d06f6604adb8657495020","98.176.1.21","Mozilla/5.0 (X11; CrOS x86_64 14541.0.0) AppleWebKit/537.36 (KHTML, like Gecko) Chrome/132.0.0.0 Safari/537.36","WebKit","Chrome","132.0.0.0","ChromeOS","14541.0.0","https://app.prolific.com/","en-US,en;q=0.9","666dd3d9e53e0ff59d7cc164","679edb085803f58d6bbd31ca","679ef52607399d1264e22948","","2243","<img  src='G_7.jpg' height='90'> <img   src='G_3.jpg' height='90'> <img id='selected'  src='G_9.jpg' height='90'> <img id='selected' src='G_1.jpg' height='90'> <img src='G_5.jpg' height='90'>","3","Learning example 0","",""
"","","","","","html-button-response","58","243146","0.0-38.2-0.2-0.2","42","1","2025-02-02 04:32:50","bc01a2b6f61d06f6604adb8657495020","98.176.1.21","Mozilla/5.0 (X11; CrOS x86_64 14541.0.0) AppleWebKit/537.36 (KHTML, like Gecko) Chrome/132.0.0.0 Safari/537.36","WebKit","Chrome","132.0.0.0","ChromeOS","14541.0.0","https://app.prolific.com/","en-US,en;q=0.9","666dd3d9e53e0ff59d7cc164","679edb085803f58d6bbd31ca","679ef52607399d1264e22948","","2473","<img  src='G_7.jpg' height='90'> <img   src='G_3.jpg' height='90'> <img id='selected'  src='G_9.jpg' height='90'> <img id='selected' src='G_1.jpg' height='90'> <img src='G_5.jpg' height='90'>","3","Learning example 0","",""
"","","","","","html-button-response","59","243725","0.0-38.3-0.3-0.3","42","1","2025-02-02 04:32:50","bc01a2b6f61d06f6604adb8657495020","98.176.1.21","Mozilla/5.0 (X11; CrOS x86_64 14541.0.0) AppleWebKit/537.36 (KHTML, like Gecko) Chrome/132.0.0.0 Safari/537.36","WebKit","Chrome","132.0.0.0","ChromeOS","14541.0.0","https://app.prolific.com/","en-US,en;q=0.9","666dd3d9e53e0ff59d7cc164","679edb085803f58d6bbd31ca","679ef52607399d1264e22948","","574","<img  src='G_7.jpg' height='90'> <img   src='G_3.jpg' height='90'> <img id='selected'  src='G_9.jpg' height='90'> <img id='selected' src='G_1.jpg' height='90'> <img src='G_5.jpg' height='90'>","3","Learning example 0","",""
"","","","","","html-button-response","60","244302","0.0-38.4-0.4-0.4","42","1","2025-02-02 04:32:50","bc01a2b6f61d06f6604adb8657495020","98.176.1.21","Mozilla/5.0 (X11; CrOS x86_64 14541.0.0) AppleWebKit/537.36 (KHTML, like Gecko) Chrome/132.0.0.0 Safari/537.36","WebKit","Chrome","132.0.0.0","ChromeOS","14541.0.0","https://app.prolific.com/","en-US,en;q=0.9","666dd3d9e53e0ff59d7cc164","679edb085803f58d6bbd31ca","679ef52607399d1264e22948","","574","<img  src='G_7.jpg' height='90'> <img   src='G_3.jpg' height='90'> <img id='selected'  src='G_9.jpg' height='90'> <img id='selected' src='G_1.jpg' height='90'> <img src='G_5.jpg' height='90'>","4","Learning example 0","",""
"","","","","","html-button-response","61","245209","0.0-38.5-0.5-0.5","42","1","2025-02-02 04:32:50","bc01a2b6f61d06f6604adb8657495020","98.176.1.21","Mozilla/5.0 (X11; CrOS x86_64 14541.0.0) AppleWebKit/537.36 (KHTML, like Gecko) Chrome/132.0.0.0 Safari/537.36","WebKit","Chrome","132.0.0.0","ChromeOS","14541.0.0","https://app.prolific.com/","en-US,en;q=0.9","666dd3d9e53e0ff59d7cc164","679edb085803f58d6bbd31ca","679ef52607399d1264e22948","","903","<img  src='G_7.jpg' height='90'> <img   src='G_3.jpg' height='90'> <img id='selected'  src='G_9.jpg' height='90'> <img id='selected' src='G_1.jpg' height='90'> <img src='G_5.jpg' height='90'>","2","Learning example 0","",""
"","","","","","html-button-response","62","247120","0.0-38.6-0.6-0.6","42","1","2025-02-02 04:32:50","bc01a2b6f61d06f6604adb8657495020","98.176.1.21","Mozilla/5.0 (X11; CrOS x86_64 14541.0.0) AppleWebKit/537.36 (KHTML, like Gecko) Chrome/132.0.0.0 Safari/537.36","WebKit","Chrome","132.0.0.0","ChromeOS","14541.0.0","https://app.prolific.com/","en-US,en;q=0.9","666dd3d9e53e0ff59d7cc164","679edb085803f58d6bbd31ca","679ef52607399d1264e22948","","1907","<img  src='G_7.jpg' height='90'> <img   src='G_3.jpg' height='90'> <img id='selected'  src='G_9.jpg' height='90'> <img id='selected' src='G_1.jpg' height='90'> <img src='G_5.jpg' height='90'>","1","Learning example 0","",""
"","","","","","html-button-response","63","250973","0.0-38.7-0.7-0.7","42","1","2025-02-02 04:32:50","bc01a2b6f61d06f6604adb8657495020","98.176.1.21","Mozilla/5.0 (X11; CrOS x86_64 14541.0.0) AppleWebKit/537.36 (KHTML, like Gecko) Chrome/132.0.0.0 Safari/537.36","WebKit","Chrome","132.0.0.0","ChromeOS","14541.0.0","https://app.prolific.com/","en-US,en;q=0.9","666dd3d9e53e0ff59d7cc164","679edb085803f58d6bbd31ca","679ef52607399d1264e22948","","3849","<img  src='G_7.jpg' height='90'> <img   src='G_3.jpg' height='90'> <img id='selected'  src='G_9.jpg' height='90'> <img id='selected' src='G_1.jpg' height='90'> <img src='G_5.jpg' height='90'>","0","Learning example 0","",""
"","","","","","html-button-response","64","251749","0.0-38.8-0.8-0.8","42","1","2025-02-02 04:32:50","bc01a2b6f61d06f6604adb8657495020","98.176.1.21","Mozilla/5.0 (X11; CrOS x86_64 14541.0.0) AppleWebKit/537.36 (KHTML, like Gecko) Chrome/132.0.0.0 Safari/537.36","WebKit","Chrome","132.0.0.0","ChromeOS","14541.0.0","https://app.prolific.com/","en-US,en;q=0.9","666dd3d9e53e0ff59d7cc164","679edb085803f58d6bbd31ca","679ef52607399d1264e22948","","772","<img  src='G_7.jpg' height='90'> <img   src='G_3.jpg' height='90'> <img id='selected'  src='G_9.jpg' height='90'> <img id='selected' src='G_1.jpg' height='90'> <img src='G_5.jpg' height='90'>","1","Learning example 0","",""
"","","","","","html-button-response","65","252676","0.0-38.9-0.9-0.9","42","1","2025-02-02 04:32:50","bc01a2b6f61d06f6604adb8657495020","98.176.1.21","Mozilla/5.0 (X11; CrOS x86_64 14541.0.0) AppleWebKit/537.36 (KHTML, like Gecko) Chrome/132.0.0.0 Safari/537.36","WebKit","Chrome","132.0.0.0","ChromeOS","14541.0.0","https://app.prolific.com/","en-US,en;q=0.9","666dd3d9e53e0ff59d7cc164","679edb085803f58d6bbd31ca","679ef52607399d1264e22948","","923","<img  src='G_7.jpg' height='90'> <img   src='G_3.jpg' height='90'> <img id='selected'  src='G_9.jpg' height='90'> <img id='selected' src='G_1.jpg' height='90'> <img src='G_5.jpg' height='90'>","4","Learning example 0","",""
"","","","","","html-button-response","66","253382","0.0-38.10-0.10-0.10","42","1","2025-02-02 04:32:50","bc01a2b6f61d06f6604adb8657495020","98.176.1.21","Mozilla/5.0 (X11; CrOS x86_64 14541.0.0) AppleWebKit/537.36 (KHTML, like Gecko) Chrome/132.0.0.0 Safari/537.36","WebKit","Chrome","132.0.0.0","ChromeOS","14541.0.0","https://app.prolific.com/","en-US,en;q=0.9","666dd3d9e53e0ff59d7cc164","679edb085803f58d6bbd31ca","679ef52607399d1264e22948","","702","<img  src='G_7.jpg' height='90'> <img   src='G_3.jpg' height='90'> <img id='selected'  src='G_9.jpg' height='90'> <img id='selected' src='G_1.jpg' height='90'> <img src='G_5.jpg' height='90'>","3","Learning example 0","",""
"","","","","","html-button-response","67","254298","0.0-38.11-0.11-0.11","42","1","2025-02-02 04:32:50","bc01a2b6f61d06f6604adb8657495020","98.176.1.21","Mozilla/5.0 (X11; CrOS x86_64 14541.0.0) AppleWebKit/537.36 (KHTML, like Gecko) Chrome/132.0.0.0 Safari/537.36","WebKit","Chrome","132.0.0.0","ChromeOS","14541.0.0","https://app.prolific.com/","en-US,en;q=0.9","666dd3d9e53e0ff59d7cc164","679edb085803f58d6bbd31ca","679ef52607399d1264e22948","","912","<img  src='G_7.jpg' height='90'> <img   src='G_3.jpg' height='90'> <img id='selected'  src='G_9.jpg' height='90'> <img id='selected' src='G_1.jpg' height='90'> <img src='G_5.jpg' height='90'>","2","Learning example 0","",""
"","","","","","html-button-response","68","254503","0.0-39.0","42","1","2025-02-02 04:32:50","bc01a2b6f61d06f6604adb8657495020","98.176.1.21","Mozilla/5.0 (X11; CrOS x86_64 14541.0.0) AppleWebKit/537.36 (KHTML, like Gecko) Chrome/132.0.0.0 Safari/537.36","WebKit","Chrome","132.0.0.0","ChromeOS","14541.0.0","https://app.prolific.com/","en-US,en;q=0.9","666dd3d9e53e0ff59d7cc164","679edb085803f58d6bbd31ca","679ef52607399d1264e22948","","null","<img  src='G_7.jpg' height='90'> <img   src='G_3.jpg' height='90'> <img   src='G_9.jpg' height='90'> <img  src='G_1.jpg' height='90'> <img src='G_5.jpg' height='90'>","null","Learning example 0","",""
"","","","","","html-button-response","69","254913","0.0-40.0","42","1","2025-02-02 04:32:50","bc01a2b6f61d06f6604adb8657495020","98.176.1.21","Mozilla/5.0 (X11; CrOS x86_64 14541.0.0) AppleWebKit/537.36 (KHTML, like Gecko) Chrome/132.0.0.0 Safari/537.36","WebKit","Chrome","132.0.0.0","ChromeOS","14541.0.0","https://app.prolific.com/","en-US,en;q=0.9","666dd3d9e53e0ff59d7cc164","679edb085803f58d6bbd31ca","679ef52607399d1264e22948","","null","<img  src='G_7.jpg' height='90'> <img   src='G_3.jpg' height='90'> <img   src='G_9.jpg' height='90'> <img id='selected'  src='G_1.jpg' height='90'> <img src='G_5.jpg' height='90'>","null","Learning example 0","",""
"","","","","","html-button-response","70","255224","0.0-41.0","42","1","2025-02-02 04:32:50","bc01a2b6f61d06f6604adb8657495020","98.176.1.21","Mozilla/5.0 (X11; CrOS x86_64 14541.0.0) AppleWebKit/537.36 (KHTML, like Gecko) Chrome/132.0.0.0 Safari/537.36","WebKit","Chrome","132.0.0.0","ChromeOS","14541.0.0","https://app.prolific.com/","en-US,en;q=0.9","666dd3d9e53e0ff59d7cc164","679edb085803f58d6bbd31ca","679ef52607399d1264e22948","","null","<img  src='G_7.jpg' height='90'> <img   src='G_3.jpg' height='90'> <img   src='G_9.jpg' height='90'> <img id='selected'  src='G_1.jpg' height='90'> <img id='selected' src='G_5.jpg' height='90'>","null","Learning example 0","",""
"","","","","","html-button-response","71","255533","0.0-42.0","42","1","2025-02-02 04:32:50","bc01a2b6f61d06f6604adb8657495020","98.176.1.21","Mozilla/5.0 (X11; CrOS x86_64 14541.0.0) AppleWebKit/537.36 (KHTML, like Gecko) Chrome/132.0.0.0 Safari/537.36","WebKit","Chrome","132.0.0.0","ChromeOS","14541.0.0","https://app.prolific.com/","en-US,en;q=0.9","666dd3d9e53e0ff59d7cc164","679edb085803f58d6bbd31ca","679ef52607399d1264e22948","","null","<img  src='G_7.jpg' height='90'> <img   src='G_3.jpg' height='90'> <img   src='G_9.jpg' height='90'> <img id='selected'  src='G_1.jpg' height='90'> <img id='selected' src='G_5.jpg' height='90'>","null","Learning example 0","",""
"","","","","","html-button-response","72","257324","0.0-43.0-0.0-0.0","42","1","2025-02-02 04:32:50","bc01a2b6f61d06f6604adb8657495020","98.176.1.21","Mozilla/5.0 (X11; CrOS x86_64 14541.0.0) AppleWebKit/537.36 (KHTML, like Gecko) Chrome/132.0.0.0 Safari/537.36","WebKit","Chrome","132.0.0.0","ChromeOS","14541.0.0","https://app.prolific.com/","en-US,en;q=0.9","666dd3d9e53e0ff59d7cc164","679edb085803f58d6bbd31ca","679ef52607399d1264e22948","","1787","<img  src='G_7.jpg' height='90'> <img   src='G_3.jpg' height='90'> <img   src='G_9.jpg' height='90'> <img id='selected'  src='G_1.jpg' height='90'> <img id='selected' src='G_5.jpg' height='90'>","3","Learning example 0","",""
"","","","","","html-button-response","73","259425","0.0-43.1-0.1-0.1","42","1","2025-02-02 04:32:50","bc01a2b6f61d06f6604adb8657495020","98.176.1.21","Mozilla/5.0 (X11; CrOS x86_64 14541.0.0) AppleWebKit/537.36 (KHTML, like Gecko) Chrome/132.0.0.0 Safari/537.36","WebKit","Chrome","132.0.0.0","ChromeOS","14541.0.0","https://app.prolific.com/","en-US,en;q=0.9","666dd3d9e53e0ff59d7cc164","679edb085803f58d6bbd31ca","679ef52607399d1264e22948","","2096","<img  src='G_7.jpg' height='90'> <img   src='G_3.jpg' height='90'> <img   src='G_9.jpg' height='90'> <img id='selected'  src='G_1.jpg' height='90'> <img id='selected' src='G_5.jpg' height='90'>","4","Learning example 0","",""
"","","","","","html-button-response","74","259630","0.0-44.0","42","1","2025-02-02 04:32:50","bc01a2b6f61d06f6604adb8657495020","98.176.1.21","Mozilla/5.0 (X11; CrOS x86_64 14541.0.0) AppleWebKit/537.36 (KHTML, like Gecko) Chrome/132.0.0.0 Safari/537.36","WebKit","Chrome","132.0.0.0","ChromeOS","14541.0.0","https://app.prolific.com/","en-US,en;q=0.9","666dd3d9e53e0ff59d7cc164","679edb085803f58d6bbd31ca","679ef52607399d1264e22948","","null","<img  src='G_7.jpg' height='90'> <img   src='G_3.jpg' height='90'> <img   src='G_9.jpg' height='90'> <img   src='G_1.jpg' height='90'> <img  src='G_5.jpg' height='90'>","null","Learning example 0","",""
"","","","","","html-keyboard-response","75","269167","0.0-45.0","42","1","2025-02-02 04:32:50","bc01a2b6f61d06f6604adb8657495020","98.176.1.21","Mozilla/5.0 (X11; CrOS x86_64 14541.0.0) AppleWebKit/537.36 (KHTML, like Gecko) Chrome/132.0.0.0 Safari/537.36","WebKit","Chrome","132.0.0.0","ChromeOS","14541.0.0","https://app.prolific.com/","en-US,en;q=0.9","666dd3d9e53e0ff59d7cc164","679edb085803f58d6bbd31ca","679ef52607399d1264e22948","","9533","[""Final order was 1,2,3,4,5. The initial order was 2,1,3,4,5.<br>It took 1 swaps to sort it correctly with Omgne Sort. <br><br>Press Enter to continue.""]","enter","","",""
"","","","","","html-keyboard-response","76","275841","0.0-46.0","42","1","2025-02-02 04:32:50","bc01a2b6f61d06f6604adb8657495020","98.176.1.21","Mozilla/5.0 (X11; CrOS x86_64 14541.0.0) AppleWebKit/537.36 (KHTML, like Gecko) Chrome/132.0.0.0 Safari/537.36","WebKit","Chrome","132.0.0.0","ChromeOS","14541.0.0","https://app.prolific.com/","en-US,en;q=0.9","666dd3d9e53e0ff59d7cc164","679edb085803f58d6bbd31ca","679ef52607399d1264e22948","","6669","[""Example 2<br><br>You will watch Omnge Sort in action. Try to identify any patterns in the comparisons made by this method. <br><br>Press Enter to continue.""]","enter","","",""
"","","","","","html-keyboard-response","77","276352","0.0-47.0","42","1","2025-02-02 04:32:50","bc01a2b6f61d06f6604adb8657495020","98.176.1.21","Mozilla/5.0 (X11; CrOS x86_64 14541.0.0) AppleWebKit/537.36 (KHTML, like Gecko) Chrome/132.0.0.0 Safari/537.36","WebKit","Chrome","132.0.0.0","ChromeOS","14541.0.0","https://app.prolific.com/","en-US,en;q=0.9","666dd3d9e53e0ff59d7cc164","679edb085803f58d6bbd31ca","679ef52607399d1264e22948","","null","<img id='selected' src='G_4.jpg' height='90'> <img src='G_8.jpg' height='90'> <img src='G_2.jpg' height='90'> <img src='G_5.jpg' height='90'> <img src='G_6.jpg' height='90'> <img src='G_3.jpg' height='90'> <img src='G_1.jpg' height='90'> <img src='G_7.jpg' height='90'>","null","Animation1","",""
"","","","","","html-keyboard-response","78","276862","0.0-48.0","42","1","2025-02-02 04:32:50","bc01a2b6f61d06f6604adb8657495020","98.176.1.21","Mozilla/5.0 (X11; CrOS x86_64 14541.0.0) AppleWebKit/537.36 (KHTML, like Gecko) Chrome/132.0.0.0 Safari/537.36","WebKit","Chrome","132.0.0.0","ChromeOS","14541.0.0","https://app.prolific.com/","en-US,en;q=0.9","666dd3d9e53e0ff59d7cc164","679edb085803f58d6bbd31ca","679ef52607399d1264e22948","","null","<img id='selected' src='G_4.jpg' height='90'> <img id='selected' src='G_8.jpg' height='90'> <img src='G_2.jpg' height='90'> <img src='G_5.jpg' height='90'> <img src='G_6.jpg' height='90'> <img src='G_3.jpg' height='90'> <img src='G_1.jpg' height='90'> <img src='G_7.jpg' height='90'>","null","Animation1","",""
"","","","","","html-keyboard-response","79","277370","0.0-49.0","42","1","2025-02-02 04:32:50","bc01a2b6f61d06f6604adb8657495020","98.176.1.21","Mozilla/5.0 (X11; CrOS x86_64 14541.0.0) AppleWebKit/537.36 (KHTML, like Gecko) Chrome/132.0.0.0 Safari/537.36","WebKit","Chrome","132.0.0.0","ChromeOS","14541.0.0","https://app.prolific.com/","en-US,en;q=0.9","666dd3d9e53e0ff59d7cc164","679edb085803f58d6bbd31ca","679ef52607399d1264e22948","","null","<img id='selected' src='G_4.jpg' height='90'> <img id='selected' src='G_8.jpg' height='90'> <img src='G_2.jpg' height='90'> <img src='G_5.jpg' height='90'> <img src='G_6.jpg' height='90'> <img src='G_3.jpg' height='90'> <img src='G_1.jpg' height='90'> <img src='G_7.jpg' height='90'>","null","Animation1","",""
"","","","","","html-keyboard-response","80","277679","0.0-50.0","42","1","2025-02-02 04:32:50","bc01a2b6f61d06f6604adb8657495020","98.176.1.21","Mozilla/5.0 (X11; CrOS x86_64 14541.0.0) AppleWebKit/537.36 (KHTML, like Gecko) Chrome/132.0.0.0 Safari/537.36","WebKit","Chrome","132.0.0.0","ChromeOS","14541.0.0","https://app.prolific.com/","en-US,en;q=0.9","666dd3d9e53e0ff59d7cc164","679edb085803f58d6bbd31ca","679ef52607399d1264e22948","","null","<img  src='G_4.jpg' height='90'> <img  src='G_8.jpg' height='90'> <img src='G_2.jpg' height='90'> <img src='G_5.jpg' height='90'> <img src='G_6.jpg' height='90'> <img src='G_3.jpg' height='90'> <img src='G_1.jpg' height='90'> <img src='G_7.jpg' height='90'>","null","Animation1","",""
"","","","","","html-keyboard-response","81","278183","0.0-51.0","42","1","2025-02-02 04:32:50","bc01a2b6f61d06f6604adb8657495020","98.176.1.21","Mozilla/5.0 (X11; CrOS x86_64 14541.0.0) AppleWebKit/537.36 (KHTML, like Gecko) Chrome/132.0.0.0 Safari/537.36","WebKit","Chrome","132.0.0.0","ChromeOS","14541.0.0","https://app.prolific.com/","en-US,en;q=0.9","666dd3d9e53e0ff59d7cc164","679edb085803f58d6bbd31ca","679ef52607399d1264e22948","","null","<img  src='G_4.jpg' height='90'> <img id='selected'  src='G_8.jpg' height='90'> <img src='G_2.jpg' height='90'> <img src='G_5.jpg' height='90'> <img src='G_6.jpg' height='90'> <img src='G_3.jpg' height='90'> <img src='G_1.jpg' height='90'> <img src='G_7.jpg' height='90'>","null","Animation1","",""
"","","","","","html-keyboard-response","82","278692","0.0-52.0","42","1","2025-02-02 04:32:50","bc01a2b6f61d06f6604adb8657495020","98.176.1.21","Mozilla/5.0 (X11; CrOS x86_64 14541.0.0) AppleWebKit/537.36 (KHTML, like Gecko) Chrome/132.0.0.0 Safari/537.36","WebKit","Chrome","132.0.0.0","ChromeOS","14541.0.0","https://app.prolific.com/","en-US,en;q=0.9","666dd3d9e53e0ff59d7cc164","679edb085803f58d6bbd31ca","679ef52607399d1264e22948","","null","<img  src='G_4.jpg' height='90'> <img id='selected'  src='G_8.jpg' height='90'> <img id='selected' src='G_2.jpg' height='90'> <img src='G_5.jpg' height='90'> <img src='G_6.jpg' height='90'> <img src='G_3.jpg' height='90'> <img src='G_1.jpg' height='90'> <img src='G_7.jpg' height='90'>","null","Animation1","",""
"","","","","","html-keyboard-response","83","279199","0.0-53.0","42","1","2025-02-02 04:32:50","bc01a2b6f61d06f6604adb8657495020","98.176.1.21","Mozilla/5.0 (X11; CrOS x86_64 14541.0.0) AppleWebKit/537.36 (KHTML, like Gecko) Chrome/132.0.0.0 Safari/537.36","WebKit","Chrome","132.0.0.0","ChromeOS","14541.0.0","https://app.prolific.com/","en-US,en;q=0.9","666dd3d9e53e0ff59d7cc164","679edb085803f58d6bbd31ca","679ef52607399d1264e22948","","null","<img  src='G_4.jpg' height='90'> <img id='swapped' src='G_2.jpg' height='90'> <img id='swapped'  src='G_8.jpg' height='90'> <img src='G_5.jpg' height='90'> <img src='G_6.jpg' height='90'> <img src='G_3.jpg' height='90'> <img src='G_1.jpg' height='90'> <img src='G_7.jpg' height='90'>","null","Animation1","",""
"","","","","","html-keyboard-response","84","279507","0.0-54.0","42","1","2025-02-02 04:32:50","bc01a2b6f61d06f6604adb8657495020","98.176.1.21","Mozilla/5.0 (X11; CrOS x86_64 14541.0.0) AppleWebKit/537.36 (KHTML, like Gecko) Chrome/132.0.0.0 Safari/537.36","WebKit","Chrome","132.0.0.0","ChromeOS","14541.0.0","https://app.prolific.com/","en-US,en;q=0.9","666dd3d9e53e0ff59d7cc164","679edb085803f58d6bbd31ca","679ef52607399d1264e22948","","null","<img  src='G_4.jpg' height='90'> <img  src='G_2.jpg' height='90'> <img   src='G_8.jpg' height='90'> <img src='G_5.jpg' height='90'> <img src='G_6.jpg' height='90'> <img src='G_3.jpg' height='90'> <img src='G_1.jpg' height='90'> <img src='G_7.jpg' height='90'>","null","Animation1","",""
"","","","","","html-keyboard-response","85","280012","0.0-55.0","42","1","2025-02-02 04:32:50","bc01a2b6f61d06f6604adb8657495020","98.176.1.21","Mozilla/5.0 (X11; CrOS x86_64 14541.0.0) AppleWebKit/537.36 (KHTML, like Gecko) Chrome/132.0.0.0 Safari/537.36","WebKit","Chrome","132.0.0.0","ChromeOS","14541.0.0","https://app.prolific.com/","en-US,en;q=0.9","666dd3d9e53e0ff59d7cc164","679edb085803f58d6bbd31ca","679ef52607399d1264e22948","","null","<img id='selected'  src='G_4.jpg' height='90'> <img  src='G_2.jpg' height='90'> <img   src='G_8.jpg' height='90'> <img src='G_5.jpg' height='90'> <img src='G_6.jpg' height='90'> <img src='G_3.jpg' height='90'> <img src='G_1.jpg' height='90'> <img src='G_7.jpg' height='90'>","null","Animation1","",""
"","","","","","html-keyboard-response","86","280523","0.0-56.0","42","1","2025-02-02 04:32:50","bc01a2b6f61d06f6604adb8657495020","98.176.1.21","Mozilla/5.0 (X11; CrOS x86_64 14541.0.0) AppleWebKit/537.36 (KHTML, like Gecko) Chrome/132.0.0.0 Safari/537.36","WebKit","Chrome","132.0.0.0","ChromeOS","14541.0.0","https://app.prolific.com/","en-US,en;q=0.9","666dd3d9e53e0ff59d7cc164","679edb085803f58d6bbd31ca","679ef52607399d1264e22948","","null","<img id='selected'  src='G_4.jpg' height='90'> <img id='selected'  src='G_2.jpg' height='90'> <img   src='G_8.jpg' height='90'> <img src='G_5.jpg' height='90'> <img src='G_6.jpg' height='90'> <img src='G_3.jpg' height='90'> <img src='G_1.jpg' height='90'> <img src='G_7.jpg' height='90'>","null","Animation1","",""
"","","","","","html-keyboard-response","87","281033","0.0-57.0","42","1","2025-02-02 04:32:50","bc01a2b6f61d06f6604adb8657495020","98.176.1.21","Mozilla/5.0 (X11; CrOS x86_64 14541.0.0) AppleWebKit/537.36 (KHTML, like Gecko) Chrome/132.0.0.0 Safari/537.36","WebKit","Chrome","132.0.0.0","ChromeOS","14541.0.0","https://app.prolific.com/","en-US,en;q=0.9","666dd3d9e53e0ff59d7cc164","679edb085803f58d6bbd31ca","679ef52607399d1264e22948","","null","<img id='swapped'  src='G_2.jpg' height='90'> <img id='swapped'  src='G_4.jpg' height='90'> <img   src='G_8.jpg' height='90'> <img src='G_5.jpg' height='90'> <img src='G_6.jpg' height='90'> <img src='G_3.jpg' height='90'> <img src='G_1.jpg' height='90'> <img src='G_7.jpg' height='90'>","null","Animation1","",""
"","","","","","html-keyboard-response","88","281344","0.0-58.0","42","1","2025-02-02 04:32:50","bc01a2b6f61d06f6604adb8657495020","98.176.1.21","Mozilla/5.0 (X11; CrOS x86_64 14541.0.0) AppleWebKit/537.36 (KHTML, like Gecko) Chrome/132.0.0.0 Safari/537.36","WebKit","Chrome","132.0.0.0","ChromeOS","14541.0.0","https://app.prolific.com/","en-US,en;q=0.9","666dd3d9e53e0ff59d7cc164","679edb085803f58d6bbd31ca","679ef52607399d1264e22948","","null","<img   src='G_2.jpg' height='90'> <img   src='G_4.jpg' height='90'> <img   src='G_8.jpg' height='90'> <img src='G_5.jpg' height='90'> <img src='G_6.jpg' height='90'> <img src='G_3.jpg' height='90'> <img src='G_1.jpg' height='90'> <img src='G_7.jpg' height='90'>","null","Animation1","",""
"","","","","","html-keyboard-response","89","281855","0.0-59.0","42","1","2025-02-02 04:32:50","bc01a2b6f61d06f6604adb8657495020","98.176.1.21","Mozilla/5.0 (X11; CrOS x86_64 14541.0.0) AppleWebKit/537.36 (KHTML, like Gecko) Chrome/132.0.0.0 Safari/537.36","WebKit","Chrome","132.0.0.0","ChromeOS","14541.0.0","https://app.prolific.com/","en-US,en;q=0.9","666dd3d9e53e0ff59d7cc164","679edb085803f58d6bbd31ca","679ef52607399d1264e22948","","null","<img   src='G_2.jpg' height='90'> <img   src='G_4.jpg' height='90'> <img id='selected'   src='G_8.jpg' height='90'> <img src='G_5.jpg' height='90'> <img src='G_6.jpg' height='90'> <img src='G_3.jpg' height='90'> <img src='G_1.jpg' height='90'> <img src='G_7.jpg' height='90'>","null","Animation1","",""
"","","","","","html-keyboard-response","90","282366","0.0-60.0","42","1","2025-02-02 04:32:50","bc01a2b6f61d06f6604adb8657495020","98.176.1.21","Mozilla/5.0 (X11; CrOS x86_64 14541.0.0) AppleWebKit/537.36 (KHTML, like Gecko) Chrome/132.0.0.0 Safari/537.36","WebKit","Chrome","132.0.0.0","ChromeOS","14541.0.0","https://app.prolific.com/","en-US,en;q=0.9","666dd3d9e53e0ff59d7cc164","679edb085803f58d6bbd31ca","679ef52607399d1264e22948","","null","<img   src='G_2.jpg' height='90'> <img   src='G_4.jpg' height='90'> <img id='selected'   src='G_8.jpg' height='90'> <img id='selected' src='G_5.jpg' height='90'> <img src='G_6.jpg' height='90'> <img src='G_3.jpg' height='90'> <img src='G_1.jpg' height='90'> <img src='G_7.jpg' height='90'>","null","Animation1","",""
"","","","","","html-keyboard-response","91","282872","0.0-61.0","42","1","2025-02-02 04:32:50","bc01a2b6f61d06f6604adb8657495020","98.176.1.21","Mozilla/5.0 (X11; CrOS x86_64 14541.0.0) AppleWebKit/537.36 (KHTML, like Gecko) Chrome/132.0.0.0 Safari/537.36","WebKit","Chrome","132.0.0.0","ChromeOS","14541.0.0","https://app.prolific.com/","en-US,en;q=0.9","666dd3d9e53e0ff59d7cc164","679edb085803f58d6bbd31ca","679ef52607399d1264e22948","","null","<img   src='G_2.jpg' height='90'> <img   src='G_4.jpg' height='90'> <img id='swapped' src='G_5.jpg' height='90'> <img id='swapped'   src='G_8.jpg' height='90'> <img src='G_6.jpg' height='90'> <img src='G_3.jpg' height='90'> <img src='G_1.jpg' height='90'> <img src='G_7.jpg' height='90'>","null","Animation1","",""
"","","","","","html-keyboard-response","92","283182","0.0-62.0","42","1","2025-02-02 04:32:50","bc01a2b6f61d06f6604adb8657495020","98.176.1.21","Mozilla/5.0 (X11; CrOS x86_64 14541.0.0) AppleWebKit/537.36 (KHTML, like Gecko) Chrome/132.0.0.0 Safari/537.36","WebKit","Chrome","132.0.0.0","ChromeOS","14541.0.0","https://app.prolific.com/","en-US,en;q=0.9","666dd3d9e53e0ff59d7cc164","679edb085803f58d6bbd31ca","679ef52607399d1264e22948","","null","<img   src='G_2.jpg' height='90'> <img   src='G_4.jpg' height='90'> <img  src='G_5.jpg' height='90'> <img    src='G_8.jpg' height='90'> <img src='G_6.jpg' height='90'> <img src='G_3.jpg' height='90'> <img src='G_1.jpg' height='90'> <img src='G_7.jpg' height='90'>","null","Animation1","",""
"","","","","","html-keyboard-response","93","283693","0.0-63.0","42","1","2025-02-02 04:32:50","bc01a2b6f61d06f6604adb8657495020","98.176.1.21","Mozilla/5.0 (X11; CrOS x86_64 14541.0.0) AppleWebKit/537.36 (KHTML, like Gecko) Chrome/132.0.0.0 Safari/537.36","WebKit","Chrome","132.0.0.0","ChromeOS","14541.0.0","https://app.prolific.com/","en-US,en;q=0.9","666dd3d9e53e0ff59d7cc164","679edb085803f58d6bbd31ca","679ef52607399d1264e22948","","null","<img   src='G_2.jpg' height='90'> <img id='selected'   src='G_4.jpg' height='90'> <img  src='G_5.jpg' height='90'> <img    src='G_8.jpg' height='90'> <img src='G_6.jpg' height='90'> <img src='G_3.jpg' height='90'> <img src='G_1.jpg' height='90'> <img src='G_7.jpg' height='90'>","null","Animation1","",""
"","","","","","html-keyboard-response","94","284203","0.0-64.0","42","1","2025-02-02 04:32:50","bc01a2b6f61d06f6604adb8657495020","98.176.1.21","Mozilla/5.0 (X11; CrOS x86_64 14541.0.0) AppleWebKit/537.36 (KHTML, like Gecko) Chrome/132.0.0.0 Safari/537.36","WebKit","Chrome","132.0.0.0","ChromeOS","14541.0.0","https://app.prolific.com/","en-US,en;q=0.9","666dd3d9e53e0ff59d7cc164","679edb085803f58d6bbd31ca","679ef52607399d1264e22948","","null","<img   src='G_2.jpg' height='90'> <img id='selected'   src='G_4.jpg' height='90'> <img id='selected'  src='G_5.jpg' height='90'> <img    src='G_8.jpg' height='90'> <img src='G_6.jpg' height='90'> <img src='G_3.jpg' height='90'> <img src='G_1.jpg' height='90'> <img src='G_7.jpg' height='90'>","null","Animation1","",""
"","","","","","html-keyboard-response","95","284713","0.0-65.0","42","1","2025-02-02 04:32:50","bc01a2b6f61d06f6604adb8657495020","98.176.1.21","Mozilla/5.0 (X11; CrOS x86_64 14541.0.0) AppleWebKit/537.36 (KHTML, like Gecko) Chrome/132.0.0.0 Safari/537.36","WebKit","Chrome","132.0.0.0","ChromeOS","14541.0.0","https://app.prolific.com/","en-US,en;q=0.9","666dd3d9e53e0ff59d7cc164","679edb085803f58d6bbd31ca","679ef52607399d1264e22948","","null","<img   src='G_2.jpg' height='90'> <img id='swapped'  src='G_5.jpg' height='90'> <img id='swapped'   src='G_4.jpg' height='90'> <img    src='G_8.jpg' height='90'> <img src='G_6.jpg' height='90'> <img src='G_3.jpg' height='90'> <img src='G_1.jpg' height='90'> <img src='G_7.jpg' height='90'>","null","Animation1","",""
"","","","","","html-keyboard-response","96","285025","0.0-66.0","42","1","2025-02-02 04:32:50","bc01a2b6f61d06f6604adb8657495020","98.176.1.21","Mozilla/5.0 (X11; CrOS x86_64 14541.0.0) AppleWebKit/537.36 (KHTML, like Gecko) Chrome/132.0.0.0 Safari/537.36","WebKit","Chrome","132.0.0.0","ChromeOS","14541.0.0","https://app.prolific.com/","en-US,en;q=0.9","666dd3d9e53e0ff59d7cc164","679edb085803f58d6bbd31ca","679ef52607399d1264e22948","","null","<img   src='G_2.jpg' height='90'> <img   src='G_5.jpg' height='90'> <img    src='G_4.jpg' height='90'> <img    src='G_8.jpg' height='90'> <img src='G_6.jpg' height='90'> <img src='G_3.jpg' height='90'> <img src='G_1.jpg' height='90'> <img src='G_7.jpg' height='90'>","null","Animation1","",""
"","","","","","html-keyboard-response","97","285535","0.0-67.0","42","1","2025-02-02 04:32:50","bc01a2b6f61d06f6604adb8657495020","98.176.1.21","Mozilla/5.0 (X11; CrOS x86_64 14541.0.0) AppleWebKit/537.36 (KHTML, like Gecko) Chrome/132.0.0.0 Safari/537.36","WebKit","Chrome","132.0.0.0","ChromeOS","14541.0.0","https://app.prolific.com/","en-US,en;q=0.9","666dd3d9e53e0ff59d7cc164","679edb085803f58d6bbd31ca","679ef52607399d1264e22948","","null","<img id='selected'   src='G_2.jpg' height='90'> <img   src='G_5.jpg' height='90'> <img    src='G_4.jpg' height='90'> <img    src='G_8.jpg' height='90'> <img src='G_6.jpg' height='90'> <img src='G_3.jpg' height='90'> <img src='G_1.jpg' height='90'> <img src='G_7.jpg' height='90'>","null","Animation1","",""
"","","","","","html-keyboard-response","98","286046","0.0-68.0","42","1","2025-02-02 04:32:50","bc01a2b6f61d06f6604adb8657495020","98.176.1.21","Mozilla/5.0 (X11; CrOS x86_64 14541.0.0) AppleWebKit/537.36 (KHTML, like Gecko) Chrome/132.0.0.0 Safari/537.36","WebKit","Chrome","132.0.0.0","ChromeOS","14541.0.0","https://app.prolific.com/","en-US,en;q=0.9","666dd3d9e53e0ff59d7cc164","679edb085803f58d6bbd31ca","679ef52607399d1264e22948","","null","<img id='selected'   src='G_2.jpg' height='90'> <img id='selected'   src='G_5.jpg' height='90'> <img    src='G_4.jpg' height='90'> <img    src='G_8.jpg' height='90'> <img src='G_6.jpg' height='90'> <img src='G_3.jpg' height='90'> <img src='G_1.jpg' height='90'> <img src='G_7.jpg' height='90'>","null","Animation1","",""
"","","","","","html-keyboard-response","99","286557","0.0-69.0","42","1","2025-02-02 04:32:50","bc01a2b6f61d06f6604adb8657495020","98.176.1.21","Mozilla/5.0 (X11; CrOS x86_64 14541.0.0) AppleWebKit/537.36 (KHTML, like Gecko) Chrome/132.0.0.0 Safari/537.36","WebKit","Chrome","132.0.0.0","ChromeOS","14541.0.0","https://app.prolific.com/","en-US,en;q=0.9","666dd3d9e53e0ff59d7cc164","679edb085803f58d6bbd31ca","679ef52607399d1264e22948","","null","<img id='swapped'   src='G_5.jpg' height='90'> <img id='swapped'   src='G_2.jpg' height='90'> <img    src='G_4.jpg' height='90'> <img    src='G_8.jpg' height='90'> <img src='G_6.jpg' height='90'> <img src='G_3.jpg' height='90'> <img src='G_1.jpg' height='90'> <img src='G_7.jpg' height='90'>","null","Animation1","",""
"","","","","","html-keyboard-response","100","286863","0.0-70.0","42","1","2025-02-02 04:32:50","bc01a2b6f61d06f6604adb8657495020","98.176.1.21","Mozilla/5.0 (X11; CrOS x86_64 14541.0.0) AppleWebKit/537.36 (KHTML, like Gecko) Chrome/132.0.0.0 Safari/537.36","WebKit","Chrome","132.0.0.0","ChromeOS","14541.0.0","https://app.prolific.com/","en-US,en;q=0.9","666dd3d9e53e0ff59d7cc164","679edb085803f58d6bbd31ca","679ef52607399d1264e22948","","null","<img    src='G_5.jpg' height='90'> <img    src='G_2.jpg' height='90'> <img    src='G_4.jpg' height='90'> <img    src='G_8.jpg' height='90'> <img src='G_6.jpg' height='90'> <img src='G_3.jpg' height='90'> <img src='G_1.jpg' height='90'> <img src='G_7.jpg' height='90'>","null","Animation1","",""
"","","","","","html-keyboard-response","101","287375","0.0-71.0","42","1","2025-02-02 04:32:50","bc01a2b6f61d06f6604adb8657495020","98.176.1.21","Mozilla/5.0 (X11; CrOS x86_64 14541.0.0) AppleWebKit/537.36 (KHTML, like Gecko) Chrome/132.0.0.0 Safari/537.36","WebKit","Chrome","132.0.0.0","ChromeOS","14541.0.0","https://app.prolific.com/","en-US,en;q=0.9","666dd3d9e53e0ff59d7cc164","679edb085803f58d6bbd31ca","679ef52607399d1264e22948","","null","<img    src='G_5.jpg' height='90'> <img    src='G_2.jpg' height='90'> <img    src='G_4.jpg' height='90'> <img id='selected'    src='G_8.jpg' height='90'> <img src='G_6.jpg' height='90'> <img src='G_3.jpg' height='90'> <img src='G_1.jpg' height='90'> <img src='G_7.jpg' height='90'>","null","Animation1","",""
"","","","","","html-keyboard-response","102","287887","0.0-72.0","42","1","2025-02-02 04:32:50","bc01a2b6f61d06f6604adb8657495020","98.176.1.21","Mozilla/5.0 (X11; CrOS x86_64 14541.0.0) AppleWebKit/537.36 (KHTML, like Gecko) Chrome/132.0.0.0 Safari/537.36","WebKit","Chrome","132.0.0.0","ChromeOS","14541.0.0","https://app.prolific.com/","en-US,en;q=0.9","666dd3d9e53e0ff59d7cc164","679edb085803f58d6bbd31ca","679ef52607399d1264e22948","","null","<img    src='G_5.jpg' height='90'> <img    src='G_2.jpg' height='90'> <img    src='G_4.jpg' height='90'> <img id='selected'    src='G_8.jpg' height='90'> <img id='selected' src='G_6.jpg' height='90'> <img src='G_3.jpg' height='90'> <img src='G_1.jpg' height='90'> <img src='G_7.jpg' height='90'>","null","Animation1","",""
"","","","","","html-keyboard-response","103","288397","0.0-73.0","42","1","2025-02-02 04:32:50","bc01a2b6f61d06f6604adb8657495020","98.176.1.21","Mozilla/5.0 (X11; CrOS x86_64 14541.0.0) AppleWebKit/537.36 (KHTML, like Gecko) Chrome/132.0.0.0 Safari/537.36","WebKit","Chrome","132.0.0.0","ChromeOS","14541.0.0","https://app.prolific.com/","en-US,en;q=0.9","666dd3d9e53e0ff59d7cc164","679edb085803f58d6bbd31ca","679ef52607399d1264e22948","","null","<img    src='G_5.jpg' height='90'> <img    src='G_2.jpg' height='90'> <img    src='G_4.jpg' height='90'> <img id='swapped' src='G_6.jpg' height='90'> <img id='swapped'    src='G_8.jpg' height='90'> <img src='G_3.jpg' height='90'> <img src='G_1.jpg' height='90'> <img src='G_7.jpg' height='90'>","null","Animation1","",""
"","","","","","html-keyboard-response","104","288708","0.0-74.0","42","1","2025-02-02 04:32:50","bc01a2b6f61d06f6604adb8657495020","98.176.1.21","Mozilla/5.0 (X11; CrOS x86_64 14541.0.0) AppleWebKit/537.36 (KHTML, like Gecko) Chrome/132.0.0.0 Safari/537.36","WebKit","Chrome","132.0.0.0","ChromeOS","14541.0.0","https://app.prolific.com/","en-US,en;q=0.9","666dd3d9e53e0ff59d7cc164","679edb085803f58d6bbd31ca","679ef52607399d1264e22948","","null","<img    src='G_5.jpg' height='90'> <img    src='G_2.jpg' height='90'> <img    src='G_4.jpg' height='90'> <img  src='G_6.jpg' height='90'> <img     src='G_8.jpg' height='90'> <img src='G_3.jpg' height='90'> <img src='G_1.jpg' height='90'> <img src='G_7.jpg' height='90'>","null","Animation1","",""
"","","","","","html-keyboard-response","105","289220","0.0-75.0","42","1","2025-02-02 04:32:50","bc01a2b6f61d06f6604adb8657495020","98.176.1.21","Mozilla/5.0 (X11; CrOS x86_64 14541.0.0) AppleWebKit/537.36 (KHTML, like Gecko) Chrome/132.0.0.0 Safari/537.36","WebKit","Chrome","132.0.0.0","ChromeOS","14541.0.0","https://app.prolific.com/","en-US,en;q=0.9","666dd3d9e53e0ff59d7cc164","679edb085803f58d6bbd31ca","679ef52607399d1264e22948","","null","<img    src='G_5.jpg' height='90'> <img    src='G_2.jpg' height='90'> <img id='selected'    src='G_4.jpg' height='90'> <img  src='G_6.jpg' height='90'> <img     src='G_8.jpg' height='90'> <img src='G_3.jpg' height='90'> <img src='G_1.jpg' height='90'> <img src='G_7.jpg' height='90'>","null","Animation1","",""
"","","","","","html-keyboard-response","106","289725","0.0-76.0","42","1","2025-02-02 04:32:50","bc01a2b6f61d06f6604adb8657495020","98.176.1.21","Mozilla/5.0 (X11; CrOS x86_64 14541.0.0) AppleWebKit/537.36 (KHTML, like Gecko) Chrome/132.0.0.0 Safari/537.36","WebKit","Chrome","132.0.0.0","ChromeOS","14541.0.0","https://app.prolific.com/","en-US,en;q=0.9","666dd3d9e53e0ff59d7cc164","679edb085803f58d6bbd31ca","679ef52607399d1264e22948","","null","<img    src='G_5.jpg' height='90'> <img    src='G_2.jpg' height='90'> <img id='selected'    src='G_4.jpg' height='90'> <img id='selected'  src='G_6.jpg' height='90'> <img     src='G_8.jpg' height='90'> <img src='G_3.jpg' height='90'> <img src='G_1.jpg' height='90'> <img src='G_7.jpg' height='90'>","null","Animation1","",""
"","","","","","html-keyboard-response","107","290238","0.0-77.0","42","1","2025-02-02 04:32:50","bc01a2b6f61d06f6604adb8657495020","98.176.1.21","Mozilla/5.0 (X11; CrOS x86_64 14541.0.0) AppleWebKit/537.36 (KHTML, like Gecko) Chrome/132.0.0.0 Safari/537.36","WebKit","Chrome","132.0.0.0","ChromeOS","14541.0.0","https://app.prolific.com/","en-US,en;q=0.9","666dd3d9e53e0ff59d7cc164","679edb085803f58d6bbd31ca","679ef52607399d1264e22948","","null","<img    src='G_5.jpg' height='90'> <img    src='G_2.jpg' height='90'> <img id='swapped'  src='G_6.jpg' height='90'> <img id='swapped'    src='G_4.jpg' height='90'> <img     src='G_8.jpg' height='90'> <img src='G_3.jpg' height='90'> <img src='G_1.jpg' height='90'> <img src='G_7.jpg' height='90'>","null","Animation1","",""
"","","","","","html-keyboard-response","108","290550","0.0-78.0","42","1","2025-02-02 04:32:50","bc01a2b6f61d06f6604adb8657495020","98.176.1.21","Mozilla/5.0 (X11; CrOS x86_64 14541.0.0) AppleWebKit/537.36 (KHTML, like Gecko) Chrome/132.0.0.0 Safari/537.36","WebKit","Chrome","132.0.0.0","ChromeOS","14541.0.0","https://app.prolific.com/","en-US,en;q=0.9","666dd3d9e53e0ff59d7cc164","679edb085803f58d6bbd31ca","679ef52607399d1264e22948","","null","<img    src='G_5.jpg' height='90'> <img    src='G_2.jpg' height='90'> <img   src='G_6.jpg' height='90'> <img     src='G_4.jpg' height='90'> <img     src='G_8.jpg' height='90'> <img src='G_3.jpg' height='90'> <img src='G_1.jpg' height='90'> <img src='G_7.jpg' height='90'>","null","Animation1","",""
"","","","","","html-keyboard-response","109","291062","0.0-79.0","42","1","2025-02-02 04:32:50","bc01a2b6f61d06f6604adb8657495020","98.176.1.21","Mozilla/5.0 (X11; CrOS x86_64 14541.0.0) AppleWebKit/537.36 (KHTML, like Gecko) Chrome/132.0.0.0 Safari/537.36","WebKit","Chrome","132.0.0.0","ChromeOS","14541.0.0","https://app.prolific.com/","en-US,en;q=0.9","666dd3d9e53e0ff59d7cc164","679edb085803f58d6bbd31ca","679ef52607399d1264e22948","","null","<img    src='G_5.jpg' height='90'> <img id='selected'    src='G_2.jpg' height='90'> <img   src='G_6.jpg' height='90'> <img     src='G_4.jpg' height='90'> <img     src='G_8.jpg' height='90'> <img src='G_3.jpg' height='90'> <img src='G_1.jpg' height='90'> <img src='G_7.jpg' height='90'>","null","Animation1","",""
"","","","","","html-keyboard-response","110","291573","0.0-80.0","42","1","2025-02-02 04:32:50","bc01a2b6f61d06f6604adb8657495020","98.176.1.21","Mozilla/5.0 (X11; CrOS x86_64 14541.0.0) AppleWebKit/537.36 (KHTML, like Gecko) Chrome/132.0.0.0 Safari/537.36","WebKit","Chrome","132.0.0.0","ChromeOS","14541.0.0","https://app.prolific.com/","en-US,en;q=0.9","666dd3d9e53e0ff59d7cc164","679edb085803f58d6bbd31ca","679ef52607399d1264e22948","","null","<img    src='G_5.jpg' height='90'> <img id='selected'    src='G_2.jpg' height='90'> <img id='selected'   src='G_6.jpg' height='90'> <img     src='G_4.jpg' height='90'> <img     src='G_8.jpg' height='90'> <img src='G_3.jpg' height='90'> <img src='G_1.jpg' height='90'> <img src='G_7.jpg' height='90'>","null","Animation1","",""
"","","","","","html-keyboard-response","111","292079","0.0-81.0","42","1","2025-02-02 04:32:50","bc01a2b6f61d06f6604adb8657495020","98.176.1.21","Mozilla/5.0 (X11; CrOS x86_64 14541.0.0) AppleWebKit/537.36 (KHTML, like Gecko) Chrome/132.0.0.0 Safari/537.36","WebKit","Chrome","132.0.0.0","ChromeOS","14541.0.0","https://app.prolific.com/","en-US,en;q=0.9","666dd3d9e53e0ff59d7cc164","679edb085803f58d6bbd31ca","679ef52607399d1264e22948","","null","<img    src='G_5.jpg' height='90'> <img id='swapped'   src='G_6.jpg' height='90'> <img id='swapped'    src='G_2.jpg' height='90'> <img     src='G_4.jpg' height='90'> <img     src='G_8.jpg' height='90'> <img src='G_3.jpg' height='90'> <img src='G_1.jpg' height='90'> <img src='G_7.jpg' height='90'>","null","Animation1","",""
"","","","","","html-keyboard-response","112","292391","0.0-82.0","42","1","2025-02-02 04:32:50","bc01a2b6f61d06f6604adb8657495020","98.176.1.21","Mozilla/5.0 (X11; CrOS x86_64 14541.0.0) AppleWebKit/537.36 (KHTML, like Gecko) Chrome/132.0.0.0 Safari/537.36","WebKit","Chrome","132.0.0.0","ChromeOS","14541.0.0","https://app.prolific.com/","en-US,en;q=0.9","666dd3d9e53e0ff59d7cc164","679edb085803f58d6bbd31ca","679ef52607399d1264e22948","","null","<img    src='G_5.jpg' height='90'> <img    src='G_6.jpg' height='90'> <img     src='G_2.jpg' height='90'> <img     src='G_4.jpg' height='90'> <img     src='G_8.jpg' height='90'> <img src='G_3.jpg' height='90'> <img src='G_1.jpg' height='90'> <img src='G_7.jpg' height='90'>","null","Animation1","",""
"","","","","","html-keyboard-response","113","292903","0.0-83.0","42","1","2025-02-02 04:32:50","bc01a2b6f61d06f6604adb8657495020","98.176.1.21","Mozilla/5.0 (X11; CrOS x86_64 14541.0.0) AppleWebKit/537.36 (KHTML, like Gecko) Chrome/132.0.0.0 Safari/537.36","WebKit","Chrome","132.0.0.0","ChromeOS","14541.0.0","https://app.prolific.com/","en-US,en;q=0.9","666dd3d9e53e0ff59d7cc164","679edb085803f58d6bbd31ca","679ef52607399d1264e22948","","null","<img id='selected'    src='G_5.jpg' height='90'> <img    src='G_6.jpg' height='90'> <img     src='G_2.jpg' height='90'> <img     src='G_4.jpg' height='90'> <img     src='G_8.jpg' height='90'> <img src='G_3.jpg' height='90'> <img src='G_1.jpg' height='90'> <img src='G_7.jpg' height='90'>","null","Animation1","",""
"","","","","","html-keyboard-response","114","293416","0.0-84.0","42","1","2025-02-02 04:32:50","bc01a2b6f61d06f6604adb8657495020","98.176.1.21","Mozilla/5.0 (X11; CrOS x86_64 14541.0.0) AppleWebKit/537.36 (KHTML, like Gecko) Chrome/132.0.0.0 Safari/537.36","WebKit","Chrome","132.0.0.0","ChromeOS","14541.0.0","https://app.prolific.com/","en-US,en;q=0.9","666dd3d9e53e0ff59d7cc164","679edb085803f58d6bbd31ca","679ef52607399d1264e22948","","null","<img id='selected'    src='G_5.jpg' height='90'> <img id='selected'    src='G_6.jpg' height='90'> <img     src='G_2.jpg' height='90'> <img     src='G_4.jpg' height='90'> <img     src='G_8.jpg' height='90'> <img src='G_3.jpg' height='90'> <img src='G_1.jpg' height='90'> <img src='G_7.jpg' height='90'>","null","Animation1","",""
"","","","","","html-keyboard-response","115","293928","0.0-85.0","42","1","2025-02-02 04:32:50","bc01a2b6f61d06f6604adb8657495020","98.176.1.21","Mozilla/5.0 (X11; CrOS x86_64 14541.0.0) AppleWebKit/537.36 (KHTML, like Gecko) Chrome/132.0.0.0 Safari/537.36","WebKit","Chrome","132.0.0.0","ChromeOS","14541.0.0","https://app.prolific.com/","en-US,en;q=0.9","666dd3d9e53e0ff59d7cc164","679edb085803f58d6bbd31ca","679ef52607399d1264e22948","","null","<img id='selected'    src='G_5.jpg' height='90'> <img id='selected'    src='G_6.jpg' height='90'> <img     src='G_2.jpg' height='90'> <img     src='G_4.jpg' height='90'> <img     src='G_8.jpg' height='90'> <img src='G_3.jpg' height='90'> <img src='G_1.jpg' height='90'> <img src='G_7.jpg' height='90'>","null","Animation1","",""
"","","","","","html-keyboard-response","116","294240","0.0-86.0","42","1","2025-02-02 04:32:50","bc01a2b6f61d06f6604adb8657495020","98.176.1.21","Mozilla/5.0 (X11; CrOS x86_64 14541.0.0) AppleWebKit/537.36 (KHTML, like Gecko) Chrome/132.0.0.0 Safari/537.36","WebKit","Chrome","132.0.0.0","ChromeOS","14541.0.0","https://app.prolific.com/","en-US,en;q=0.9","666dd3d9e53e0ff59d7cc164","679edb085803f58d6bbd31ca","679ef52607399d1264e22948","","null","<img     src='G_5.jpg' height='90'> <img     src='G_6.jpg' height='90'> <img     src='G_2.jpg' height='90'> <img     src='G_4.jpg' height='90'> <img     src='G_8.jpg' height='90'> <img src='G_3.jpg' height='90'> <img src='G_1.jpg' height='90'> <img src='G_7.jpg' height='90'>","null","Animation1","",""
"","","","","","html-keyboard-response","117","294746","0.0-87.0","42","1","2025-02-02 04:32:50","bc01a2b6f61d06f6604adb8657495020","98.176.1.21","Mozilla/5.0 (X11; CrOS x86_64 14541.0.0) AppleWebKit/537.36 (KHTML, like Gecko) Chrome/132.0.0.0 Safari/537.36","WebKit","Chrome","132.0.0.0","ChromeOS","14541.0.0","https://app.prolific.com/","en-US,en;q=0.9","666dd3d9e53e0ff59d7cc164","679edb085803f58d6bbd31ca","679ef52607399d1264e22948","","null","<img     src='G_5.jpg' height='90'> <img     src='G_6.jpg' height='90'> <img     src='G_2.jpg' height='90'> <img     src='G_4.jpg' height='90'> <img id='selected'     src='G_8.jpg' height='90'> <img src='G_3.jpg' height='90'> <img src='G_1.jpg' height='90'> <img src='G_7.jpg' height='90'>","null","Animation1","",""
"","","","","","html-keyboard-response","118","295258","0.0-88.0","42","1","2025-02-02 04:32:50","bc01a2b6f61d06f6604adb8657495020","98.176.1.21","Mozilla/5.0 (X11; CrOS x86_64 14541.0.0) AppleWebKit/537.36 (KHTML, like Gecko) Chrome/132.0.0.0 Safari/537.36","WebKit","Chrome","132.0.0.0","ChromeOS","14541.0.0","https://app.prolific.com/","en-US,en;q=0.9","666dd3d9e53e0ff59d7cc164","679edb085803f58d6bbd31ca","679ef52607399d1264e22948","","null","<img     src='G_5.jpg' height='90'> <img     src='G_6.jpg' height='90'> <img     src='G_2.jpg' height='90'> <img     src='G_4.jpg' height='90'> <img id='selected'     src='G_8.jpg' height='90'> <img id='selected' src='G_3.jpg' height='90'> <img src='G_1.jpg' height='90'> <img src='G_7.jpg' height='90'>","null","Animation1","",""
"","","","","","html-keyboard-response","119","295771","0.0-89.0","42","1","2025-02-02 04:32:50","bc01a2b6f61d06f6604adb8657495020","98.176.1.21","Mozilla/5.0 (X11; CrOS x86_64 14541.0.0) AppleWebKit/537.36 (KHTML, like Gecko) Chrome/132.0.0.0 Safari/537.36","WebKit","Chrome","132.0.0.0","ChromeOS","14541.0.0","https://app.prolific.com/","en-US,en;q=0.9","666dd3d9e53e0ff59d7cc164","679edb085803f58d6bbd31ca","679ef52607399d1264e22948","","null","<img     src='G_5.jpg' height='90'> <img     src='G_6.jpg' height='90'> <img     src='G_2.jpg' height='90'> <img     src='G_4.jpg' height='90'> <img id='swapped' src='G_3.jpg' height='90'> <img id='swapped'     src='G_8.jpg' height='90'> <img src='G_1.jpg' height='90'> <img src='G_7.jpg' height='90'>","null","Animation1","",""
"","","","","","html-keyboard-response","120","296083","0.0-90.0","42","1","2025-02-02 04:32:50","bc01a2b6f61d06f6604adb8657495020","98.176.1.21","Mozilla/5.0 (X11; CrOS x86_64 14541.0.0) AppleWebKit/537.36 (KHTML, like Gecko) Chrome/132.0.0.0 Safari/537.36","WebKit","Chrome","132.0.0.0","ChromeOS","14541.0.0","https://app.prolific.com/","en-US,en;q=0.9","666dd3d9e53e0ff59d7cc164","679edb085803f58d6bbd31ca","679ef52607399d1264e22948","","null","<img     src='G_5.jpg' height='90'> <img     src='G_6.jpg' height='90'> <img     src='G_2.jpg' height='90'> <img     src='G_4.jpg' height='90'> <img  src='G_3.jpg' height='90'> <img      src='G_8.jpg' height='90'> <img src='G_1.jpg' height='90'> <img src='G_7.jpg' height='90'>","null","Animation1","",""
"","","","","","html-keyboard-response","121","296596","0.0-91.0","42","1","2025-02-02 04:32:50","bc01a2b6f61d06f6604adb8657495020","98.176.1.21","Mozilla/5.0 (X11; CrOS x86_64 14541.0.0) AppleWebKit/537.36 (KHTML, like Gecko) Chrome/132.0.0.0 Safari/537.36","WebKit","Chrome","132.0.0.0","ChromeOS","14541.0.0","https://app.prolific.com/","en-US,en;q=0.9","666dd3d9e53e0ff59d7cc164","679edb085803f58d6bbd31ca","679ef52607399d1264e22948","","null","<img     src='G_5.jpg' height='90'> <img     src='G_6.jpg' height='90'> <img     src='G_2.jpg' height='90'> <img id='selected'     src='G_4.jpg' height='90'> <img  src='G_3.jpg' height='90'> <img      src='G_8.jpg' height='90'> <img src='G_1.jpg' height='90'> <img src='G_7.jpg' height='90'>","null","Animation1","",""
"","","","","","html-keyboard-response","122","297109","0.0-92.0","42","1","2025-02-02 04:32:50","bc01a2b6f61d06f6604adb8657495020","98.176.1.21","Mozilla/5.0 (X11; CrOS x86_64 14541.0.0) AppleWebKit/537.36 (KHTML, like Gecko) Chrome/132.0.0.0 Safari/537.36","WebKit","Chrome","132.0.0.0","ChromeOS","14541.0.0","https://app.prolific.com/","en-US,en;q=0.9","666dd3d9e53e0ff59d7cc164","679edb085803f58d6bbd31ca","679ef52607399d1264e22948","","null","<img     src='G_5.jpg' height='90'> <img     src='G_6.jpg' height='90'> <img     src='G_2.jpg' height='90'> <img id='selected'     src='G_4.jpg' height='90'> <img id='selected'  src='G_3.jpg' height='90'> <img      src='G_8.jpg' height='90'> <img src='G_1.jpg' height='90'> <img src='G_7.jpg' height='90'>","null","Animation1","",""
"","","","","","html-keyboard-response","123","297622","0.0-93.0","42","1","2025-02-02 04:32:50","bc01a2b6f61d06f6604adb8657495020","98.176.1.21","Mozilla/5.0 (X11; CrOS x86_64 14541.0.0) AppleWebKit/537.36 (KHTML, like Gecko) Chrome/132.0.0.0 Safari/537.36","WebKit","Chrome","132.0.0.0","ChromeOS","14541.0.0","https://app.prolific.com/","en-US,en;q=0.9","666dd3d9e53e0ff59d7cc164","679edb085803f58d6bbd31ca","679ef52607399d1264e22948","","null","<img     src='G_5.jpg' height='90'> <img     src='G_6.jpg' height='90'> <img     src='G_2.jpg' height='90'> <img id='selected'     src='G_4.jpg' height='90'> <img id='selected'  src='G_3.jpg' height='90'> <img      src='G_8.jpg' height='90'> <img src='G_1.jpg' height='90'> <img src='G_7.jpg' height='90'>","null","Animation1","",""
"","","","","","html-keyboard-response","124","297937","0.0-94.0","42","1","2025-02-02 04:32:50","bc01a2b6f61d06f6604adb8657495020","98.176.1.21","Mozilla/5.0 (X11; CrOS x86_64 14541.0.0) AppleWebKit/537.36 (KHTML, like Gecko) Chrome/132.0.0.0 Safari/537.36","WebKit","Chrome","132.0.0.0","ChromeOS","14541.0.0","https://app.prolific.com/","en-US,en;q=0.9","666dd3d9e53e0ff59d7cc164","679edb085803f58d6bbd31ca","679ef52607399d1264e22948","","null","<img     src='G_5.jpg' height='90'> <img     src='G_6.jpg' height='90'> <img     src='G_2.jpg' height='90'> <img      src='G_4.jpg' height='90'> <img   src='G_3.jpg' height='90'> <img      src='G_8.jpg' height='90'> <img src='G_1.jpg' height='90'> <img src='G_7.jpg' height='90'>","null","Animation1","",""
"","","","","","html-keyboard-response","125","298443","0.0-95.0","42","1","2025-02-02 04:32:50","bc01a2b6f61d06f6604adb8657495020","98.176.1.21","Mozilla/5.0 (X11; CrOS x86_64 14541.0.0) AppleWebKit/537.36 (KHTML, like Gecko) Chrome/132.0.0.0 Safari/537.36","WebKit","Chrome","132.0.0.0","ChromeOS","14541.0.0","https://app.prolific.com/","en-US,en;q=0.9","666dd3d9e53e0ff59d7cc164","679edb085803f58d6bbd31ca","679ef52607399d1264e22948","","null","<img     src='G_5.jpg' height='90'> <img     src='G_6.jpg' height='90'> <img     src='G_2.jpg' height='90'> <img      src='G_4.jpg' height='90'> <img   src='G_3.jpg' height='90'> <img id='selected'      src='G_8.jpg' height='90'> <img src='G_1.jpg' height='90'> <img src='G_7.jpg' height='90'>","null","Animation1","",""
"","","","","","html-keyboard-response","126","298958","0.0-96.0","42","1","2025-02-02 04:32:50","bc01a2b6f61d06f6604adb8657495020","98.176.1.21","Mozilla/5.0 (X11; CrOS x86_64 14541.0.0) AppleWebKit/537.36 (KHTML, like Gecko) Chrome/132.0.0.0 Safari/537.36","WebKit","Chrome","132.0.0.0","ChromeOS","14541.0.0","https://app.prolific.com/","en-US,en;q=0.9","666dd3d9e53e0ff59d7cc164","679edb085803f58d6bbd31ca","679ef52607399d1264e22948","","null","<img     src='G_5.jpg' height='90'> <img     src='G_6.jpg' height='90'> <img     src='G_2.jpg' height='90'> <img      src='G_4.jpg' height='90'> <img   src='G_3.jpg' height='90'> <img id='selected'      src='G_8.jpg' height='90'> <img id='selected' src='G_1.jpg' height='90'> <img src='G_7.jpg' height='90'>","null","Animation1","",""
"","","","","","html-keyboard-response","127","299467","0.0-97.0","42","1","2025-02-02 04:32:50","bc01a2b6f61d06f6604adb8657495020","98.176.1.21","Mozilla/5.0 (X11; CrOS x86_64 14541.0.0) AppleWebKit/537.36 (KHTML, like Gecko) Chrome/132.0.0.0 Safari/537.36","WebKit","Chrome","132.0.0.0","ChromeOS","14541.0.0","https://app.prolific.com/","en-US,en;q=0.9","666dd3d9e53e0ff59d7cc164","679edb085803f58d6bbd31ca","679ef52607399d1264e22948","","null","<img     src='G_5.jpg' height='90'> <img     src='G_6.jpg' height='90'> <img     src='G_2.jpg' height='90'> <img      src='G_4.jpg' height='90'> <img   src='G_3.jpg' height='90'> <img id='selected'      src='G_8.jpg' height='90'> <img id='selected' src='G_1.jpg' height='90'> <img src='G_7.jpg' height='90'>","null","Animation1","",""
"","","","","","html-keyboard-response","128","299780","0.0-98.0","42","1","2025-02-02 04:32:50","bc01a2b6f61d06f6604adb8657495020","98.176.1.21","Mozilla/5.0 (X11; CrOS x86_64 14541.0.0) AppleWebKit/537.36 (KHTML, like Gecko) Chrome/132.0.0.0 Safari/537.36","WebKit","Chrome","132.0.0.0","ChromeOS","14541.0.0","https://app.prolific.com/","en-US,en;q=0.9","666dd3d9e53e0ff59d7cc164","679edb085803f58d6bbd31ca","679ef52607399d1264e22948","","null","<img     src='G_5.jpg' height='90'> <img     src='G_6.jpg' height='90'> <img     src='G_2.jpg' height='90'> <img      src='G_4.jpg' height='90'> <img   src='G_3.jpg' height='90'> <img       src='G_8.jpg' height='90'> <img  src='G_1.jpg' height='90'> <img src='G_7.jpg' height='90'>","null","Animation1","",""
"","","","","","html-keyboard-response","129","300293","0.0-99.0","42","1","2025-02-02 04:32:50","bc01a2b6f61d06f6604adb8657495020","98.176.1.21","Mozilla/5.0 (X11; CrOS x86_64 14541.0.0) AppleWebKit/537.36 (KHTML, like Gecko) Chrome/132.0.0.0 Safari/537.36","WebKit","Chrome","132.0.0.0","ChromeOS","14541.0.0","https://app.prolific.com/","en-US,en;q=0.9","666dd3d9e53e0ff59d7cc164","679edb085803f58d6bbd31ca","679ef52607399d1264e22948","","null","<img     src='G_5.jpg' height='90'> <img     src='G_6.jpg' height='90'> <img     src='G_2.jpg' height='90'> <img      src='G_4.jpg' height='90'> <img   src='G_3.jpg' height='90'> <img       src='G_8.jpg' height='90'> <img id='selected'  src='G_1.jpg' height='90'> <img src='G_7.jpg' height='90'>","null","Animation1","",""
"","","","","","html-keyboard-response","130","300799","0.0-100.0","42","1","2025-02-02 04:32:50","bc01a2b6f61d06f6604adb8657495020","98.176.1.21","Mozilla/5.0 (X11; CrOS x86_64 14541.0.0) AppleWebKit/537.36 (KHTML, like Gecko) Chrome/132.0.0.0 Safari/537.36","WebKit","Chrome","132.0.0.0","ChromeOS","14541.0.0","https://app.prolific.com/","en-US,en;q=0.9","666dd3d9e53e0ff59d7cc164","679edb085803f58d6bbd31ca","679ef52607399d1264e22948","","null","<img     src='G_5.jpg' height='90'> <img     src='G_6.jpg' height='90'> <img     src='G_2.jpg' height='90'> <img      src='G_4.jpg' height='90'> <img   src='G_3.jpg' height='90'> <img       src='G_8.jpg' height='90'> <img id='selected'  src='G_1.jpg' height='90'> <img id='selected' src='G_7.jpg' height='90'>","null","Animation1","",""
"","","","","","html-keyboard-response","131","301312","0.0-101.0","42","1","2025-02-02 04:32:50","bc01a2b6f61d06f6604adb8657495020","98.176.1.21","Mozilla/5.0 (X11; CrOS x86_64 14541.0.0) AppleWebKit/537.36 (KHTML, like Gecko) Chrome/132.0.0.0 Safari/537.36","WebKit","Chrome","132.0.0.0","ChromeOS","14541.0.0","https://app.prolific.com/","en-US,en;q=0.9","666dd3d9e53e0ff59d7cc164","679edb085803f58d6bbd31ca","679ef52607399d1264e22948","","null","<img     src='G_5.jpg' height='90'> <img     src='G_6.jpg' height='90'> <img     src='G_2.jpg' height='90'> <img      src='G_4.jpg' height='90'> <img   src='G_3.jpg' height='90'> <img       src='G_8.jpg' height='90'> <img id='swapped' src='G_7.jpg' height='90'> <img id='swapped'  src='G_1.jpg' height='90'>","null","Animation1","",""
"","","","","","html-keyboard-response","132","301625","0.0-102.0","42","1","2025-02-02 04:32:50","bc01a2b6f61d06f6604adb8657495020","98.176.1.21","Mozilla/5.0 (X11; CrOS x86_64 14541.0.0) AppleWebKit/537.36 (KHTML, like Gecko) Chrome/132.0.0.0 Safari/537.36","WebKit","Chrome","132.0.0.0","ChromeOS","14541.0.0","https://app.prolific.com/","en-US,en;q=0.9","666dd3d9e53e0ff59d7cc164","679edb085803f58d6bbd31ca","679ef52607399d1264e22948","","null","<img     src='G_5.jpg' height='90'> <img     src='G_6.jpg' height='90'> <img     src='G_2.jpg' height='90'> <img      src='G_4.jpg' height='90'> <img   src='G_3.jpg' height='90'> <img       src='G_8.jpg' height='90'> <img  src='G_7.jpg' height='90'> <img   src='G_1.jpg' height='90'>","null","Animation1","",""
"","","","","","html-keyboard-response","133","302136","0.0-103.0","42","1","2025-02-02 04:32:50","bc01a2b6f61d06f6604adb8657495020","98.176.1.21","Mozilla/5.0 (X11; CrOS x86_64 14541.0.0) AppleWebKit/537.36 (KHTML, like Gecko) Chrome/132.0.0.0 Safari/537.36","WebKit","Chrome","132.0.0.0","ChromeOS","14541.0.0","https://app.prolific.com/","en-US,en;q=0.9","666dd3d9e53e0ff59d7cc164","679edb085803f58d6bbd31ca","679ef52607399d1264e22948","","null","<img     src='G_5.jpg' height='90'> <img     src='G_6.jpg' height='90'> <img     src='G_2.jpg' height='90'> <img      src='G_4.jpg' height='90'> <img   src='G_3.jpg' height='90'> <img id='selected'       src='G_8.jpg' height='90'> <img  src='G_7.jpg' height='90'> <img   src='G_1.jpg' height='90'>","null","Animation1","",""
"","","","","","html-keyboard-response","134","302653","0.0-104.0","42","1","2025-02-02 04:32:50","bc01a2b6f61d06f6604adb8657495020","98.176.1.21","Mozilla/5.0 (X11; CrOS x86_64 14541.0.0) AppleWebKit/537.36 (KHTML, like Gecko) Chrome/132.0.0.0 Safari/537.36","WebKit","Chrome","132.0.0.0","ChromeOS","14541.0.0","https://app.prolific.com/","en-US,en;q=0.9","666dd3d9e53e0ff59d7cc164","679edb085803f58d6bbd31ca","679ef52607399d1264e22948","","null","<img     src='G_5.jpg' height='90'> <img     src='G_6.jpg' height='90'> <img     src='G_2.jpg' height='90'> <img      src='G_4.jpg' height='90'> <img   src='G_3.jpg' height='90'> <img id='selected'       src='G_8.jpg' height='90'> <img id='selected'  src='G_7.jpg' height='90'> <img   src='G_1.jpg' height='90'>","null","Animation1","",""
"","","","","","html-keyboard-response","135","303162","0.0-105.0","42","1","2025-02-02 04:32:50","bc01a2b6f61d06f6604adb8657495020","98.176.1.21","Mozilla/5.0 (X11; CrOS x86_64 14541.0.0) AppleWebKit/537.36 (KHTML, like Gecko) Chrome/132.0.0.0 Safari/537.36","WebKit","Chrome","132.0.0.0","ChromeOS","14541.0.0","https://app.prolific.com/","en-US,en;q=0.9","666dd3d9e53e0ff59d7cc164","679edb085803f58d6bbd31ca","679ef52607399d1264e22948","","null","<img     src='G_5.jpg' height='90'> <img     src='G_6.jpg' height='90'> <img     src='G_2.jpg' height='90'> <img      src='G_4.jpg' height='90'> <img   src='G_3.jpg' height='90'> <img id='selected'       src='G_8.jpg' height='90'> <img id='selected'  src='G_7.jpg' height='90'> <img   src='G_1.jpg' height='90'>","null","Animation1","",""
"","","","","","html-keyboard-response","136","303476","0.0-106.0","42","1","2025-02-02 04:32:50","bc01a2b6f61d06f6604adb8657495020","98.176.1.21","Mozilla/5.0 (X11; CrOS x86_64 14541.0.0) AppleWebKit/537.36 (KHTML, like Gecko) Chrome/132.0.0.0 Safari/537.36","WebKit","Chrome","132.0.0.0","ChromeOS","14541.0.0","https://app.prolific.com/","en-US,en;q=0.9","666dd3d9e53e0ff59d7cc164","679edb085803f58d6bbd31ca","679ef52607399d1264e22948","","null","<img     src='G_5.jpg' height='90'> <img     src='G_6.jpg' height='90'> <img     src='G_2.jpg' height='90'> <img      src='G_4.jpg' height='90'> <img   src='G_3.jpg' height='90'> <img        src='G_8.jpg' height='90'> <img   src='G_7.jpg' height='90'> <img   src='G_1.jpg' height='90'>","null","Animation1","",""
"","","","","","html-keyboard-response","137","305945","0.0-107.0","42","1","2025-02-02 04:32:50","bc01a2b6f61d06f6604adb8657495020","98.176.1.21","Mozilla/5.0 (X11; CrOS x86_64 14541.0.0) AppleWebKit/537.36 (KHTML, like Gecko) Chrome/132.0.0.0 Safari/537.36","WebKit","Chrome","132.0.0.0","ChromeOS","14541.0.0","https://app.prolific.com/","en-US,en;q=0.9","666dd3d9e53e0ff59d7cc164","679edb085803f58d6bbd31ca","679ef52607399d1264e22948","","2465","[""Did you notice any patterns? <br><br>Press Enter to watch that example again and follow the steps of Omgne Sort.""]","enter","","",""
"","","","","","html-button-response","138","306351","0.0-108.0","42","1","2025-02-02 04:32:50","bc01a2b6f61d06f6604adb8657495020","98.176.1.21","Mozilla/5.0 (X11; CrOS x86_64 14541.0.0) AppleWebKit/537.36 (KHTML, like Gecko) Chrome/132.0.0.0 Safari/537.36","WebKit","Chrome","132.0.0.0","ChromeOS","14541.0.0","https://app.prolific.com/","en-US,en;q=0.9","666dd3d9e53e0ff59d7cc164","679edb085803f58d6bbd31ca","679ef52607399d1264e22948","","null","<img id='selected' src='G_4.jpg' height='90'> <img src='G_8.jpg' height='90'> <img src='G_2.jpg' height='90'> <img src='G_5.jpg' height='90'> <img src='G_6.jpg' height='90'> <img src='G_3.jpg' height='90'> <img src='G_1.jpg' height='90'> <img src='G_7.jpg' height='90'>","null","Learning example 1","",""
"","","","","","html-button-response","139","306658","0.0-109.0","42","1","2025-02-02 04:32:50","bc01a2b6f61d06f6604adb8657495020","98.176.1.21","Mozilla/5.0 (X11; CrOS x86_64 14541.0.0) AppleWebKit/537.36 (KHTML, like Gecko) Chrome/132.0.0.0 Safari/537.36","WebKit","Chrome","132.0.0.0","ChromeOS","14541.0.0","https://app.prolific.com/","en-US,en;q=0.9","666dd3d9e53e0ff59d7cc164","679edb085803f58d6bbd31ca","679ef52607399d1264e22948","","null","<img id='selected' src='G_4.jpg' height='90'> <img id='selected' src='G_8.jpg' height='90'> <img src='G_2.jpg' height='90'> <img src='G_5.jpg' height='90'> <img src='G_6.jpg' height='90'> <img src='G_3.jpg' height='90'> <img src='G_1.jpg' height='90'> <img src='G_7.jpg' height='90'>","null","Learning example 1","",""
"","","","","","html-button-response","140","306973","0.0-110.0","42","1","2025-02-02 04:32:50","bc01a2b6f61d06f6604adb8657495020","98.176.1.21","Mozilla/5.0 (X11; CrOS x86_64 14541.0.0) AppleWebKit/537.36 (KHTML, like Gecko) Chrome/132.0.0.0 Safari/537.36","WebKit","Chrome","132.0.0.0","ChromeOS","14541.0.0","https://app.prolific.com/","en-US,en;q=0.9","666dd3d9e53e0ff59d7cc164","679edb085803f58d6bbd31ca","679ef52607399d1264e22948","","null","<img id='selected' src='G_4.jpg' height='90'> <img id='selected' src='G_8.jpg' height='90'> <img src='G_2.jpg' height='90'> <img src='G_5.jpg' height='90'> <img src='G_6.jpg' height='90'> <img src='G_3.jpg' height='90'> <img src='G_1.jpg' height='90'> <img src='G_7.jpg' height='90'>","null","Learning example 1","",""
"","","","","","html-button-response","141","311741","0.0-111.0-0.0-0.0","42","1","2025-02-02 04:32:50","bc01a2b6f61d06f6604adb8657495020","98.176.1.21","Mozilla/5.0 (X11; CrOS x86_64 14541.0.0) AppleWebKit/537.36 (KHTML, like Gecko) Chrome/132.0.0.0 Safari/537.36","WebKit","Chrome","132.0.0.0","ChromeOS","14541.0.0","https://app.prolific.com/","en-US,en;q=0.9","666dd3d9e53e0ff59d7cc164","679edb085803f58d6bbd31ca","679ef52607399d1264e22948","","4762","<img id='selected' src='G_4.jpg' height='90'> <img id='selected' src='G_8.jpg' height='90'> <img src='G_2.jpg' height='90'> <img src='G_5.jpg' height='90'> <img src='G_6.jpg' height='90'> <img src='G_3.jpg' height='90'> <img src='G_1.jpg' height='90'> <img src='G_7.jpg' height='90'>","0","Learning example 1","",""
"","","","","","html-button-response","142","312746","0.0-111.1-0.1-0.1","42","1","2025-02-02 04:32:50","bc01a2b6f61d06f6604adb8657495020","98.176.1.21","Mozilla/5.0 (X11; CrOS x86_64 14541.0.0) AppleWebKit/537.36 (KHTML, like Gecko) Chrome/132.0.0.0 Safari/537.36","WebKit","Chrome","132.0.0.0","ChromeOS","14541.0.0","https://app.prolific.com/","en-US,en;q=0.9","666dd3d9e53e0ff59d7cc164","679edb085803f58d6bbd31ca","679ef52607399d1264e22948","","999","<img id='selected' src='G_4.jpg' height='90'> <img id='selected' src='G_8.jpg' height='90'> <img src='G_2.jpg' height='90'> <img src='G_5.jpg' height='90'> <img src='G_6.jpg' height='90'> <img src='G_3.jpg' height='90'> <img src='G_1.jpg' height='90'> <img src='G_7.jpg' height='90'>","1","Learning example 1","",""
"","","","","","html-button-response","143","312954","0.0-112.0","42","1","2025-02-02 04:32:50","bc01a2b6f61d06f6604adb8657495020","98.176.1.21","Mozilla/5.0 (X11; CrOS x86_64 14541.0.0) AppleWebKit/537.36 (KHTML, like Gecko) Chrome/132.0.0.0 Safari/537.36","WebKit","Chrome","132.0.0.0","ChromeOS","14541.0.0","https://app.prolific.com/","en-US,en;q=0.9","666dd3d9e53e0ff59d7cc164","679edb085803f58d6bbd31ca","679ef52607399d1264e22948","","null","<img  src='G_4.jpg' height='90'> <img  src='G_8.jpg' height='90'> <img src='G_2.jpg' height='90'> <img src='G_5.jpg' height='90'> <img src='G_6.jpg' height='90'> <img src='G_3.jpg' height='90'> <img src='G_1.jpg' height='90'> <img src='G_7.jpg' height='90'>","null","Learning example 1","",""
"","","","","","html-button-response","144","313370","0.0-113.0","42","1","2025-02-02 04:32:50","bc01a2b6f61d06f6604adb8657495020","98.176.1.21","Mozilla/5.0 (X11; CrOS x86_64 14541.0.0) AppleWebKit/537.36 (KHTML, like Gecko) Chrome/132.0.0.0 Safari/537.36","WebKit","Chrome","132.0.0.0","ChromeOS","14541.0.0","https://app.prolific.com/","en-US,en;q=0.9","666dd3d9e53e0ff59d7cc164","679edb085803f58d6bbd31ca","679ef52607399d1264e22948","","null","<img  src='G_4.jpg' height='90'> <img id='selected'  src='G_8.jpg' height='90'> <img src='G_2.jpg' height='90'> <img src='G_5.jpg' height='90'> <img src='G_6.jpg' height='90'> <img src='G_3.jpg' height='90'> <img src='G_1.jpg' height='90'> <img src='G_7.jpg' height='90'>","null","Learning example 1","",""
