"success","timeout","failed_images","failed_audio","failed_video","trial_type","trial_index","time_elapsed","internal_node_id","run_id","condition","recorded_at","source_code_version","ip","user_agent","device","browser","browser_version","platform","platform_version","referer","accept_language","PROLIFIC_PID","STUDY_ID","SESSION_ID","view_history","rt","stimulus","response","phase","question_order","presented_choices"
"true","false","[]","[]","[]","preload","0","220","0.0-0.0","43","1","2025-02-02 04:44:35","bc01a2b6f61d06f6604adb8657495020","66.229.193.218","Mozilla/5.0 (Windows NT 10.0; Win64; x64) AppleWebKit/537.36 (KHTML, like Gecko) Chrome/132.0.0.0 Safari/537.36","WebKit","Chrome","132.0.0.0","Windows","10.0","https://app.prolific.com/","en-US,en;q=0.9","67265982eb0c3fc495c6e33a","679edb085803f58d6bbd31ca","679ef81d0e53aa3e9801247d","","","","","","",""
"","","","","","instructions","1","15895","0.0-1.0","43","1","2025-02-02 04:44:35","bc01a2b6f61d06f6604adb8657495020","66.229.193.218","Mozilla/5.0 (Windows NT 10.0; Win64; x64) AppleWebKit/537.36 (KHTML, like Gecko) Chrome/132.0.0.0 Safari/537.36","WebKit","Chrome","132.0.0.0","Windows","10.0","https://app.prolific.com/","en-US,en;q=0.9","67265982eb0c3fc495c6e33a","679edb085803f58d6bbd31ca","679ef81d0e53aa3e9801247d","[{""page_index"":0,""viewing_time"":15674}]","15674","","","","",""
"","","","","","html-keyboard-response","2","16401","0.0-2.0","43","1","2025-02-02 04:44:35","bc01a2b6f61d06f6604adb8657495020","66.229.193.218","Mozilla/5.0 (Windows NT 10.0; Win64; x64) AppleWebKit/537.36 (KHTML, like Gecko) Chrome/132.0.0.0 Safari/537.36","WebKit","Chrome","132.0.0.0","Windows","10.0","https://app.prolific.com/","en-US,en;q=0.9","67265982eb0c3fc495c6e33a","679edb085803f58d6bbd31ca","679ef81d0e53aa3e9801247d","","null","<p> + <p/>","null","","",""
"","","","","","instructions","3","99804","0.0-3.0","43","1","2025-02-02 04:44:35","bc01a2b6f61d06f6604adb8657495020","66.229.193.218","Mozilla/5.0 (Windows NT 10.0; Win64; x64) AppleWebKit/537.36 (KHTML, like Gecko) Chrome/132.0.0.0 Safari/537.36","WebKit","Chrome","132.0.0.0","Windows","10.0","https://app.prolific.com/","en-US,en;q=0.9","67265982eb0c3fc495c6e33a","679edb085803f58d6bbd31ca","679ef81d0e53aa3e9801247d","[{""page_index"":0,""viewing_time"":1987},{""page_index"":1,""viewing_time"":62584},{""page_index"":2,""viewing_time"":9176},{""page_index"":3,""viewing_time"":3408},{""page_index"":4,""viewing_time"":6248}]","83403","","","","",""
"","","","","","html-button-response","4","117421","0.0-4.0-0.0-0.0","43","1","2025-02-02 04:44:35","bc01a2b6f61d06f6604adb8657495020","66.229.193.218","Mozilla/5.0 (Windows NT 10.0; Win64; x64) AppleWebKit/537.36 (KHTML, like Gecko) Chrome/132.0.0.0 Safari/537.36","WebKit","Chrome","132.0.0.0","Windows","10.0","https://app.prolific.com/","en-US,en;q=0.9","67265982eb0c3fc495c6e33a","679edb085803f58d6bbd31ca","679ef81d0e53aa3e9801247d","","17615","","2","Intro Trial","",""
"","","","","","html-button-response","5","117819","0.0-4.1-0.1-0.1","43","1","2025-02-02 04:44:35","bc01a2b6f61d06f6604adb8657495020","66.229.193.218","Mozilla/5.0 (Windows NT 10.0; Win64; x64) AppleWebKit/537.36 (KHTML, like Gecko) Chrome/132.0.0.0 Safari/537.36","WebKit","Chrome","132.0.0.0","Windows","10.0","https://app.prolific.com/","en-US,en;q=0.9","67265982eb0c3fc495c6e33a","679edb085803f58d6bbd31ca","679ef81d0e53aa3e9801247d","","397","","4","Intro Trial","",""
"","","","","","html-button-response","6","119002","0.0-4.2-0.2-0.2","43","1","2025-02-02 04:44:35","bc01a2b6f61d06f6604adb8657495020","66.229.193.218","Mozilla/5.0 (Windows NT 10.0; Win64; x64) AppleWebKit/537.36 (KHTML, like Gecko) Chrome/132.0.0.0 Safari/537.36","WebKit","Chrome","132.0.0.0","Windows","10.0","https://app.prolific.com/","en-US,en;q=0.9","67265982eb0c3fc495c6e33a","679edb085803f58d6bbd31ca","679ef81d0e53aa3e9801247d","","1182","","2","Intro Trial","",""
"","","","","","html-button-response","7","119349","0.0-4.3-0.3-0.3","43","1","2025-02-02 04:44:35","bc01a2b6f61d06f6604adb8657495020","66.229.193.218","Mozilla/5.0 (Windows NT 10.0; Win64; x64) AppleWebKit/537.36 (KHTML, like Gecko) Chrome/132.0.0.0 Safari/537.36","WebKit","Chrome","132.0.0.0","Windows","10.0","https://app.prolific.com/","en-US,en;q=0.9","67265982eb0c3fc495c6e33a","679edb085803f58d6bbd31ca","679ef81d0e53aa3e9801247d","","346","","3","Intro Trial","",""
"","","","","","html-button-response","8","120055","0.0-4.4-0.4-0.4","43","1","2025-02-02 04:44:35","bc01a2b6f61d06f6604adb8657495020","66.229.193.218","Mozilla/5.0 (Windows NT 10.0; Win64; x64) AppleWebKit/537.36 (KHTML, like Gecko) Chrome/132.0.0.0 Safari/537.36","WebKit","Chrome","132.0.0.0","Windows","10.0","https://app.prolific.com/","en-US,en;q=0.9","67265982eb0c3fc495c6e33a","679edb085803f58d6bbd31ca","679ef81d0e53aa3e9801247d","","705","","2","Intro Trial","",""
"","","","","","html-button-response","9","120483","0.0-4.5-0.5-0.5","43","1","2025-02-02 04:44:35","bc01a2b6f61d06f6604adb8657495020","66.229.193.218","Mozilla/5.0 (Windows NT 10.0; Win64; x64) AppleWebKit/537.36 (KHTML, like Gecko) Chrome/132.0.0.0 Safari/537.36","WebKit","Chrome","132.0.0.0","Windows","10.0","https://app.prolific.com/","en-US,en;q=0.9","67265982eb0c3fc495c6e33a","679edb085803f58d6bbd31ca","679ef81d0e53aa3e9801247d","","427","","3","Intro Trial","",""
"","","","","","html-button-response","10","124652","0.0-4.6-0.6-0.6","43","1","2025-02-02 04:44:35","bc01a2b6f61d06f6604adb8657495020","66.229.193.218","Mozilla/5.0 (Windows NT 10.0; Win64; x64) AppleWebKit/537.36 (KHTML, like Gecko) Chrome/132.0.0.0 Safari/537.36","WebKit","Chrome","132.0.0.0","Windows","10.0","https://app.prolific.com/","en-US,en;q=0.9","67265982eb0c3fc495c6e33a","679edb085803f58d6bbd31ca","679ef81d0e53aa3e9801247d","","4168","","3","Intro Trial","",""
"","","","","","html-button-response","11","126233","0.0-4.7-0.7-0.7","43","1","2025-02-02 04:44:35","bc01a2b6f61d06f6604adb8657495020","66.229.193.218","Mozilla/5.0 (Windows NT 10.0; Win64; x64) AppleWebKit/537.36 (KHTML, like Gecko) Chrome/132.0.0.0 Safari/537.36","WebKit","Chrome","132.0.0.0","Windows","10.0","https://app.prolific.com/","en-US,en;q=0.9","67265982eb0c3fc495c6e33a","679edb085803f58d6bbd31ca","679ef81d0e53aa3e9801247d","","1580","","0","Intro Trial","",""
"","","","","","html-button-response","12","127534","0.0-4.8-0.8-0.8","43","1","2025-02-02 04:44:35","bc01a2b6f61d06f6604adb8657495020","66.229.193.218","Mozilla/5.0 (Windows NT 10.0; Win64; x64) AppleWebKit/537.36 (KHTML, like Gecko) Chrome/132.0.0.0 Safari/537.36","WebKit","Chrome","132.0.0.0","Windows","10.0","https://app.prolific.com/","en-US,en;q=0.9","67265982eb0c3fc495c6e33a","679edb085803f58d6bbd31ca","679ef81d0e53aa3e9801247d","","1300","","5","Intro Trial","",""
"","","","","","html-keyboard-response","13","134493","0.0-5.0","43","1","2025-02-02 04:44:35","bc01a2b6f61d06f6604adb8657495020","66.229.193.218","Mozilla/5.0 (Windows NT 10.0; Win64; x64) AppleWebKit/537.36 (KHTML, like Gecko) Chrome/132.0.0.0 Safari/537.36","WebKit","Chrome","132.0.0.0","Windows","10.0","https://app.prolific.com/","en-US,en;q=0.9","67265982eb0c3fc495c6e33a","679edb085803f58d6bbd31ca","679ef81d0e53aa3e9801247d","","6958","[""You sorted incorrectly by using the balance 4 times. <br><br> <img src='G_1.jpg' height='90'><img src='G_2.jpg' height='90'><img src='G_5.jpg' height='90'><img src='G_4.jpg' height='90'><img src='G_3.jpg' height='90'><br><br> Your final order is 4,2,1,5,3<br><br><br>Omgne Sort in this game will allow you to sort correctly by using the balance 8 times. Press Enter to learn it!""]","enter","","",""
"","","","","","html-keyboard-response","14","137540","0.0-6.0","43","1","2025-02-02 04:44:35","bc01a2b6f61d06f6604adb8657495020","66.229.193.218","Mozilla/5.0 (Windows NT 10.0; Win64; x64) AppleWebKit/537.36 (KHTML, like Gecko) Chrome/132.0.0.0 Safari/537.36","WebKit","Chrome","132.0.0.0","Windows","10.0","https://app.prolific.com/","en-US,en;q=0.9","67265982eb0c3fc495c6e33a","679edb085803f58d6bbd31ca","679ef81d0e53aa3e9801247d","","3047","<p>Welcome to the learning phase! <br><br> You will learn by six examples. The following learning trials will not be used to calculate your performance. <br><br> Press Enter to continue.<p/>","enter","","",""
"","","","","","html-keyboard-response","15","141276","0.0-7.0","43","1","2025-02-02 04:44:35","bc01a2b6f61d06f6604adb8657495020","66.229.193.218","Mozilla/5.0 (Windows NT 10.0; Win64; x64) AppleWebKit/537.36 (KHTML, like Gecko) Chrome/132.0.0.0 Safari/537.36","WebKit","Chrome","132.0.0.0","Windows","10.0","https://app.prolific.com/","en-US,en;q=0.9","67265982eb0c3fc495c6e33a","679edb085803f58d6bbd31ca","679ef81d0e53aa3e9801247d","","3735","[""Example 1<br><br>You will watch Omnge Sort in action. Try to identify any patterns in the comparisons made by this method. <br><br>Press Enter to continue.""]","enter","","",""
"","","","","","html-keyboard-response","16","141788","0.0-8.0","43","1","2025-02-02 04:44:35","bc01a2b6f61d06f6604adb8657495020","66.229.193.218","Mozilla/5.0 (Windows NT 10.0; Win64; x64) AppleWebKit/537.36 (KHTML, like Gecko) Chrome/132.0.0.0 Safari/537.36","WebKit","Chrome","132.0.0.0","Windows","10.0","https://app.prolific.com/","en-US,en;q=0.9","67265982eb0c3fc495c6e33a","679edb085803f58d6bbd31ca","679ef81d0e53aa3e9801247d","","null","<img id='selected' src='G_1.jpg' height='90'> <img src='G_9.jpg' height='90'> <img src='G_5.jpg' height='90'> <img src='G_3.jpg' height='90'> <img src='G_7.jpg' height='90'>","null","Animation0","",""
"","","","","","html-keyboard-response","17","142300","0.0-9.0","43","1","2025-02-02 04:44:35","bc01a2b6f61d06f6604adb8657495020","66.229.193.218","Mozilla/5.0 (Windows NT 10.0; Win64; x64) AppleWebKit/537.36 (KHTML, like Gecko) Chrome/132.0.0.0 Safari/537.36","WebKit","Chrome","132.0.0.0","Windows","10.0","https://app.prolific.com/","en-US,en;q=0.9","67265982eb0c3fc495c6e33a","679edb085803f58d6bbd31ca","679ef81d0e53aa3e9801247d","","null","<img id='selected' src='G_1.jpg' height='90'> <img id='selected' src='G_9.jpg' height='90'> <img src='G_5.jpg' height='90'> <img src='G_3.jpg' height='90'> <img src='G_7.jpg' height='90'>","null","Animation0","",""
"","","","","","html-keyboard-response","18","142808","0.0-10.0","43","1","2025-02-02 04:44:35","bc01a2b6f61d06f6604adb8657495020","66.229.193.218","Mozilla/5.0 (Windows NT 10.0; Win64; x64) AppleWebKit/537.36 (KHTML, like Gecko) Chrome/132.0.0.0 Safari/537.36","WebKit","Chrome","132.0.0.0","Windows","10.0","https://app.prolific.com/","en-US,en;q=0.9","67265982eb0c3fc495c6e33a","679edb085803f58d6bbd31ca","679ef81d0e53aa3e9801247d","","null","<img id='swapped' src='G_9.jpg' height='90'> <img id='swapped' src='G_1.jpg' height='90'> <img src='G_5.jpg' height='90'> <img src='G_3.jpg' height='90'> <img src='G_7.jpg' height='90'>","null","Animation0","",""
"","","","","","html-keyboard-response","19","143116","0.0-11.0","43","1","2025-02-02 04:44:35","bc01a2b6f61d06f6604adb8657495020","66.229.193.218","Mozilla/5.0 (Windows NT 10.0; Win64; x64) AppleWebKit/537.36 (KHTML, like Gecko) Chrome/132.0.0.0 Safari/537.36","WebKit","Chrome","132.0.0.0","Windows","10.0","https://app.prolific.com/","en-US,en;q=0.9","67265982eb0c3fc495c6e33a","679edb085803f58d6bbd31ca","679ef81d0e53aa3e9801247d","","null","<img  src='G_9.jpg' height='90'> <img  src='G_1.jpg' height='90'> <img src='G_5.jpg' height='90'> <img src='G_3.jpg' height='90'> <img src='G_7.jpg' height='90'>","null","Animation0","",""
"","","","","","html-keyboard-response","20","143625","0.0-12.0","43","1","2025-02-02 04:44:35","bc01a2b6f61d06f6604adb8657495020","66.229.193.218","Mozilla/5.0 (Windows NT 10.0; Win64; x64) AppleWebKit/537.36 (KHTML, like Gecko) Chrome/132.0.0.0 Safari/537.36","WebKit","Chrome","132.0.0.0","Windows","10.0","https://app.prolific.com/","en-US,en;q=0.9","67265982eb0c3fc495c6e33a","679edb085803f58d6bbd31ca","679ef81d0e53aa3e9801247d","","null","<img  src='G_9.jpg' height='90'> <img id='selected'  src='G_1.jpg' height='90'> <img src='G_5.jpg' height='90'> <img src='G_3.jpg' height='90'> <img src='G_7.jpg' height='90'>","null","Animation0","",""
"","","","","","html-keyboard-response","21","144137","0.0-13.0","43","1","2025-02-02 04:44:35","bc01a2b6f61d06f6604adb8657495020","66.229.193.218","Mozilla/5.0 (Windows NT 10.0; Win64; x64) AppleWebKit/537.36 (KHTML, like Gecko) Chrome/132.0.0.0 Safari/537.36","WebKit","Chrome","132.0.0.0","Windows","10.0","https://app.prolific.com/","en-US,en;q=0.9","67265982eb0c3fc495c6e33a","679edb085803f58d6bbd31ca","679ef81d0e53aa3e9801247d","","null","<img  src='G_9.jpg' height='90'> <img id='selected'  src='G_1.jpg' height='90'> <img id='selected' src='G_5.jpg' height='90'> <img src='G_3.jpg' height='90'> <img src='G_7.jpg' height='90'>","null","Animation0","",""
"","","","","","html-keyboard-response","22","144647","0.0-14.0","43","1","2025-02-02 04:44:35","bc01a2b6f61d06f6604adb8657495020","66.229.193.218","Mozilla/5.0 (Windows NT 10.0; Win64; x64) AppleWebKit/537.36 (KHTML, like Gecko) Chrome/132.0.0.0 Safari/537.36","WebKit","Chrome","132.0.0.0","Windows","10.0","https://app.prolific.com/","en-US,en;q=0.9","67265982eb0c3fc495c6e33a","679edb085803f58d6bbd31ca","679ef81d0e53aa3e9801247d","","null","<img  src='G_9.jpg' height='90'> <img id='selected'  src='G_1.jpg' height='90'> <img id='selected' src='G_5.jpg' height='90'> <img src='G_3.jpg' height='90'> <img src='G_7.jpg' height='90'>","null","Animation0","",""
"","","","","","html-keyboard-response","23","144956","0.0-15.0","43","1","2025-02-02 04:44:35","bc01a2b6f61d06f6604adb8657495020","66.229.193.218","Mozilla/5.0 (Windows NT 10.0; Win64; x64) AppleWebKit/537.36 (KHTML, like Gecko) Chrome/132.0.0.0 Safari/537.36","WebKit","Chrome","132.0.0.0","Windows","10.0","https://app.prolific.com/","en-US,en;q=0.9","67265982eb0c3fc495c6e33a","679edb085803f58d6bbd31ca","679ef81d0e53aa3e9801247d","","null","<img  src='G_9.jpg' height='90'> <img   src='G_1.jpg' height='90'> <img  src='G_5.jpg' height='90'> <img src='G_3.jpg' height='90'> <img src='G_7.jpg' height='90'>","null","Animation0","",""
"","","","","","html-keyboard-response","24","145467","0.0-16.0","43","1","2025-02-02 04:44:35","bc01a2b6f61d06f6604adb8657495020","66.229.193.218","Mozilla/5.0 (Windows NT 10.0; Win64; x64) AppleWebKit/537.36 (KHTML, like Gecko) Chrome/132.0.0.0 Safari/537.36","WebKit","Chrome","132.0.0.0","Windows","10.0","https://app.prolific.com/","en-US,en;q=0.9","67265982eb0c3fc495c6e33a","679edb085803f58d6bbd31ca","679ef81d0e53aa3e9801247d","","null","<img  src='G_9.jpg' height='90'> <img   src='G_1.jpg' height='90'> <img id='selected'  src='G_5.jpg' height='90'> <img src='G_3.jpg' height='90'> <img src='G_7.jpg' height='90'>","null","Animation0","",""
"","","","","","html-keyboard-response","25","145978","0.0-17.0","43","1","2025-02-02 04:44:35","bc01a2b6f61d06f6604adb8657495020","66.229.193.218","Mozilla/5.0 (Windows NT 10.0; Win64; x64) AppleWebKit/537.36 (KHTML, like Gecko) Chrome/132.0.0.0 Safari/537.36","WebKit","Chrome","132.0.0.0","Windows","10.0","https://app.prolific.com/","en-US,en;q=0.9","67265982eb0c3fc495c6e33a","679edb085803f58d6bbd31ca","679ef81d0e53aa3e9801247d","","null","<img  src='G_9.jpg' height='90'> <img   src='G_1.jpg' height='90'> <img id='selected'  src='G_5.jpg' height='90'> <img id='selected' src='G_3.jpg' height='90'> <img src='G_7.jpg' height='90'>","null","Animation0","",""
"","","","","","html-keyboard-response","26","146489","0.0-18.0","43","1","2025-02-02 04:44:35","bc01a2b6f61d06f6604adb8657495020","66.229.193.218","Mozilla/5.0 (Windows NT 10.0; Win64; x64) AppleWebKit/537.36 (KHTML, like Gecko) Chrome/132.0.0.0 Safari/537.36","WebKit","Chrome","132.0.0.0","Windows","10.0","https://app.prolific.com/","en-US,en;q=0.9","67265982eb0c3fc495c6e33a","679edb085803f58d6bbd31ca","679ef81d0e53aa3e9801247d","","null","<img  src='G_9.jpg' height='90'> <img   src='G_1.jpg' height='90'> <img id='selected'  src='G_5.jpg' height='90'> <img id='selected' src='G_3.jpg' height='90'> <img src='G_7.jpg' height='90'>","null","Animation0","",""
"","","","","","html-keyboard-response","27","146797","0.0-19.0","43","1","2025-02-02 04:44:35","bc01a2b6f61d06f6604adb8657495020","66.229.193.218","Mozilla/5.0 (Windows NT 10.0; Win64; x64) AppleWebKit/537.36 (KHTML, like Gecko) Chrome/132.0.0.0 Safari/537.36","WebKit","Chrome","132.0.0.0","Windows","10.0","https://app.prolific.com/","en-US,en;q=0.9","67265982eb0c3fc495c6e33a","679edb085803f58d6bbd31ca","679ef81d0e53aa3e9801247d","","null","<img  src='G_9.jpg' height='90'> <img   src='G_1.jpg' height='90'> <img   src='G_5.jpg' height='90'> <img  src='G_3.jpg' height='90'> <img src='G_7.jpg' height='90'>","null","Animation0","",""
"","","","","","html-keyboard-response","28","147308","0.0-20.0","43","1","2025-02-02 04:44:35","bc01a2b6f61d06f6604adb8657495020","66.229.193.218","Mozilla/5.0 (Windows NT 10.0; Win64; x64) AppleWebKit/537.36 (KHTML, like Gecko) Chrome/132.0.0.0 Safari/537.36","WebKit","Chrome","132.0.0.0","Windows","10.0","https://app.prolific.com/","en-US,en;q=0.9","67265982eb0c3fc495c6e33a","679edb085803f58d6bbd31ca","679ef81d0e53aa3e9801247d","","null","<img  src='G_9.jpg' height='90'> <img   src='G_1.jpg' height='90'> <img   src='G_5.jpg' height='90'> <img id='selected'  src='G_3.jpg' height='90'> <img src='G_7.jpg' height='90'>","null","Animation0","",""
"","","","","","html-keyboard-response","29","147816","0.0-21.0","43","1","2025-02-02 04:44:35","bc01a2b6f61d06f6604adb8657495020","66.229.193.218","Mozilla/5.0 (Windows NT 10.0; Win64; x64) AppleWebKit/537.36 (KHTML, like Gecko) Chrome/132.0.0.0 Safari/537.36","WebKit","Chrome","132.0.0.0","Windows","10.0","https://app.prolific.com/","en-US,en;q=0.9","67265982eb0c3fc495c6e33a","679edb085803f58d6bbd31ca","679ef81d0e53aa3e9801247d","","null","<img  src='G_9.jpg' height='90'> <img   src='G_1.jpg' height='90'> <img   src='G_5.jpg' height='90'> <img id='selected'  src='G_3.jpg' height='90'> <img id='selected' src='G_7.jpg' height='90'>","null","Animation0","",""
"","","","","","html-keyboard-response","30","148323","0.0-22.0","43","1","2025-02-02 04:44:35","bc01a2b6f61d06f6604adb8657495020","66.229.193.218","Mozilla/5.0 (Windows NT 10.0; Win64; x64) AppleWebKit/537.36 (KHTML, like Gecko) Chrome/132.0.0.0 Safari/537.36","WebKit","Chrome","132.0.0.0","Windows","10.0","https://app.prolific.com/","en-US,en;q=0.9","67265982eb0c3fc495c6e33a","679edb085803f58d6bbd31ca","679ef81d0e53aa3e9801247d","","null","<img  src='G_9.jpg' height='90'> <img   src='G_1.jpg' height='90'> <img   src='G_5.jpg' height='90'> <img id='selected'  src='G_3.jpg' height='90'> <img id='selected' src='G_7.jpg' height='90'>","null","Animation0","",""
"","","","","","html-keyboard-response","31","148629","0.0-23.0","43","1","2025-02-02 04:44:35","bc01a2b6f61d06f6604adb8657495020","66.229.193.218","Mozilla/5.0 (Windows NT 10.0; Win64; x64) AppleWebKit/537.36 (KHTML, like Gecko) Chrome/132.0.0.0 Safari/537.36","WebKit","Chrome","132.0.0.0","Windows","10.0","https://app.prolific.com/","en-US,en;q=0.9","67265982eb0c3fc495c6e33a","679edb085803f58d6bbd31ca","679ef81d0e53aa3e9801247d","","null","<img  src='G_9.jpg' height='90'> <img   src='G_1.jpg' height='90'> <img   src='G_5.jpg' height='90'> <img   src='G_3.jpg' height='90'> <img  src='G_7.jpg' height='90'>","null","Animation0","",""
"","","","","","html-keyboard-response","32","151132","0.0-24.0","43","1","2025-02-02 04:44:35","bc01a2b6f61d06f6604adb8657495020","66.229.193.218","Mozilla/5.0 (Windows NT 10.0; Win64; x64) AppleWebKit/537.36 (KHTML, like Gecko) Chrome/132.0.0.0 Safari/537.36","WebKit","Chrome","132.0.0.0","Windows","10.0","https://app.prolific.com/","en-US,en;q=0.9","67265982eb0c3fc495c6e33a","679edb085803f58d6bbd31ca","679ef81d0e53aa3e9801247d","","2501","[""Did you notice any patterns? <br><br>Press Enter to watch that example again and follow the steps of Omgne Sort.""]","enter","","",""
"","","","","","html-button-response","33","151547","0.0-25.0","43","1","2025-02-02 04:44:35","bc01a2b6f61d06f6604adb8657495020","66.229.193.218","Mozilla/5.0 (Windows NT 10.0; Win64; x64) AppleWebKit/537.36 (KHTML, like Gecko) Chrome/132.0.0.0 Safari/537.36","WebKit","Chrome","132.0.0.0","Windows","10.0","https://app.prolific.com/","en-US,en;q=0.9","67265982eb0c3fc495c6e33a","679edb085803f58d6bbd31ca","679ef81d0e53aa3e9801247d","","null","<img id='selected' src='G_1.jpg' height='90'> <img src='G_9.jpg' height='90'> <img src='G_5.jpg' height='90'> <img src='G_3.jpg' height='90'> <img src='G_7.jpg' height='90'>","null","Learning example 0","",""
"","","","","","html-button-response","34","151856","0.0-26.0","43","1","2025-02-02 04:44:35","bc01a2b6f61d06f6604adb8657495020","66.229.193.218","Mozilla/5.0 (Windows NT 10.0; Win64; x64) AppleWebKit/537.36 (KHTML, like Gecko) Chrome/132.0.0.0 Safari/537.36","WebKit","Chrome","132.0.0.0","Windows","10.0","https://app.prolific.com/","en-US,en;q=0.9","67265982eb0c3fc495c6e33a","679edb085803f58d6bbd31ca","679ef81d0e53aa3e9801247d","","null","<img id='selected' src='G_1.jpg' height='90'> <img id='selected' src='G_9.jpg' height='90'> <img src='G_5.jpg' height='90'> <img src='G_3.jpg' height='90'> <img src='G_7.jpg' height='90'>","null","Learning example 0","",""
"","","","","","html-button-response","35","152171","0.0-27.0","43","1","2025-02-02 04:44:35","bc01a2b6f61d06f6604adb8657495020","66.229.193.218","Mozilla/5.0 (Windows NT 10.0; Win64; x64) AppleWebKit/537.36 (KHTML, like Gecko) Chrome/132.0.0.0 Safari/537.36","WebKit","Chrome","132.0.0.0","Windows","10.0","https://app.prolific.com/","en-US,en;q=0.9","67265982eb0c3fc495c6e33a","679edb085803f58d6bbd31ca","679ef81d0e53aa3e9801247d","","null","<img id='swapped' src='G_9.jpg' height='90'> <img id='swapped' src='G_1.jpg' height='90'> <img src='G_5.jpg' height='90'> <img src='G_3.jpg' height='90'> <img src='G_7.jpg' height='90'>","null","Learning example 0","",""
"","","","","","html-button-response","36","157260","0.0-28.0-0.0-0.0","43","1","2025-02-02 04:44:35","bc01a2b6f61d06f6604adb8657495020","66.229.193.218","Mozilla/5.0 (Windows NT 10.0; Win64; x64) AppleWebKit/537.36 (KHTML, like Gecko) Chrome/132.0.0.0 Safari/537.36","WebKit","Chrome","132.0.0.0","Windows","10.0","https://app.prolific.com/","en-US,en;q=0.9","67265982eb0c3fc495c6e33a","679edb085803f58d6bbd31ca","679ef81d0e53aa3e9801247d","","5085","<img id='swapped' src='G_9.jpg' height='90'> <img id='swapped' src='G_1.jpg' height='90'> <img src='G_5.jpg' height='90'> <img src='G_3.jpg' height='90'> <img src='G_7.jpg' height='90'>","0","Learning example 0","",""
"","","","","","html-button-response","37","157768","0.0-28.1-0.1-0.1","43","1","2025-02-02 04:44:35","bc01a2b6f61d06f6604adb8657495020","66.229.193.218","Mozilla/5.0 (Windows NT 10.0; Win64; x64) AppleWebKit/537.36 (KHTML, like Gecko) Chrome/132.0.0.0 Safari/537.36","WebKit","Chrome","132.0.0.0","Windows","10.0","https://app.prolific.com/","en-US,en;q=0.9","67265982eb0c3fc495c6e33a","679edb085803f58d6bbd31ca","679ef81d0e53aa3e9801247d","","507","<img id='swapped' src='G_9.jpg' height='90'> <img id='swapped' src='G_1.jpg' height='90'> <img src='G_5.jpg' height='90'> <img src='G_3.jpg' height='90'> <img src='G_7.jpg' height='90'>","1","Learning example 0","",""
"","","","","","html-button-response","38","157978","0.0-29.0","43","1","2025-02-02 04:44:35","bc01a2b6f61d06f6604adb8657495020","66.229.193.218","Mozilla/5.0 (Windows NT 10.0; Win64; x64) AppleWebKit/537.36 (KHTML, like Gecko) Chrome/132.0.0.0 Safari/537.36","WebKit","Chrome","132.0.0.0","Windows","10.0","https://app.prolific.com/","en-US,en;q=0.9","67265982eb0c3fc495c6e33a","679edb085803f58d6bbd31ca","679ef81d0e53aa3e9801247d","","null","<img  src='G_9.jpg' height='90'> <img  src='G_1.jpg' height='90'> <img src='G_5.jpg' height='90'> <img src='G_3.jpg' height='90'> <img src='G_7.jpg' height='90'>","null","Learning example 0","",""
"","","","","","html-button-response","39","158397","0.0-30.0","43","1","2025-02-02 04:44:35","bc01a2b6f61d06f6604adb8657495020","66.229.193.218","Mozilla/5.0 (Windows NT 10.0; Win64; x64) AppleWebKit/537.36 (KHTML, like Gecko) Chrome/132.0.0.0 Safari/537.36","WebKit","Chrome","132.0.0.0","Windows","10.0","https://app.prolific.com/","en-US,en;q=0.9","67265982eb0c3fc495c6e33a","679edb085803f58d6bbd31ca","679ef81d0e53aa3e9801247d","","null","<img  src='G_9.jpg' height='90'> <img id='selected'  src='G_1.jpg' height='90'> <img src='G_5.jpg' height='90'> <img src='G_3.jpg' height='90'> <img src='G_7.jpg' height='90'>","null","Learning example 0","",""
"","","","","","html-button-response","40","158705","0.0-31.0","43","1","2025-02-02 04:44:35","bc01a2b6f61d06f6604adb8657495020","66.229.193.218","Mozilla/5.0 (Windows NT 10.0; Win64; x64) AppleWebKit/537.36 (KHTML, like Gecko) Chrome/132.0.0.0 Safari/537.36","WebKit","Chrome","132.0.0.0","Windows","10.0","https://app.prolific.com/","en-US,en;q=0.9","67265982eb0c3fc495c6e33a","679edb085803f58d6bbd31ca","679ef81d0e53aa3e9801247d","","null","<img  src='G_9.jpg' height='90'> <img id='selected'  src='G_1.jpg' height='90'> <img id='selected' src='G_5.jpg' height='90'> <img src='G_3.jpg' height='90'> <img src='G_7.jpg' height='90'>","null","Learning example 0","",""
"","","","","","html-button-response","41","159016","0.0-32.0","43","1","2025-02-02 04:44:35","bc01a2b6f61d06f6604adb8657495020","66.229.193.218","Mozilla/5.0 (Windows NT 10.0; Win64; x64) AppleWebKit/537.36 (KHTML, like Gecko) Chrome/132.0.0.0 Safari/537.36","WebKit","Chrome","132.0.0.0","Windows","10.0","https://app.prolific.com/","en-US,en;q=0.9","67265982eb0c3fc495c6e33a","679edb085803f58d6bbd31ca","679ef81d0e53aa3e9801247d","","null","<img  src='G_9.jpg' height='90'> <img id='selected'  src='G_1.jpg' height='90'> <img id='selected' src='G_5.jpg' height='90'> <img src='G_3.jpg' height='90'> <img src='G_7.jpg' height='90'>","null","Learning example 0","",""
"","","","","","html-button-response","42","166761","0.0-33.0-0.0-0.0","43","1","2025-02-02 04:44:35","bc01a2b6f61d06f6604adb8657495020","66.229.193.218","Mozilla/5.0 (Windows NT 10.0; Win64; x64) AppleWebKit/537.36 (KHTML, like Gecko) Chrome/132.0.0.0 Safari/537.36","WebKit","Chrome","132.0.0.0","Windows","10.0","https://app.prolific.com/","en-US,en;q=0.9","67265982eb0c3fc495c6e33a","679edb085803f58d6bbd31ca","679ef81d0e53aa3e9801247d","","7741","<img  src='G_9.jpg' height='90'> <img id='selected'  src='G_1.jpg' height='90'> <img id='selected' src='G_5.jpg' height='90'> <img src='G_3.jpg' height='90'> <img src='G_7.jpg' height='90'>","1","Learning example 0","",""
"","","","","","html-button-response","43","167944","0.0-33.1-0.1-0.1","43","1","2025-02-02 04:44:35","bc01a2b6f61d06f6604adb8657495020","66.229.193.218","Mozilla/5.0 (Windows NT 10.0; Win64; x64) AppleWebKit/537.36 (KHTML, like Gecko) Chrome/132.0.0.0 Safari/537.36","WebKit","Chrome","132.0.0.0","Windows","10.0","https://app.prolific.com/","en-US,en;q=0.9","67265982eb0c3fc495c6e33a","679edb085803f58d6bbd31ca","679ef81d0e53aa3e9801247d","","1183","<img  src='G_9.jpg' height='90'> <img id='selected'  src='G_1.jpg' height='90'> <img id='selected' src='G_5.jpg' height='90'> <img src='G_3.jpg' height='90'> <img src='G_7.jpg' height='90'>","2","Learning example 0","",""
"","","","","","html-button-response","44","168147","0.0-34.0","43","1","2025-02-02 04:44:35","bc01a2b6f61d06f6604adb8657495020","66.229.193.218","Mozilla/5.0 (Windows NT 10.0; Win64; x64) AppleWebKit/537.36 (KHTML, like Gecko) Chrome/132.0.0.0 Safari/537.36","WebKit","Chrome","132.0.0.0","Windows","10.0","https://app.prolific.com/","en-US,en;q=0.9","67265982eb0c3fc495c6e33a","679edb085803f58d6bbd31ca","679ef81d0e53aa3e9801247d","","null","<img  src='G_9.jpg' height='90'> <img   src='G_1.jpg' height='90'> <img  src='G_5.jpg' height='90'> <img src='G_3.jpg' height='90'> <img src='G_7.jpg' height='90'>","null","Learning example 0","",""
"","","","","","html-button-response","45","168551","0.0-35.0","43","1","2025-02-02 04:44:35","bc01a2b6f61d06f6604adb8657495020","66.229.193.218","Mozilla/5.0 (Windows NT 10.0; Win64; x64) AppleWebKit/537.36 (KHTML, like Gecko) Chrome/132.0.0.0 Safari/537.36","WebKit","Chrome","132.0.0.0","Windows","10.0","https://app.prolific.com/","en-US,en;q=0.9","67265982eb0c3fc495c6e33a","679edb085803f58d6bbd31ca","679ef81d0e53aa3e9801247d","","null","<img  src='G_9.jpg' height='90'> <img   src='G_1.jpg' height='90'> <img id='selected'  src='G_5.jpg' height='90'> <img src='G_3.jpg' height='90'> <img src='G_7.jpg' height='90'>","null","Learning example 0","",""
"","","","","","html-button-response","46","168859","0.0-36.0","43","1","2025-02-02 04:44:35","bc01a2b6f61d06f6604adb8657495020","66.229.193.218","Mozilla/5.0 (Windows NT 10.0; Win64; x64) AppleWebKit/537.36 (KHTML, like Gecko) Chrome/132.0.0.0 Safari/537.36","WebKit","Chrome","132.0.0.0","Windows","10.0","https://app.prolific.com/","en-US,en;q=0.9","67265982eb0c3fc495c6e33a","679edb085803f58d6bbd31ca","679ef81d0e53aa3e9801247d","","null","<img  src='G_9.jpg' height='90'> <img   src='G_1.jpg' height='90'> <img id='selected'  src='G_5.jpg' height='90'> <img id='selected' src='G_3.jpg' height='90'> <img src='G_7.jpg' height='90'>","null","Learning example 0","",""
"","","","","","html-button-response","47","169165","0.0-37.0","43","1","2025-02-02 04:44:35","bc01a2b6f61d06f6604adb8657495020","66.229.193.218","Mozilla/5.0 (Windows NT 10.0; Win64; x64) AppleWebKit/537.36 (KHTML, like Gecko) Chrome/132.0.0.0 Safari/537.36","WebKit","Chrome","132.0.0.0","Windows","10.0","https://app.prolific.com/","en-US,en;q=0.9","67265982eb0c3fc495c6e33a","679edb085803f58d6bbd31ca","679ef81d0e53aa3e9801247d","","null","<img  src='G_9.jpg' height='90'> <img   src='G_1.jpg' height='90'> <img id='selected'  src='G_5.jpg' height='90'> <img id='selected' src='G_3.jpg' height='90'> <img src='G_7.jpg' height='90'>","null","Learning example 0","",""
"","","","","","html-button-response","48","169537","0.0-38.0-0.0-0.0","43","1","2025-02-02 04:44:35","bc01a2b6f61d06f6604adb8657495020","66.229.193.218","Mozilla/5.0 (Windows NT 10.0; Win64; x64) AppleWebKit/537.36 (KHTML, like Gecko) Chrome/132.0.0.0 Safari/537.36","WebKit","Chrome","132.0.0.0","Windows","10.0","https://app.prolific.com/","en-US,en;q=0.9","67265982eb0c3fc495c6e33a","679edb085803f58d6bbd31ca","679ef81d0e53aa3e9801247d","","371","<img  src='G_9.jpg' height='90'> <img   src='G_1.jpg' height='90'> <img id='selected'  src='G_5.jpg' height='90'> <img id='selected' src='G_3.jpg' height='90'> <img src='G_7.jpg' height='90'>","2","Learning example 0","",""
"","","","","","html-button-response","49","170088","0.0-38.1-0.1-0.1","43","1","2025-02-02 04:44:35","bc01a2b6f61d06f6604adb8657495020","66.229.193.218","Mozilla/5.0 (Windows NT 10.0; Win64; x64) AppleWebKit/537.36 (KHTML, like Gecko) Chrome/132.0.0.0 Safari/537.36","WebKit","Chrome","132.0.0.0","Windows","10.0","https://app.prolific.com/","en-US,en;q=0.9","67265982eb0c3fc495c6e33a","679edb085803f58d6bbd31ca","679ef81d0e53aa3e9801247d","","550","<img  src='G_9.jpg' height='90'> <img   src='G_1.jpg' height='90'> <img id='selected'  src='G_5.jpg' height='90'> <img id='selected' src='G_3.jpg' height='90'> <img src='G_7.jpg' height='90'>","3","Learning example 0","",""
"","","","","","html-button-response","50","170294","0.0-39.0","43","1","2025-02-02 04:44:35","bc01a2b6f61d06f6604adb8657495020","66.229.193.218","Mozilla/5.0 (Windows NT 10.0; Win64; x64) AppleWebKit/537.36 (KHTML, like Gecko) Chrome/132.0.0.0 Safari/537.36","WebKit","Chrome","132.0.0.0","Windows","10.0","https://app.prolific.com/","en-US,en;q=0.9","67265982eb0c3fc495c6e33a","679edb085803f58d6bbd31ca","679ef81d0e53aa3e9801247d","","null","<img  src='G_9.jpg' height='90'> <img   src='G_1.jpg' height='90'> <img   src='G_5.jpg' height='90'> <img  src='G_3.jpg' height='90'> <img src='G_7.jpg' height='90'>","null","Learning example 0","",""
"","","","","","html-button-response","51","170708","0.0-40.0","43","1","2025-02-02 04:44:35","bc01a2b6f61d06f6604adb8657495020","66.229.193.218","Mozilla/5.0 (Windows NT 10.0; Win64; x64) AppleWebKit/537.36 (KHTML, like Gecko) Chrome/132.0.0.0 Safari/537.36","WebKit","Chrome","132.0.0.0","Windows","10.0","https://app.prolific.com/","en-US,en;q=0.9","67265982eb0c3fc495c6e33a","679edb085803f58d6bbd31ca","679ef81d0e53aa3e9801247d","","null","<img  src='G_9.jpg' height='90'> <img   src='G_1.jpg' height='90'> <img   src='G_5.jpg' height='90'> <img id='selected'  src='G_3.jpg' height='90'> <img src='G_7.jpg' height='90'>","null","Learning example 0","",""
"","","","","","html-button-response","52","171015","0.0-41.0","43","1","2025-02-02 04:44:35","bc01a2b6f61d06f6604adb8657495020","66.229.193.218","Mozilla/5.0 (Windows NT 10.0; Win64; x64) AppleWebKit/537.36 (KHTML, like Gecko) Chrome/132.0.0.0 Safari/537.36","WebKit","Chrome","132.0.0.0","Windows","10.0","https://app.prolific.com/","en-US,en;q=0.9","67265982eb0c3fc495c6e33a","679edb085803f58d6bbd31ca","679ef81d0e53aa3e9801247d","","null","<img  src='G_9.jpg' height='90'> <img   src='G_1.jpg' height='90'> <img   src='G_5.jpg' height='90'> <img id='selected'  src='G_3.jpg' height='90'> <img id='selected' src='G_7.jpg' height='90'>","null","Learning example 0","",""
"","","","","","html-button-response","53","171317","0.0-42.0","43","1","2025-02-02 04:44:35","bc01a2b6f61d06f6604adb8657495020","66.229.193.218","Mozilla/5.0 (Windows NT 10.0; Win64; x64) AppleWebKit/537.36 (KHTML, like Gecko) Chrome/132.0.0.0 Safari/537.36","WebKit","Chrome","132.0.0.0","Windows","10.0","https://app.prolific.com/","en-US,en;q=0.9","67265982eb0c3fc495c6e33a","679edb085803f58d6bbd31ca","679ef81d0e53aa3e9801247d","","null","<img  src='G_9.jpg' height='90'> <img   src='G_1.jpg' height='90'> <img   src='G_5.jpg' height='90'> <img id='selected'  src='G_3.jpg' height='90'> <img id='selected' src='G_7.jpg' height='90'>","null","Learning example 0","",""
"","","","","","html-button-response","54","171415","0.0-43.0-0.0-0.0","43","1","2025-02-02 04:44:35","bc01a2b6f61d06f6604adb8657495020","66.229.193.218","Mozilla/5.0 (Windows NT 10.0; Win64; x64) AppleWebKit/537.36 (KHTML, like Gecko) Chrome/132.0.0.0 Safari/537.36","WebKit","Chrome","132.0.0.0","Windows","10.0","https://app.prolific.com/","en-US,en;q=0.9","67265982eb0c3fc495c6e33a","679edb085803f58d6bbd31ca","679ef81d0e53aa3e9801247d","","95","<img  src='G_9.jpg' height='90'> <img   src='G_1.jpg' height='90'> <img   src='G_5.jpg' height='90'> <img id='selected'  src='G_3.jpg' height='90'> <img id='selected' src='G_7.jpg' height='90'>","3","Learning example 0","",""
"","","","","","html-button-response","55","171797","0.0-43.1-0.1-0.1","43","1","2025-02-02 04:44:35","bc01a2b6f61d06f6604adb8657495020","66.229.193.218","Mozilla/5.0 (Windows NT 10.0; Win64; x64) AppleWebKit/537.36 (KHTML, like Gecko) Chrome/132.0.0.0 Safari/537.36","WebKit","Chrome","132.0.0.0","Windows","10.0","https://app.prolific.com/","en-US,en;q=0.9","67265982eb0c3fc495c6e33a","679edb085803f58d6bbd31ca","679ef81d0e53aa3e9801247d","","380","<img  src='G_9.jpg' height='90'> <img   src='G_1.jpg' height='90'> <img   src='G_5.jpg' height='90'> <img id='selected'  src='G_3.jpg' height='90'> <img id='selected' src='G_7.jpg' height='90'>","4","Learning example 0","",""
"","","","","","html-button-response","56","172000","0.0-44.0","43","1","2025-02-02 04:44:35","bc01a2b6f61d06f6604adb8657495020","66.229.193.218","Mozilla/5.0 (Windows NT 10.0; Win64; x64) AppleWebKit/537.36 (KHTML, like Gecko) Chrome/132.0.0.0 Safari/537.36","WebKit","Chrome","132.0.0.0","Windows","10.0","https://app.prolific.com/","en-US,en;q=0.9","67265982eb0c3fc495c6e33a","679edb085803f58d6bbd31ca","679ef81d0e53aa3e9801247d","","null","<img  src='G_9.jpg' height='90'> <img   src='G_1.jpg' height='90'> <img   src='G_5.jpg' height='90'> <img   src='G_3.jpg' height='90'> <img  src='G_7.jpg' height='90'>","null","Learning example 0","",""
"","","","","","html-keyboard-response","57","176508","0.0-45.0","43","1","2025-02-02 04:44:35","bc01a2b6f61d06f6604adb8657495020","66.229.193.218","Mozilla/5.0 (Windows NT 10.0; Win64; x64) AppleWebKit/537.36 (KHTML, like Gecko) Chrome/132.0.0.0 Safari/537.36","WebKit","Chrome","132.0.0.0","Windows","10.0","https://app.prolific.com/","en-US,en;q=0.9","67265982eb0c3fc495c6e33a","679edb085803f58d6bbd31ca","679ef81d0e53aa3e9801247d","","4508","[""Final order was 1,2,3,4,5. The initial order was 2,1,3,4,5.<br>It took 1 swaps to sort it correctly with Omgne Sort. <br><br>Press Enter to continue.""]","enter","","",""
"","","","","","html-keyboard-response","58","179356","0.0-46.0","43","1","2025-02-02 04:44:35","bc01a2b6f61d06f6604adb8657495020","66.229.193.218","Mozilla/5.0 (Windows NT 10.0; Win64; x64) AppleWebKit/537.36 (KHTML, like Gecko) Chrome/132.0.0.0 Safari/537.36","WebKit","Chrome","132.0.0.0","Windows","10.0","https://app.prolific.com/","en-US,en;q=0.9","67265982eb0c3fc495c6e33a","679edb085803f58d6bbd31ca","679ef81d0e53aa3e9801247d","","2847","[""Example 2<br><br>You will watch Omnge Sort in action. Try to identify any patterns in the comparisons made by this method. <br><br>Press Enter to continue.""]","enter","","",""
"","","","","","html-keyboard-response","59","179865","0.0-47.0","43","1","2025-02-02 04:44:35","bc01a2b6f61d06f6604adb8657495020","66.229.193.218","Mozilla/5.0 (Windows NT 10.0; Win64; x64) AppleWebKit/537.36 (KHTML, like Gecko) Chrome/132.0.0.0 Safari/537.36","WebKit","Chrome","132.0.0.0","Windows","10.0","https://app.prolific.com/","en-US,en;q=0.9","67265982eb0c3fc495c6e33a","679edb085803f58d6bbd31ca","679ef81d0e53aa3e9801247d","","null","<img id='selected' src='G_2.jpg' height='90'> <img src='G_5.jpg' height='90'> <img src='G_7.jpg' height='90'> <img src='G_8.jpg' height='90'> <img src='G_4.jpg' height='90'> <img src='G_1.jpg' height='90'> <img src='G_6.jpg' height='90'> <img src='G_3.jpg' height='90'>","null","Animation1","",""
"","","","","","html-keyboard-response","60","180373","0.0-48.0","43","1","2025-02-02 04:44:35","bc01a2b6f61d06f6604adb8657495020","66.229.193.218","Mozilla/5.0 (Windows NT 10.0; Win64; x64) AppleWebKit/537.36 (KHTML, like Gecko) Chrome/132.0.0.0 Safari/537.36","WebKit","Chrome","132.0.0.0","Windows","10.0","https://app.prolific.com/","en-US,en;q=0.9","67265982eb0c3fc495c6e33a","679edb085803f58d6bbd31ca","679ef81d0e53aa3e9801247d","","null","<img id='selected' src='G_2.jpg' height='90'> <img id='selected' src='G_5.jpg' height='90'> <img src='G_7.jpg' height='90'> <img src='G_8.jpg' height='90'> <img src='G_4.jpg' height='90'> <img src='G_1.jpg' height='90'> <img src='G_6.jpg' height='90'> <img src='G_3.jpg' height='90'>","null","Animation1","",""
"","","","","","html-keyboard-response","61","180877","0.0-49.0","43","1","2025-02-02 04:44:35","bc01a2b6f61d06f6604adb8657495020","66.229.193.218","Mozilla/5.0 (Windows NT 10.0; Win64; x64) AppleWebKit/537.36 (KHTML, like Gecko) Chrome/132.0.0.0 Safari/537.36","WebKit","Chrome","132.0.0.0","Windows","10.0","https://app.prolific.com/","en-US,en;q=0.9","67265982eb0c3fc495c6e33a","679edb085803f58d6bbd31ca","679ef81d0e53aa3e9801247d","","null","<img id='selected' src='G_2.jpg' height='90'> <img id='selected' src='G_5.jpg' height='90'> <img src='G_7.jpg' height='90'> <img src='G_8.jpg' height='90'> <img src='G_4.jpg' height='90'> <img src='G_1.jpg' height='90'> <img src='G_6.jpg' height='90'> <img src='G_3.jpg' height='90'>","null","Animation1","",""
"","","","","","html-keyboard-response","62","181192","0.0-50.0","43","1","2025-02-02 04:44:35","bc01a2b6f61d06f6604adb8657495020","66.229.193.218","Mozilla/5.0 (Windows NT 10.0; Win64; x64) AppleWebKit/537.36 (KHTML, like Gecko) Chrome/132.0.0.0 Safari/537.36","WebKit","Chrome","132.0.0.0","Windows","10.0","https://app.prolific.com/","en-US,en;q=0.9","67265982eb0c3fc495c6e33a","679edb085803f58d6bbd31ca","679ef81d0e53aa3e9801247d","","null","<img  src='G_2.jpg' height='90'> <img  src='G_5.jpg' height='90'> <img src='G_7.jpg' height='90'> <img src='G_8.jpg' height='90'> <img src='G_4.jpg' height='90'> <img src='G_1.jpg' height='90'> <img src='G_6.jpg' height='90'> <img src='G_3.jpg' height='90'>","null","Animation1","",""
"","","","","","html-keyboard-response","63","181694","0.0-51.0","43","1","2025-02-02 04:44:35","bc01a2b6f61d06f6604adb8657495020","66.229.193.218","Mozilla/5.0 (Windows NT 10.0; Win64; x64) AppleWebKit/537.36 (KHTML, like Gecko) Chrome/132.0.0.0 Safari/537.36","WebKit","Chrome","132.0.0.0","Windows","10.0","https://app.prolific.com/","en-US,en;q=0.9","67265982eb0c3fc495c6e33a","679edb085803f58d6bbd31ca","679ef81d0e53aa3e9801247d","","null","<img  src='G_2.jpg' height='90'> <img id='selected'  src='G_5.jpg' height='90'> <img src='G_7.jpg' height='90'> <img src='G_8.jpg' height='90'> <img src='G_4.jpg' height='90'> <img src='G_1.jpg' height='90'> <img src='G_6.jpg' height='90'> <img src='G_3.jpg' height='90'>","null","Animation1","",""
"","","","","","html-keyboard-response","64","182197","0.0-52.0","43","1","2025-02-02 04:44:35","bc01a2b6f61d06f6604adb8657495020","66.229.193.218","Mozilla/5.0 (Windows NT 10.0; Win64; x64) AppleWebKit/537.36 (KHTML, like Gecko) Chrome/132.0.0.0 Safari/537.36","WebKit","Chrome","132.0.0.0","Windows","10.0","https://app.prolific.com/","en-US,en;q=0.9","67265982eb0c3fc495c6e33a","679edb085803f58d6bbd31ca","679ef81d0e53aa3e9801247d","","null","<img  src='G_2.jpg' height='90'> <img id='selected'  src='G_5.jpg' height='90'> <img id='selected' src='G_7.jpg' height='90'> <img src='G_8.jpg' height='90'> <img src='G_4.jpg' height='90'> <img src='G_1.jpg' height='90'> <img src='G_6.jpg' height='90'> <img src='G_3.jpg' height='90'>","null","Animation1","",""
"","","","","","html-keyboard-response","65","182707","0.0-53.0","43","1","2025-02-02 04:44:35","bc01a2b6f61d06f6604adb8657495020","66.229.193.218","Mozilla/5.0 (Windows NT 10.0; Win64; x64) AppleWebKit/537.36 (KHTML, like Gecko) Chrome/132.0.0.0 Safari/537.36","WebKit","Chrome","132.0.0.0","Windows","10.0","https://app.prolific.com/","en-US,en;q=0.9","67265982eb0c3fc495c6e33a","679edb085803f58d6bbd31ca","679ef81d0e53aa3e9801247d","","null","<img  src='G_2.jpg' height='90'> <img id='swapped' src='G_7.jpg' height='90'> <img id='swapped'  src='G_5.jpg' height='90'> <img src='G_8.jpg' height='90'> <img src='G_4.jpg' height='90'> <img src='G_1.jpg' height='90'> <img src='G_6.jpg' height='90'> <img src='G_3.jpg' height='90'>","null","Animation1","",""
"","","","","","html-keyboard-response","66","183015","0.0-54.0","43","1","2025-02-02 04:44:35","bc01a2b6f61d06f6604adb8657495020","66.229.193.218","Mozilla/5.0 (Windows NT 10.0; Win64; x64) AppleWebKit/537.36 (KHTML, like Gecko) Chrome/132.0.0.0 Safari/537.36","WebKit","Chrome","132.0.0.0","Windows","10.0","https://app.prolific.com/","en-US,en;q=0.9","67265982eb0c3fc495c6e33a","679edb085803f58d6bbd31ca","679ef81d0e53aa3e9801247d","","null","<img  src='G_2.jpg' height='90'> <img  src='G_7.jpg' height='90'> <img   src='G_5.jpg' height='90'> <img src='G_8.jpg' height='90'> <img src='G_4.jpg' height='90'> <img src='G_1.jpg' height='90'> <img src='G_6.jpg' height='90'> <img src='G_3.jpg' height='90'>","null","Animation1","",""
"","","","","","html-keyboard-response","67","183523","0.0-55.0","43","1","2025-02-02 04:44:35","bc01a2b6f61d06f6604adb8657495020","66.229.193.218","Mozilla/5.0 (Windows NT 10.0; Win64; x64) AppleWebKit/537.36 (KHTML, like Gecko) Chrome/132.0.0.0 Safari/537.36","WebKit","Chrome","132.0.0.0","Windows","10.0","https://app.prolific.com/","en-US,en;q=0.9","67265982eb0c3fc495c6e33a","679edb085803f58d6bbd31ca","679ef81d0e53aa3e9801247d","","null","<img id='selected'  src='G_2.jpg' height='90'> <img  src='G_7.jpg' height='90'> <img   src='G_5.jpg' height='90'> <img src='G_8.jpg' height='90'> <img src='G_4.jpg' height='90'> <img src='G_1.jpg' height='90'> <img src='G_6.jpg' height='90'> <img src='G_3.jpg' height='90'>","null","Animation1","",""
"","","","","","html-keyboard-response","68","184030","0.0-56.0","43","1","2025-02-02 04:44:35","bc01a2b6f61d06f6604adb8657495020","66.229.193.218","Mozilla/5.0 (Windows NT 10.0; Win64; x64) AppleWebKit/537.36 (KHTML, like Gecko) Chrome/132.0.0.0 Safari/537.36","WebKit","Chrome","132.0.0.0","Windows","10.0","https://app.prolific.com/","en-US,en;q=0.9","67265982eb0c3fc495c6e33a","679edb085803f58d6bbd31ca","679ef81d0e53aa3e9801247d","","null","<img id='selected'  src='G_2.jpg' height='90'> <img id='selected'  src='G_7.jpg' height='90'> <img   src='G_5.jpg' height='90'> <img src='G_8.jpg' height='90'> <img src='G_4.jpg' height='90'> <img src='G_1.jpg' height='90'> <img src='G_6.jpg' height='90'> <img src='G_3.jpg' height='90'>","null","Animation1","",""
"","","","","","html-keyboard-response","69","184540","0.0-57.0","43","1","2025-02-02 04:44:35","bc01a2b6f61d06f6604adb8657495020","66.229.193.218","Mozilla/5.0 (Windows NT 10.0; Win64; x64) AppleWebKit/537.36 (KHTML, like Gecko) Chrome/132.0.0.0 Safari/537.36","WebKit","Chrome","132.0.0.0","Windows","10.0","https://app.prolific.com/","en-US,en;q=0.9","67265982eb0c3fc495c6e33a","679edb085803f58d6bbd31ca","679ef81d0e53aa3e9801247d","","null","<img id='swapped'  src='G_7.jpg' height='90'> <img id='swapped'  src='G_2.jpg' height='90'> <img   src='G_5.jpg' height='90'> <img src='G_8.jpg' height='90'> <img src='G_4.jpg' height='90'> <img src='G_1.jpg' height='90'> <img src='G_6.jpg' height='90'> <img src='G_3.jpg' height='90'>","null","Animation1","",""
"","","","","","html-keyboard-response","70","184849","0.0-58.0","43","1","2025-02-02 04:44:35","bc01a2b6f61d06f6604adb8657495020","66.229.193.218","Mozilla/5.0 (Windows NT 10.0; Win64; x64) AppleWebKit/537.36 (KHTML, like Gecko) Chrome/132.0.0.0 Safari/537.36","WebKit","Chrome","132.0.0.0","Windows","10.0","https://app.prolific.com/","en-US,en;q=0.9","67265982eb0c3fc495c6e33a","679edb085803f58d6bbd31ca","679ef81d0e53aa3e9801247d","","null","<img   src='G_7.jpg' height='90'> <img   src='G_2.jpg' height='90'> <img   src='G_5.jpg' height='90'> <img src='G_8.jpg' height='90'> <img src='G_4.jpg' height='90'> <img src='G_1.jpg' height='90'> <img src='G_6.jpg' height='90'> <img src='G_3.jpg' height='90'>","null","Animation1","",""
"","","","","","html-keyboard-response","71","185358","0.0-59.0","43","1","2025-02-02 04:44:35","bc01a2b6f61d06f6604adb8657495020","66.229.193.218","Mozilla/5.0 (Windows NT 10.0; Win64; x64) AppleWebKit/537.36 (KHTML, like Gecko) Chrome/132.0.0.0 Safari/537.36","WebKit","Chrome","132.0.0.0","Windows","10.0","https://app.prolific.com/","en-US,en;q=0.9","67265982eb0c3fc495c6e33a","679edb085803f58d6bbd31ca","679ef81d0e53aa3e9801247d","","null","<img   src='G_7.jpg' height='90'> <img   src='G_2.jpg' height='90'> <img id='selected'   src='G_5.jpg' height='90'> <img src='G_8.jpg' height='90'> <img src='G_4.jpg' height='90'> <img src='G_1.jpg' height='90'> <img src='G_6.jpg' height='90'> <img src='G_3.jpg' height='90'>","null","Animation1","",""
"","","","","","html-keyboard-response","72","185868","0.0-60.0","43","1","2025-02-02 04:44:35","bc01a2b6f61d06f6604adb8657495020","66.229.193.218","Mozilla/5.0 (Windows NT 10.0; Win64; x64) AppleWebKit/537.36 (KHTML, like Gecko) Chrome/132.0.0.0 Safari/537.36","WebKit","Chrome","132.0.0.0","Windows","10.0","https://app.prolific.com/","en-US,en;q=0.9","67265982eb0c3fc495c6e33a","679edb085803f58d6bbd31ca","679ef81d0e53aa3e9801247d","","null","<img   src='G_7.jpg' height='90'> <img   src='G_2.jpg' height='90'> <img id='selected'   src='G_5.jpg' height='90'> <img id='selected' src='G_8.jpg' height='90'> <img src='G_4.jpg' height='90'> <img src='G_1.jpg' height='90'> <img src='G_6.jpg' height='90'> <img src='G_3.jpg' height='90'>","null","Animation1","",""
"","","","","","html-keyboard-response","73","186375","0.0-61.0","43","1","2025-02-02 04:44:35","bc01a2b6f61d06f6604adb8657495020","66.229.193.218","Mozilla/5.0 (Windows NT 10.0; Win64; x64) AppleWebKit/537.36 (KHTML, like Gecko) Chrome/132.0.0.0 Safari/537.36","WebKit","Chrome","132.0.0.0","Windows","10.0","https://app.prolific.com/","en-US,en;q=0.9","67265982eb0c3fc495c6e33a","679edb085803f58d6bbd31ca","679ef81d0e53aa3e9801247d","","null","<img   src='G_7.jpg' height='90'> <img   src='G_2.jpg' height='90'> <img id='swapped' src='G_8.jpg' height='90'> <img id='swapped'   src='G_5.jpg' height='90'> <img src='G_4.jpg' height='90'> <img src='G_1.jpg' height='90'> <img src='G_6.jpg' height='90'> <img src='G_3.jpg' height='90'>","null","Animation1","",""
"","","","","","html-keyboard-response","74","186686","0.0-62.0","43","1","2025-02-02 04:44:35","bc01a2b6f61d06f6604adb8657495020","66.229.193.218","Mozilla/5.0 (Windows NT 10.0; Win64; x64) AppleWebKit/537.36 (KHTML, like Gecko) Chrome/132.0.0.0 Safari/537.36","WebKit","Chrome","132.0.0.0","Windows","10.0","https://app.prolific.com/","en-US,en;q=0.9","67265982eb0c3fc495c6e33a","679edb085803f58d6bbd31ca","679ef81d0e53aa3e9801247d","","null","<img   src='G_7.jpg' height='90'> <img   src='G_2.jpg' height='90'> <img  src='G_8.jpg' height='90'> <img    src='G_5.jpg' height='90'> <img src='G_4.jpg' height='90'> <img src='G_1.jpg' height='90'> <img src='G_6.jpg' height='90'> <img src='G_3.jpg' height='90'>","null","Animation1","",""
"","","","","","html-keyboard-response","75","187199","0.0-63.0","43","1","2025-02-02 04:44:35","bc01a2b6f61d06f6604adb8657495020","66.229.193.218","Mozilla/5.0 (Windows NT 10.0; Win64; x64) AppleWebKit/537.36 (KHTML, like Gecko) Chrome/132.0.0.0 Safari/537.36","WebKit","Chrome","132.0.0.0","Windows","10.0","https://app.prolific.com/","en-US,en;q=0.9","67265982eb0c3fc495c6e33a","679edb085803f58d6bbd31ca","679ef81d0e53aa3e9801247d","","null","<img   src='G_7.jpg' height='90'> <img id='selected'   src='G_2.jpg' height='90'> <img  src='G_8.jpg' height='90'> <img    src='G_5.jpg' height='90'> <img src='G_4.jpg' height='90'> <img src='G_1.jpg' height='90'> <img src='G_6.jpg' height='90'> <img src='G_3.jpg' height='90'>","null","Animation1","",""
"","","","","","html-keyboard-response","76","187706","0.0-64.0","43","1","2025-02-02 04:44:35","bc01a2b6f61d06f6604adb8657495020","66.229.193.218","Mozilla/5.0 (Windows NT 10.0; Win64; x64) AppleWebKit/537.36 (KHTML, like Gecko) Chrome/132.0.0.0 Safari/537.36","WebKit","Chrome","132.0.0.0","Windows","10.0","https://app.prolific.com/","en-US,en;q=0.9","67265982eb0c3fc495c6e33a","679edb085803f58d6bbd31ca","679ef81d0e53aa3e9801247d","","null","<img   src='G_7.jpg' height='90'> <img id='selected'   src='G_2.jpg' height='90'> <img id='selected'  src='G_8.jpg' height='90'> <img    src='G_5.jpg' height='90'> <img src='G_4.jpg' height='90'> <img src='G_1.jpg' height='90'> <img src='G_6.jpg' height='90'> <img src='G_3.jpg' height='90'>","null","Animation1","",""
"","","","","","html-keyboard-response","77","188213","0.0-65.0","43","1","2025-02-02 04:44:35","bc01a2b6f61d06f6604adb8657495020","66.229.193.218","Mozilla/5.0 (Windows NT 10.0; Win64; x64) AppleWebKit/537.36 (KHTML, like Gecko) Chrome/132.0.0.0 Safari/537.36","WebKit","Chrome","132.0.0.0","Windows","10.0","https://app.prolific.com/","en-US,en;q=0.9","67265982eb0c3fc495c6e33a","679edb085803f58d6bbd31ca","679ef81d0e53aa3e9801247d","","null","<img   src='G_7.jpg' height='90'> <img id='swapped'  src='G_8.jpg' height='90'> <img id='swapped'   src='G_2.jpg' height='90'> <img    src='G_5.jpg' height='90'> <img src='G_4.jpg' height='90'> <img src='G_1.jpg' height='90'> <img src='G_6.jpg' height='90'> <img src='G_3.jpg' height='90'>","null","Animation1","",""
"","","","","","html-keyboard-response","78","188521","0.0-66.0","43","1","2025-02-02 04:44:35","bc01a2b6f61d06f6604adb8657495020","66.229.193.218","Mozilla/5.0 (Windows NT 10.0; Win64; x64) AppleWebKit/537.36 (KHTML, like Gecko) Chrome/132.0.0.0 Safari/537.36","WebKit","Chrome","132.0.0.0","Windows","10.0","https://app.prolific.com/","en-US,en;q=0.9","67265982eb0c3fc495c6e33a","679edb085803f58d6bbd31ca","679ef81d0e53aa3e9801247d","","null","<img   src='G_7.jpg' height='90'> <img   src='G_8.jpg' height='90'> <img    src='G_2.jpg' height='90'> <img    src='G_5.jpg' height='90'> <img src='G_4.jpg' height='90'> <img src='G_1.jpg' height='90'> <img src='G_6.jpg' height='90'> <img src='G_3.jpg' height='90'>","null","Animation1","",""
"","","","","","html-keyboard-response","79","189031","0.0-67.0","43","1","2025-02-02 04:44:35","bc01a2b6f61d06f6604adb8657495020","66.229.193.218","Mozilla/5.0 (Windows NT 10.0; Win64; x64) AppleWebKit/537.36 (KHTML, like Gecko) Chrome/132.0.0.0 Safari/537.36","WebKit","Chrome","132.0.0.0","Windows","10.0","https://app.prolific.com/","en-US,en;q=0.9","67265982eb0c3fc495c6e33a","679edb085803f58d6bbd31ca","679ef81d0e53aa3e9801247d","","null","<img id='selected'   src='G_7.jpg' height='90'> <img   src='G_8.jpg' height='90'> <img    src='G_2.jpg' height='90'> <img    src='G_5.jpg' height='90'> <img src='G_4.jpg' height='90'> <img src='G_1.jpg' height='90'> <img src='G_6.jpg' height='90'> <img src='G_3.jpg' height='90'>","null","Animation1","",""
"","","","","","html-keyboard-response","80","189539","0.0-68.0","43","1","2025-02-02 04:44:35","bc01a2b6f61d06f6604adb8657495020","66.229.193.218","Mozilla/5.0 (Windows NT 10.0; Win64; x64) AppleWebKit/537.36 (KHTML, like Gecko) Chrome/132.0.0.0 Safari/537.36","WebKit","Chrome","132.0.0.0","Windows","10.0","https://app.prolific.com/","en-US,en;q=0.9","67265982eb0c3fc495c6e33a","679edb085803f58d6bbd31ca","679ef81d0e53aa3e9801247d","","null","<img id='selected'   src='G_7.jpg' height='90'> <img id='selected'   src='G_8.jpg' height='90'> <img    src='G_2.jpg' height='90'> <img    src='G_5.jpg' height='90'> <img src='G_4.jpg' height='90'> <img src='G_1.jpg' height='90'> <img src='G_6.jpg' height='90'> <img src='G_3.jpg' height='90'>","null","Animation1","",""
"","","","","","html-keyboard-response","81","190046","0.0-69.0","43","1","2025-02-02 04:44:35","bc01a2b6f61d06f6604adb8657495020","66.229.193.218","Mozilla/5.0 (Windows NT 10.0; Win64; x64) AppleWebKit/537.36 (KHTML, like Gecko) Chrome/132.0.0.0 Safari/537.36","WebKit","Chrome","132.0.0.0","Windows","10.0","https://app.prolific.com/","en-US,en;q=0.9","67265982eb0c3fc495c6e33a","679edb085803f58d6bbd31ca","679ef81d0e53aa3e9801247d","","null","<img id='swapped'   src='G_8.jpg' height='90'> <img id='swapped'   src='G_7.jpg' height='90'> <img    src='G_2.jpg' height='90'> <img    src='G_5.jpg' height='90'> <img src='G_4.jpg' height='90'> <img src='G_1.jpg' height='90'> <img src='G_6.jpg' height='90'> <img src='G_3.jpg' height='90'>","null","Animation1","",""
"","","","","","html-keyboard-response","82","190355","0.0-70.0","43","1","2025-02-02 04:44:35","bc01a2b6f61d06f6604adb8657495020","66.229.193.218","Mozilla/5.0 (Windows NT 10.0; Win64; x64) AppleWebKit/537.36 (KHTML, like Gecko) Chrome/132.0.0.0 Safari/537.36","WebKit","Chrome","132.0.0.0","Windows","10.0","https://app.prolific.com/","en-US,en;q=0.9","67265982eb0c3fc495c6e33a","679edb085803f58d6bbd31ca","679ef81d0e53aa3e9801247d","","null","<img    src='G_8.jpg' height='90'> <img    src='G_7.jpg' height='90'> <img    src='G_2.jpg' height='90'> <img    src='G_5.jpg' height='90'> <img src='G_4.jpg' height='90'> <img src='G_1.jpg' height='90'> <img src='G_6.jpg' height='90'> <img src='G_3.jpg' height='90'>","null","Animation1","",""
"","","","","","html-keyboard-response","83","190864","0.0-71.0","43","1","2025-02-02 04:44:35","bc01a2b6f61d06f6604adb8657495020","66.229.193.218","Mozilla/5.0 (Windows NT 10.0; Win64; x64) AppleWebKit/537.36 (KHTML, like Gecko) Chrome/132.0.0.0 Safari/537.36","WebKit","Chrome","132.0.0.0","Windows","10.0","https://app.prolific.com/","en-US,en;q=0.9","67265982eb0c3fc495c6e33a","679edb085803f58d6bbd31ca","679ef81d0e53aa3e9801247d","","null","<img    src='G_8.jpg' height='90'> <img    src='G_7.jpg' height='90'> <img    src='G_2.jpg' height='90'> <img id='selected'    src='G_5.jpg' height='90'> <img src='G_4.jpg' height='90'> <img src='G_1.jpg' height='90'> <img src='G_6.jpg' height='90'> <img src='G_3.jpg' height='90'>","null","Animation1","",""
"","","","","","html-keyboard-response","84","191373","0.0-72.0","43","1","2025-02-02 04:44:35","bc01a2b6f61d06f6604adb8657495020","66.229.193.218","Mozilla/5.0 (Windows NT 10.0; Win64; x64) AppleWebKit/537.36 (KHTML, like Gecko) Chrome/132.0.0.0 Safari/537.36","WebKit","Chrome","132.0.0.0","Windows","10.0","https://app.prolific.com/","en-US,en;q=0.9","67265982eb0c3fc495c6e33a","679edb085803f58d6bbd31ca","679ef81d0e53aa3e9801247d","","null","<img    src='G_8.jpg' height='90'> <img    src='G_7.jpg' height='90'> <img    src='G_2.jpg' height='90'> <img id='selected'    src='G_5.jpg' height='90'> <img id='selected' src='G_4.jpg' height='90'> <img src='G_1.jpg' height='90'> <img src='G_6.jpg' height='90'> <img src='G_3.jpg' height='90'>","null","Animation1","",""
"","","","","","html-keyboard-response","85","191880","0.0-73.0","43","1","2025-02-02 04:44:35","bc01a2b6f61d06f6604adb8657495020","66.229.193.218","Mozilla/5.0 (Windows NT 10.0; Win64; x64) AppleWebKit/537.36 (KHTML, like Gecko) Chrome/132.0.0.0 Safari/537.36","WebKit","Chrome","132.0.0.0","Windows","10.0","https://app.prolific.com/","en-US,en;q=0.9","67265982eb0c3fc495c6e33a","679edb085803f58d6bbd31ca","679ef81d0e53aa3e9801247d","","null","<img    src='G_8.jpg' height='90'> <img    src='G_7.jpg' height='90'> <img    src='G_2.jpg' height='90'> <img id='swapped' src='G_4.jpg' height='90'> <img id='swapped'    src='G_5.jpg' height='90'> <img src='G_1.jpg' height='90'> <img src='G_6.jpg' height='90'> <img src='G_3.jpg' height='90'>","null","Animation1","",""
"","","","","","html-keyboard-response","86","192187","0.0-74.0","43","1","2025-02-02 04:44:35","bc01a2b6f61d06f6604adb8657495020","66.229.193.218","Mozilla/5.0 (Windows NT 10.0; Win64; x64) AppleWebKit/537.36 (KHTML, like Gecko) Chrome/132.0.0.0 Safari/537.36","WebKit","Chrome","132.0.0.0","Windows","10.0","https://app.prolific.com/","en-US,en;q=0.9","67265982eb0c3fc495c6e33a","679edb085803f58d6bbd31ca","679ef81d0e53aa3e9801247d","","null","<img    src='G_8.jpg' height='90'> <img    src='G_7.jpg' height='90'> <img    src='G_2.jpg' height='90'> <img  src='G_4.jpg' height='90'> <img     src='G_5.jpg' height='90'> <img src='G_1.jpg' height='90'> <img src='G_6.jpg' height='90'> <img src='G_3.jpg' height='90'>","null","Animation1","",""
"","","","","","html-keyboard-response","87","192695","0.0-75.0","43","1","2025-02-02 04:44:35","bc01a2b6f61d06f6604adb8657495020","66.229.193.218","Mozilla/5.0 (Windows NT 10.0; Win64; x64) AppleWebKit/537.36 (KHTML, like Gecko) Chrome/132.0.0.0 Safari/537.36","WebKit","Chrome","132.0.0.0","Windows","10.0","https://app.prolific.com/","en-US,en;q=0.9","67265982eb0c3fc495c6e33a","679edb085803f58d6bbd31ca","679ef81d0e53aa3e9801247d","","null","<img    src='G_8.jpg' height='90'> <img    src='G_7.jpg' height='90'> <img id='selected'    src='G_2.jpg' height='90'> <img  src='G_4.jpg' height='90'> <img     src='G_5.jpg' height='90'> <img src='G_1.jpg' height='90'> <img src='G_6.jpg' height='90'> <img src='G_3.jpg' height='90'>","null","Animation1","",""
"","","","","","html-keyboard-response","88","193204","0.0-76.0","43","1","2025-02-02 04:44:35","bc01a2b6f61d06f6604adb8657495020","66.229.193.218","Mozilla/5.0 (Windows NT 10.0; Win64; x64) AppleWebKit/537.36 (KHTML, like Gecko) Chrome/132.0.0.0 Safari/537.36","WebKit","Chrome","132.0.0.0","Windows","10.0","https://app.prolific.com/","en-US,en;q=0.9","67265982eb0c3fc495c6e33a","679edb085803f58d6bbd31ca","679ef81d0e53aa3e9801247d","","null","<img    src='G_8.jpg' height='90'> <img    src='G_7.jpg' height='90'> <img id='selected'    src='G_2.jpg' height='90'> <img id='selected'  src='G_4.jpg' height='90'> <img     src='G_5.jpg' height='90'> <img src='G_1.jpg' height='90'> <img src='G_6.jpg' height='90'> <img src='G_3.jpg' height='90'>","null","Animation1","",""
"","","","","","html-keyboard-response","89","193715","0.0-77.0","43","1","2025-02-02 04:44:35","bc01a2b6f61d06f6604adb8657495020","66.229.193.218","Mozilla/5.0 (Windows NT 10.0; Win64; x64) AppleWebKit/537.36 (KHTML, like Gecko) Chrome/132.0.0.0 Safari/537.36","WebKit","Chrome","132.0.0.0","Windows","10.0","https://app.prolific.com/","en-US,en;q=0.9","67265982eb0c3fc495c6e33a","679edb085803f58d6bbd31ca","679ef81d0e53aa3e9801247d","","null","<img    src='G_8.jpg' height='90'> <img    src='G_7.jpg' height='90'> <img id='swapped'  src='G_4.jpg' height='90'> <img id='swapped'    src='G_2.jpg' height='90'> <img     src='G_5.jpg' height='90'> <img src='G_1.jpg' height='90'> <img src='G_6.jpg' height='90'> <img src='G_3.jpg' height='90'>","null","Animation1","",""
"","","","","","html-keyboard-response","90","194022","0.0-78.0","43","1","2025-02-02 04:44:35","bc01a2b6f61d06f6604adb8657495020","66.229.193.218","Mozilla/5.0 (Windows NT 10.0; Win64; x64) AppleWebKit/537.36 (KHTML, like Gecko) Chrome/132.0.0.0 Safari/537.36","WebKit","Chrome","132.0.0.0","Windows","10.0","https://app.prolific.com/","en-US,en;q=0.9","67265982eb0c3fc495c6e33a","679edb085803f58d6bbd31ca","679ef81d0e53aa3e9801247d","","null","<img    src='G_8.jpg' height='90'> <img    src='G_7.jpg' height='90'> <img   src='G_4.jpg' height='90'> <img     src='G_2.jpg' height='90'> <img     src='G_5.jpg' height='90'> <img src='G_1.jpg' height='90'> <img src='G_6.jpg' height='90'> <img src='G_3.jpg' height='90'>","null","Animation1","",""
"","","","","","html-keyboard-response","91","194533","0.0-79.0","43","1","2025-02-02 04:44:35","bc01a2b6f61d06f6604adb8657495020","66.229.193.218","Mozilla/5.0 (Windows NT 10.0; Win64; x64) AppleWebKit/537.36 (KHTML, like Gecko) Chrome/132.0.0.0 Safari/537.36","WebKit","Chrome","132.0.0.0","Windows","10.0","https://app.prolific.com/","en-US,en;q=0.9","67265982eb0c3fc495c6e33a","679edb085803f58d6bbd31ca","679ef81d0e53aa3e9801247d","","null","<img    src='G_8.jpg' height='90'> <img id='selected'    src='G_7.jpg' height='90'> <img   src='G_4.jpg' height='90'> <img     src='G_2.jpg' height='90'> <img     src='G_5.jpg' height='90'> <img src='G_1.jpg' height='90'> <img src='G_6.jpg' height='90'> <img src='G_3.jpg' height='90'>","null","Animation1","",""
"","","","","","html-keyboard-response","92","195043","0.0-80.0","43","1","2025-02-02 04:44:35","bc01a2b6f61d06f6604adb8657495020","66.229.193.218","Mozilla/5.0 (Windows NT 10.0; Win64; x64) AppleWebKit/537.36 (KHTML, like Gecko) Chrome/132.0.0.0 Safari/537.36","WebKit","Chrome","132.0.0.0","Windows","10.0","https://app.prolific.com/","en-US,en;q=0.9","67265982eb0c3fc495c6e33a","679edb085803f58d6bbd31ca","679ef81d0e53aa3e9801247d","","null","<img    src='G_8.jpg' height='90'> <img id='selected'    src='G_7.jpg' height='90'> <img id='selected'   src='G_4.jpg' height='90'> <img     src='G_2.jpg' height='90'> <img     src='G_5.jpg' height='90'> <img src='G_1.jpg' height='90'> <img src='G_6.jpg' height='90'> <img src='G_3.jpg' height='90'>","null","Animation1","",""
"","","","","","html-keyboard-response","93","195553","0.0-81.0","43","1","2025-02-02 04:44:35","bc01a2b6f61d06f6604adb8657495020","66.229.193.218","Mozilla/5.0 (Windows NT 10.0; Win64; x64) AppleWebKit/537.36 (KHTML, like Gecko) Chrome/132.0.0.0 Safari/537.36","WebKit","Chrome","132.0.0.0","Windows","10.0","https://app.prolific.com/","en-US,en;q=0.9","67265982eb0c3fc495c6e33a","679edb085803f58d6bbd31ca","679ef81d0e53aa3e9801247d","","null","<img    src='G_8.jpg' height='90'> <img id='swapped'   src='G_4.jpg' height='90'> <img id='swapped'    src='G_7.jpg' height='90'> <img     src='G_2.jpg' height='90'> <img     src='G_5.jpg' height='90'> <img src='G_1.jpg' height='90'> <img src='G_6.jpg' height='90'> <img src='G_3.jpg' height='90'>","null","Animation1","",""
"","","","","","html-keyboard-response","94","195861","0.0-82.0","43","1","2025-02-02 04:44:35","bc01a2b6f61d06f6604adb8657495020","66.229.193.218","Mozilla/5.0 (Windows NT 10.0; Win64; x64) AppleWebKit/537.36 (KHTML, like Gecko) Chrome/132.0.0.0 Safari/537.36","WebKit","Chrome","132.0.0.0","Windows","10.0","https://app.prolific.com/","en-US,en;q=0.9","67265982eb0c3fc495c6e33a","679edb085803f58d6bbd31ca","679ef81d0e53aa3e9801247d","","null","<img    src='G_8.jpg' height='90'> <img    src='G_4.jpg' height='90'> <img     src='G_7.jpg' height='90'> <img     src='G_2.jpg' height='90'> <img     src='G_5.jpg' height='90'> <img src='G_1.jpg' height='90'> <img src='G_6.jpg' height='90'> <img src='G_3.jpg' height='90'>","null","Animation1","",""
"","","","","","html-keyboard-response","95","196371","0.0-83.0","43","1","2025-02-02 04:44:35","bc01a2b6f61d06f6604adb8657495020","66.229.193.218","Mozilla/5.0 (Windows NT 10.0; Win64; x64) AppleWebKit/537.36 (KHTML, like Gecko) Chrome/132.0.0.0 Safari/537.36","WebKit","Chrome","132.0.0.0","Windows","10.0","https://app.prolific.com/","en-US,en;q=0.9","67265982eb0c3fc495c6e33a","679edb085803f58d6bbd31ca","679ef81d0e53aa3e9801247d","","null","<img id='selected'    src='G_8.jpg' height='90'> <img    src='G_4.jpg' height='90'> <img     src='G_7.jpg' height='90'> <img     src='G_2.jpg' height='90'> <img     src='G_5.jpg' height='90'> <img src='G_1.jpg' height='90'> <img src='G_6.jpg' height='90'> <img src='G_3.jpg' height='90'>","null","Animation1","",""
"","","","","","html-keyboard-response","96","196879","0.0-84.0","43","1","2025-02-02 04:44:35","bc01a2b6f61d06f6604adb8657495020","66.229.193.218","Mozilla/5.0 (Windows NT 10.0; Win64; x64) AppleWebKit/537.36 (KHTML, like Gecko) Chrome/132.0.0.0 Safari/537.36","WebKit","Chrome","132.0.0.0","Windows","10.0","https://app.prolific.com/","en-US,en;q=0.9","67265982eb0c3fc495c6e33a","679edb085803f58d6bbd31ca","679ef81d0e53aa3e9801247d","","null","<img id='selected'    src='G_8.jpg' height='90'> <img id='selected'    src='G_4.jpg' height='90'> <img     src='G_7.jpg' height='90'> <img     src='G_2.jpg' height='90'> <img     src='G_5.jpg' height='90'> <img src='G_1.jpg' height='90'> <img src='G_6.jpg' height='90'> <img src='G_3.jpg' height='90'>","null","Animation1","",""
"","","","","","html-keyboard-response","97","197391","0.0-85.0","43","1","2025-02-02 04:44:35","bc01a2b6f61d06f6604adb8657495020","66.229.193.218","Mozilla/5.0 (Windows NT 10.0; Win64; x64) AppleWebKit/537.36 (KHTML, like Gecko) Chrome/132.0.0.0 Safari/537.36","WebKit","Chrome","132.0.0.0","Windows","10.0","https://app.prolific.com/","en-US,en;q=0.9","67265982eb0c3fc495c6e33a","679edb085803f58d6bbd31ca","679ef81d0e53aa3e9801247d","","null","<img id='selected'    src='G_8.jpg' height='90'> <img id='selected'    src='G_4.jpg' height='90'> <img     src='G_7.jpg' height='90'> <img     src='G_2.jpg' height='90'> <img     src='G_5.jpg' height='90'> <img src='G_1.jpg' height='90'> <img src='G_6.jpg' height='90'> <img src='G_3.jpg' height='90'>","null","Animation1","",""
"","","","","","html-keyboard-response","98","197701","0.0-86.0","43","1","2025-02-02 04:44:35","bc01a2b6f61d06f6604adb8657495020","66.229.193.218","Mozilla/5.0 (Windows NT 10.0; Win64; x64) AppleWebKit/537.36 (KHTML, like Gecko) Chrome/132.0.0.0 Safari/537.36","WebKit","Chrome","132.0.0.0","Windows","10.0","https://app.prolific.com/","en-US,en;q=0.9","67265982eb0c3fc495c6e33a","679edb085803f58d6bbd31ca","679ef81d0e53aa3e9801247d","","null","<img     src='G_8.jpg' height='90'> <img     src='G_4.jpg' height='90'> <img     src='G_7.jpg' height='90'> <img     src='G_2.jpg' height='90'> <img     src='G_5.jpg' height='90'> <img src='G_1.jpg' height='90'> <img src='G_6.jpg' height='90'> <img src='G_3.jpg' height='90'>","null","Animation1","",""
"","","","","","html-keyboard-response","99","198207","0.0-87.0","43","1","2025-02-02 04:44:35","bc01a2b6f61d06f6604adb8657495020","66.229.193.218","Mozilla/5.0 (Windows NT 10.0; Win64; x64) AppleWebKit/537.36 (KHTML, like Gecko) Chrome/132.0.0.0 Safari/537.36","WebKit","Chrome","132.0.0.0","Windows","10.0","https://app.prolific.com/","en-US,en;q=0.9","67265982eb0c3fc495c6e33a","679edb085803f58d6bbd31ca","679ef81d0e53aa3e9801247d","","null","<img     src='G_8.jpg' height='90'> <img     src='G_4.jpg' height='90'> <img     src='G_7.jpg' height='90'> <img     src='G_2.jpg' height='90'> <img id='selected'     src='G_5.jpg' height='90'> <img src='G_1.jpg' height='90'> <img src='G_6.jpg' height='90'> <img src='G_3.jpg' height='90'>","null","Animation1","",""
"","","","","","html-keyboard-response","100","198714","0.0-88.0","43","1","2025-02-02 04:44:35","bc01a2b6f61d06f6604adb8657495020","66.229.193.218","Mozilla/5.0 (Windows NT 10.0; Win64; x64) AppleWebKit/537.36 (KHTML, like Gecko) Chrome/132.0.0.0 Safari/537.36","WebKit","Chrome","132.0.0.0","Windows","10.0","https://app.prolific.com/","en-US,en;q=0.9","67265982eb0c3fc495c6e33a","679edb085803f58d6bbd31ca","679ef81d0e53aa3e9801247d","","null","<img     src='G_8.jpg' height='90'> <img     src='G_4.jpg' height='90'> <img     src='G_7.jpg' height='90'> <img     src='G_2.jpg' height='90'> <img id='selected'     src='G_5.jpg' height='90'> <img id='selected' src='G_1.jpg' height='90'> <img src='G_6.jpg' height='90'> <img src='G_3.jpg' height='90'>","null","Animation1","",""
"","","","","","html-keyboard-response","101","199222","0.0-89.0","43","1","2025-02-02 04:44:35","bc01a2b6f61d06f6604adb8657495020","66.229.193.218","Mozilla/5.0 (Windows NT 10.0; Win64; x64) AppleWebKit/537.36 (KHTML, like Gecko) Chrome/132.0.0.0 Safari/537.36","WebKit","Chrome","132.0.0.0","Windows","10.0","https://app.prolific.com/","en-US,en;q=0.9","67265982eb0c3fc495c6e33a","679edb085803f58d6bbd31ca","679ef81d0e53aa3e9801247d","","null","<img     src='G_8.jpg' height='90'> <img     src='G_4.jpg' height='90'> <img     src='G_7.jpg' height='90'> <img     src='G_2.jpg' height='90'> <img id='swapped' src='G_1.jpg' height='90'> <img id='swapped'     src='G_5.jpg' height='90'> <img src='G_6.jpg' height='90'> <img src='G_3.jpg' height='90'>","null","Animation1","",""
"","","","","","html-keyboard-response","102","199531","0.0-90.0","43","1","2025-02-02 04:44:35","bc01a2b6f61d06f6604adb8657495020","66.229.193.218","Mozilla/5.0 (Windows NT 10.0; Win64; x64) AppleWebKit/537.36 (KHTML, like Gecko) Chrome/132.0.0.0 Safari/537.36","WebKit","Chrome","132.0.0.0","Windows","10.0","https://app.prolific.com/","en-US,en;q=0.9","67265982eb0c3fc495c6e33a","679edb085803f58d6bbd31ca","679ef81d0e53aa3e9801247d","","null","<img     src='G_8.jpg' height='90'> <img     src='G_4.jpg' height='90'> <img     src='G_7.jpg' height='90'> <img     src='G_2.jpg' height='90'> <img  src='G_1.jpg' height='90'> <img      src='G_5.jpg' height='90'> <img src='G_6.jpg' height='90'> <img src='G_3.jpg' height='90'>","null","Animation1","",""
"","","","","","html-keyboard-response","103","200040","0.0-91.0","43","1","2025-02-02 04:44:35","bc01a2b6f61d06f6604adb8657495020","66.229.193.218","Mozilla/5.0 (Windows NT 10.0; Win64; x64) AppleWebKit/537.36 (KHTML, like Gecko) Chrome/132.0.0.0 Safari/537.36","WebKit","Chrome","132.0.0.0","Windows","10.0","https://app.prolific.com/","en-US,en;q=0.9","67265982eb0c3fc495c6e33a","679edb085803f58d6bbd31ca","679ef81d0e53aa3e9801247d","","null","<img     src='G_8.jpg' height='90'> <img     src='G_4.jpg' height='90'> <img     src='G_7.jpg' height='90'> <img id='selected'     src='G_2.jpg' height='90'> <img  src='G_1.jpg' height='90'> <img      src='G_5.jpg' height='90'> <img src='G_6.jpg' height='90'> <img src='G_3.jpg' height='90'>","null","Animation1","",""
"","","","","","html-keyboard-response","104","200553","0.0-92.0","43","1","2025-02-02 04:44:35","bc01a2b6f61d06f6604adb8657495020","66.229.193.218","Mozilla/5.0 (Windows NT 10.0; Win64; x64) AppleWebKit/537.36 (KHTML, like Gecko) Chrome/132.0.0.0 Safari/537.36","WebKit","Chrome","132.0.0.0","Windows","10.0","https://app.prolific.com/","en-US,en;q=0.9","67265982eb0c3fc495c6e33a","679edb085803f58d6bbd31ca","679ef81d0e53aa3e9801247d","","null","<img     src='G_8.jpg' height='90'> <img     src='G_4.jpg' height='90'> <img     src='G_7.jpg' height='90'> <img id='selected'     src='G_2.jpg' height='90'> <img id='selected'  src='G_1.jpg' height='90'> <img      src='G_5.jpg' height='90'> <img src='G_6.jpg' height='90'> <img src='G_3.jpg' height='90'>","null","Animation1","",""
"","","","","","html-keyboard-response","105","201062","0.0-93.0","43","1","2025-02-02 04:44:35","bc01a2b6f61d06f6604adb8657495020","66.229.193.218","Mozilla/5.0 (Windows NT 10.0; Win64; x64) AppleWebKit/537.36 (KHTML, like Gecko) Chrome/132.0.0.0 Safari/537.36","WebKit","Chrome","132.0.0.0","Windows","10.0","https://app.prolific.com/","en-US,en;q=0.9","67265982eb0c3fc495c6e33a","679edb085803f58d6bbd31ca","679ef81d0e53aa3e9801247d","","null","<img     src='G_8.jpg' height='90'> <img     src='G_4.jpg' height='90'> <img     src='G_7.jpg' height='90'> <img id='selected'     src='G_2.jpg' height='90'> <img id='selected'  src='G_1.jpg' height='90'> <img      src='G_5.jpg' height='90'> <img src='G_6.jpg' height='90'> <img src='G_3.jpg' height='90'>","null","Animation1","",""
"","","","","","html-keyboard-response","106","201375","0.0-94.0","43","1","2025-02-02 04:44:35","bc01a2b6f61d06f6604adb8657495020","66.229.193.218","Mozilla/5.0 (Windows NT 10.0; Win64; x64) AppleWebKit/537.36 (KHTML, like Gecko) Chrome/132.0.0.0 Safari/537.36","WebKit","Chrome","132.0.0.0","Windows","10.0","https://app.prolific.com/","en-US,en;q=0.9","67265982eb0c3fc495c6e33a","679edb085803f58d6bbd31ca","679ef81d0e53aa3e9801247d","","null","<img     src='G_8.jpg' height='90'> <img     src='G_4.jpg' height='90'> <img     src='G_7.jpg' height='90'> <img      src='G_2.jpg' height='90'> <img   src='G_1.jpg' height='90'> <img      src='G_5.jpg' height='90'> <img src='G_6.jpg' height='90'> <img src='G_3.jpg' height='90'>","null","Animation1","",""
"","","","","","html-keyboard-response","107","201884","0.0-95.0","43","1","2025-02-02 04:44:35","bc01a2b6f61d06f6604adb8657495020","66.229.193.218","Mozilla/5.0 (Windows NT 10.0; Win64; x64) AppleWebKit/537.36 (KHTML, like Gecko) Chrome/132.0.0.0 Safari/537.36","WebKit","Chrome","132.0.0.0","Windows","10.0","https://app.prolific.com/","en-US,en;q=0.9","67265982eb0c3fc495c6e33a","679edb085803f58d6bbd31ca","679ef81d0e53aa3e9801247d","","null","<img     src='G_8.jpg' height='90'> <img     src='G_4.jpg' height='90'> <img     src='G_7.jpg' height='90'> <img      src='G_2.jpg' height='90'> <img   src='G_1.jpg' height='90'> <img id='selected'      src='G_5.jpg' height='90'> <img src='G_6.jpg' height='90'> <img src='G_3.jpg' height='90'>","null","Animation1","",""
"","","","","","html-keyboard-response","108","202391","0.0-96.0","43","1","2025-02-02 04:44:35","bc01a2b6f61d06f6604adb8657495020","66.229.193.218","Mozilla/5.0 (Windows NT 10.0; Win64; x64) AppleWebKit/537.36 (KHTML, like Gecko) Chrome/132.0.0.0 Safari/537.36","WebKit","Chrome","132.0.0.0","Windows","10.0","https://app.prolific.com/","en-US,en;q=0.9","67265982eb0c3fc495c6e33a","679edb085803f58d6bbd31ca","679ef81d0e53aa3e9801247d","","null","<img     src='G_8.jpg' height='90'> <img     src='G_4.jpg' height='90'> <img     src='G_7.jpg' height='90'> <img      src='G_2.jpg' height='90'> <img   src='G_1.jpg' height='90'> <img id='selected'      src='G_5.jpg' height='90'> <img id='selected' src='G_6.jpg' height='90'> <img src='G_3.jpg' height='90'>","null","Animation1","",""
"","","","","","html-keyboard-response","109","202899","0.0-97.0","43","1","2025-02-02 04:44:35","bc01a2b6f61d06f6604adb8657495020","66.229.193.218","Mozilla/5.0 (Windows NT 10.0; Win64; x64) AppleWebKit/537.36 (KHTML, like Gecko) Chrome/132.0.0.0 Safari/537.36","WebKit","Chrome","132.0.0.0","Windows","10.0","https://app.prolific.com/","en-US,en;q=0.9","67265982eb0c3fc495c6e33a","679edb085803f58d6bbd31ca","679ef81d0e53aa3e9801247d","","null","<img     src='G_8.jpg' height='90'> <img     src='G_4.jpg' height='90'> <img     src='G_7.jpg' height='90'> <img      src='G_2.jpg' height='90'> <img   src='G_1.jpg' height='90'> <img id='selected'      src='G_5.jpg' height='90'> <img id='selected' src='G_6.jpg' height='90'> <img src='G_3.jpg' height='90'>","null","Animation1","",""
"","","","","","html-keyboard-response","110","203207","0.0-98.0","43","1","2025-02-02 04:44:35","bc01a2b6f61d06f6604adb8657495020","66.229.193.218","Mozilla/5.0 (Windows NT 10.0; Win64; x64) AppleWebKit/537.36 (KHTML, like Gecko) Chrome/132.0.0.0 Safari/537.36","WebKit","Chrome","132.0.0.0","Windows","10.0","https://app.prolific.com/","en-US,en;q=0.9","67265982eb0c3fc495c6e33a","679edb085803f58d6bbd31ca","679ef81d0e53aa3e9801247d","","null","<img     src='G_8.jpg' height='90'> <img     src='G_4.jpg' height='90'> <img     src='G_7.jpg' height='90'> <img      src='G_2.jpg' height='90'> <img   src='G_1.jpg' height='90'> <img       src='G_5.jpg' height='90'> <img  src='G_6.jpg' height='90'> <img src='G_3.jpg' height='90'>","null","Animation1","",""
"","","","","","html-keyboard-response","111","203714","0.0-99.0","43","1","2025-02-02 04:44:35","bc01a2b6f61d06f6604adb8657495020","66.229.193.218","Mozilla/5.0 (Windows NT 10.0; Win64; x64) AppleWebKit/537.36 (KHTML, like Gecko) Chrome/132.0.0.0 Safari/537.36","WebKit","Chrome","132.0.0.0","Windows","10.0","https://app.prolific.com/","en-US,en;q=0.9","67265982eb0c3fc495c6e33a","679edb085803f58d6bbd31ca","679ef81d0e53aa3e9801247d","","null","<img     src='G_8.jpg' height='90'> <img     src='G_4.jpg' height='90'> <img     src='G_7.jpg' height='90'> <img      src='G_2.jpg' height='90'> <img   src='G_1.jpg' height='90'> <img       src='G_5.jpg' height='90'> <img id='selected'  src='G_6.jpg' height='90'> <img src='G_3.jpg' height='90'>","null","Animation1","",""
"","","","","","html-keyboard-response","112","204222","0.0-100.0","43","1","2025-02-02 04:44:35","bc01a2b6f61d06f6604adb8657495020","66.229.193.218","Mozilla/5.0 (Windows NT 10.0; Win64; x64) AppleWebKit/537.36 (KHTML, like Gecko) Chrome/132.0.0.0 Safari/537.36","WebKit","Chrome","132.0.0.0","Windows","10.0","https://app.prolific.com/","en-US,en;q=0.9","67265982eb0c3fc495c6e33a","679edb085803f58d6bbd31ca","679ef81d0e53aa3e9801247d","","null","<img     src='G_8.jpg' height='90'> <img     src='G_4.jpg' height='90'> <img     src='G_7.jpg' height='90'> <img      src='G_2.jpg' height='90'> <img   src='G_1.jpg' height='90'> <img       src='G_5.jpg' height='90'> <img id='selected'  src='G_6.jpg' height='90'> <img id='selected' src='G_3.jpg' height='90'>","null","Animation1","",""
"","","","","","html-keyboard-response","113","204734","0.0-101.0","43","1","2025-02-02 04:44:35","bc01a2b6f61d06f6604adb8657495020","66.229.193.218","Mozilla/5.0 (Windows NT 10.0; Win64; x64) AppleWebKit/537.36 (KHTML, like Gecko) Chrome/132.0.0.0 Safari/537.36","WebKit","Chrome","132.0.0.0","Windows","10.0","https://app.prolific.com/","en-US,en;q=0.9","67265982eb0c3fc495c6e33a","679edb085803f58d6bbd31ca","679ef81d0e53aa3e9801247d","","null","<img     src='G_8.jpg' height='90'> <img     src='G_4.jpg' height='90'> <img     src='G_7.jpg' height='90'> <img      src='G_2.jpg' height='90'> <img   src='G_1.jpg' height='90'> <img       src='G_5.jpg' height='90'> <img id='swapped' src='G_3.jpg' height='90'> <img id='swapped'  src='G_6.jpg' height='90'>","null","Animation1","",""
"","","","","","html-keyboard-response","114","205043","0.0-102.0","43","1","2025-02-02 04:44:35","bc01a2b6f61d06f6604adb8657495020","66.229.193.218","Mozilla/5.0 (Windows NT 10.0; Win64; x64) AppleWebKit/537.36 (KHTML, like Gecko) Chrome/132.0.0.0 Safari/537.36","WebKit","Chrome","132.0.0.0","Windows","10.0","https://app.prolific.com/","en-US,en;q=0.9","67265982eb0c3fc495c6e33a","679edb085803f58d6bbd31ca","679ef81d0e53aa3e9801247d","","null","<img     src='G_8.jpg' height='90'> <img     src='G_4.jpg' height='90'> <img     src='G_7.jpg' height='90'> <img      src='G_2.jpg' height='90'> <img   src='G_1.jpg' height='90'> <img       src='G_5.jpg' height='90'> <img  src='G_3.jpg' height='90'> <img   src='G_6.jpg' height='90'>","null","Animation1","",""
"","","","","","html-keyboard-response","115","205552","0.0-103.0","43","1","2025-02-02 04:44:35","bc01a2b6f61d06f6604adb8657495020","66.229.193.218","Mozilla/5.0 (Windows NT 10.0; Win64; x64) AppleWebKit/537.36 (KHTML, like Gecko) Chrome/132.0.0.0 Safari/537.36","WebKit","Chrome","132.0.0.0","Windows","10.0","https://app.prolific.com/","en-US,en;q=0.9","67265982eb0c3fc495c6e33a","679edb085803f58d6bbd31ca","679ef81d0e53aa3e9801247d","","null","<img     src='G_8.jpg' height='90'> <img     src='G_4.jpg' height='90'> <img     src='G_7.jpg' height='90'> <img      src='G_2.jpg' height='90'> <img   src='G_1.jpg' height='90'> <img id='selected'       src='G_5.jpg' height='90'> <img  src='G_3.jpg' height='90'> <img   src='G_6.jpg' height='90'>","null","Animation1","",""
"","","","","","html-keyboard-response","116","206062","0.0-104.0","43","1","2025-02-02 04:44:35","bc01a2b6f61d06f6604adb8657495020","66.229.193.218","Mozilla/5.0 (Windows NT 10.0; Win64; x64) AppleWebKit/537.36 (KHTML, like Gecko) Chrome/132.0.0.0 Safari/537.36","WebKit","Chrome","132.0.0.0","Windows","10.0","https://app.prolific.com/","en-US,en;q=0.9","67265982eb0c3fc495c6e33a","679edb085803f58d6bbd31ca","679ef81d0e53aa3e9801247d","","null","<img     src='G_8.jpg' height='90'> <img     src='G_4.jpg' height='90'> <img     src='G_7.jpg' height='90'> <img      src='G_2.jpg' height='90'> <img   src='G_1.jpg' height='90'> <img id='selected'       src='G_5.jpg' height='90'> <img id='selected'  src='G_3.jpg' height='90'> <img   src='G_6.jpg' height='90'>","null","Animation1","",""
"","","","","","html-keyboard-response","117","206571","0.0-105.0","43","1","2025-02-02 04:44:35","bc01a2b6f61d06f6604adb8657495020","66.229.193.218","Mozilla/5.0 (Windows NT 10.0; Win64; x64) AppleWebKit/537.36 (KHTML, like Gecko) Chrome/132.0.0.0 Safari/537.36","WebKit","Chrome","132.0.0.0","Windows","10.0","https://app.prolific.com/","en-US,en;q=0.9","67265982eb0c3fc495c6e33a","679edb085803f58d6bbd31ca","679ef81d0e53aa3e9801247d","","null","<img     src='G_8.jpg' height='90'> <img     src='G_4.jpg' height='90'> <img     src='G_7.jpg' height='90'> <img      src='G_2.jpg' height='90'> <img   src='G_1.jpg' height='90'> <img id='selected'       src='G_5.jpg' height='90'> <img id='selected'  src='G_3.jpg' height='90'> <img   src='G_6.jpg' height='90'>","null","Animation1","",""
"","","","","","html-keyboard-response","118","206880","0.0-106.0","43","1","2025-02-02 04:44:35","bc01a2b6f61d06f6604adb8657495020","66.229.193.218","Mozilla/5.0 (Windows NT 10.0; Win64; x64) AppleWebKit/537.36 (KHTML, like Gecko) Chrome/132.0.0.0 Safari/537.36","WebKit","Chrome","132.0.0.0","Windows","10.0","https://app.prolific.com/","en-US,en;q=0.9","67265982eb0c3fc495c6e33a","679edb085803f58d6bbd31ca","679ef81d0e53aa3e9801247d","","null","<img     src='G_8.jpg' height='90'> <img     src='G_4.jpg' height='90'> <img     src='G_7.jpg' height='90'> <img      src='G_2.jpg' height='90'> <img   src='G_1.jpg' height='90'> <img        src='G_5.jpg' height='90'> <img   src='G_3.jpg' height='90'> <img   src='G_6.jpg' height='90'>","null","Animation1","",""
"","","","","","html-keyboard-response","119","213396","0.0-107.0","43","1","2025-02-02 04:44:35","bc01a2b6f61d06f6604adb8657495020","66.229.193.218","Mozilla/5.0 (Windows NT 10.0; Win64; x64) AppleWebKit/537.36 (KHTML, like Gecko) Chrome/132.0.0.0 Safari/537.36","WebKit","Chrome","132.0.0.0","Windows","10.0","https://app.prolific.com/","en-US,en;q=0.9","67265982eb0c3fc495c6e33a","679edb085803f58d6bbd31ca","679ef81d0e53aa3e9801247d","","6512","[""Did you notice any patterns? <br><br>Press Enter to watch that example again and follow the steps of Omgne Sort.""]","enter","","",""
"","","","","","html-button-response","120","213812","0.0-108.0","43","1","2025-02-02 04:44:35","bc01a2b6f61d06f6604adb8657495020","66.229.193.218","Mozilla/5.0 (Windows NT 10.0; Win64; x64) AppleWebKit/537.36 (KHTML, like Gecko) Chrome/132.0.0.0 Safari/537.36","WebKit","Chrome","132.0.0.0","Windows","10.0","https://app.prolific.com/","en-US,en;q=0.9","67265982eb0c3fc495c6e33a","679edb085803f58d6bbd31ca","679ef81d0e53aa3e9801247d","","null","<img id='selected' src='G_2.jpg' height='90'> <img src='G_5.jpg' height='90'> <img src='G_7.jpg' height='90'> <img src='G_8.jpg' height='90'> <img src='G_4.jpg' height='90'> <img src='G_1.jpg' height='90'> <img src='G_6.jpg' height='90'> <img src='G_3.jpg' height='90'>","null","Learning example 1","",""
"","","","","","html-button-response","121","214122","0.0-109.0","43","1","2025-02-02 04:44:35","bc01a2b6f61d06f6604adb8657495020","66.229.193.218","Mozilla/5.0 (Windows NT 10.0; Win64; x64) AppleWebKit/537.36 (KHTML, like Gecko) Chrome/132.0.0.0 Safari/537.36","WebKit","Chrome","132.0.0.0","Windows","10.0","https://app.prolific.com/","en-US,en;q=0.9","67265982eb0c3fc495c6e33a","679edb085803f58d6bbd31ca","679ef81d0e53aa3e9801247d","","null","<img id='selected' src='G_2.jpg' height='90'> <img id='selected' src='G_5.jpg' height='90'> <img src='G_7.jpg' height='90'> <img src='G_8.jpg' height='90'> <img src='G_4.jpg' height='90'> <img src='G_1.jpg' height='90'> <img src='G_6.jpg' height='90'> <img src='G_3.jpg' height='90'>","null","Learning example 1","",""
"","","","","","html-button-response","122","214429","0.0-110.0","43","1","2025-02-02 04:44:35","bc01a2b6f61d06f6604adb8657495020","66.229.193.218","Mozilla/5.0 (Windows NT 10.0; Win64; x64) AppleWebKit/537.36 (KHTML, like Gecko) Chrome/132.0.0.0 Safari/537.36","WebKit","Chrome","132.0.0.0","Windows","10.0","https://app.prolific.com/","en-US,en;q=0.9","67265982eb0c3fc495c6e33a","679edb085803f58d6bbd31ca","679ef81d0e53aa3e9801247d","","null","<img id='selected' src='G_2.jpg' height='90'> <img id='selected' src='G_5.jpg' height='90'> <img src='G_7.jpg' height='90'> <img src='G_8.jpg' height='90'> <img src='G_4.jpg' height='90'> <img src='G_1.jpg' height='90'> <img src='G_6.jpg' height='90'> <img src='G_3.jpg' height='90'>","null","Learning example 1","",""
"","","","","","html-button-response","123","218534","0.0-111.0-0.0-0.0","43","1","2025-02-02 04:44:35","bc01a2b6f61d06f6604adb8657495020","66.229.193.218","Mozilla/5.0 (Windows NT 10.0; Win64; x64) AppleWebKit/537.36 (KHTML, like Gecko) Chrome/132.0.0.0 Safari/537.36","WebKit","Chrome","132.0.0.0","Windows","10.0","https://app.prolific.com/","en-US,en;q=0.9","67265982eb0c3fc495c6e33a","679edb085803f58d6bbd31ca","679ef81d0e53aa3e9801247d","","4099","<img id='selected' src='G_2.jpg' height='90'> <img id='selected' src='G_5.jpg' height='90'> <img src='G_7.jpg' height='90'> <img src='G_8.jpg' height='90'> <img src='G_4.jpg' height='90'> <img src='G_1.jpg' height='90'> <img src='G_6.jpg' height='90'> <img src='G_3.jpg' height='90'>","0","Learning example 1","",""
"","","","","","html-button-response","124","218942","0.0-111.1-0.1-0.1","43","1","2025-02-02 04:44:35","bc01a2b6f61d06f6604adb8657495020","66.229.193.218","Mozilla/5.0 (Windows NT 10.0; Win64; x64) AppleWebKit/537.36 (KHTML, like Gecko) Chrome/132.0.0.0 Safari/537.36","WebKit","Chrome","132.0.0.0","Windows","10.0","https://app.prolific.com/","en-US,en;q=0.9","67265982eb0c3fc495c6e33a","679edb085803f58d6bbd31ca","679ef81d0e53aa3e9801247d","","405","<img id='selected' src='G_2.jpg' height='90'> <img id='selected' src='G_5.jpg' height='90'> <img src='G_7.jpg' height='90'> <img src='G_8.jpg' height='90'> <img src='G_4.jpg' height='90'> <img src='G_1.jpg' height='90'> <img src='G_6.jpg' height='90'> <img src='G_3.jpg' height='90'>","1","Learning example 1","",""
"","","","","","html-button-response","125","219144","0.0-112.0","43","1","2025-02-02 04:44:35","bc01a2b6f61d06f6604adb8657495020","66.229.193.218","Mozilla/5.0 (Windows NT 10.0; Win64; x64) AppleWebKit/537.36 (KHTML, like Gecko) Chrome/132.0.0.0 Safari/537.36","WebKit","Chrome","132.0.0.0","Windows","10.0","https://app.prolific.com/","en-US,en;q=0.9","67265982eb0c3fc495c6e33a","679edb085803f58d6bbd31ca","679ef81d0e53aa3e9801247d","","null","<img  src='G_2.jpg' height='90'> <img  src='G_5.jpg' height='90'> <img src='G_7.jpg' height='90'> <img src='G_8.jpg' height='90'> <img src='G_4.jpg' height='90'> <img src='G_1.jpg' height='90'> <img src='G_6.jpg' height='90'> <img src='G_3.jpg' height='90'>","null","Learning example 1","",""
"","","","","","html-button-response","126","219547","0.0-113.0","43","1","2025-02-02 04:44:35","bc01a2b6f61d06f6604adb8657495020","66.229.193.218","Mozilla/5.0 (Windows NT 10.0; Win64; x64) AppleWebKit/537.36 (KHTML, like Gecko) Chrome/132.0.0.0 Safari/537.36","WebKit","Chrome","132.0.0.0","Windows","10.0","https://app.prolific.com/","en-US,en;q=0.9","67265982eb0c3fc495c6e33a","679edb085803f58d6bbd31ca","679ef81d0e53aa3e9801247d","","null","<img  src='G_2.jpg' height='90'> <img id='selected'  src='G_5.jpg' height='90'> <img src='G_7.jpg' height='90'> <img src='G_8.jpg' height='90'> <img src='G_4.jpg' height='90'> <img src='G_1.jpg' height='90'> <img src='G_6.jpg' height='90'> <img src='G_3.jpg' height='90'>","null","Learning example 1","",""
"","","","","","html-button-response","127","219870","0.0-114.0","43","1","2025-02-02 04:44:35","bc01a2b6f61d06f6604adb8657495020","66.229.193.218","Mozilla/5.0 (Windows NT 10.0; Win64; x64) AppleWebKit/537.36 (KHTML, like Gecko) Chrome/132.0.0.0 Safari/537.36","WebKit","Chrome","132.0.0.0","Windows","10.0","https://app.prolific.com/","en-US,en;q=0.9","67265982eb0c3fc495c6e33a","679edb085803f58d6bbd31ca","679ef81d0e53aa3e9801247d","","null","<img  src='G_2.jpg' height='90'> <img id='selected'  src='G_5.jpg' height='90'> <img id='selected' src='G_7.jpg' height='90'> <img src='G_8.jpg' height='90'> <img src='G_4.jpg' height='90'> <img src='G_1.jpg' height='90'> <img src='G_6.jpg' height='90'> <img src='G_3.jpg' height='90'>","null","Learning example 1","",""
"","","","","","html-button-response","128","220178","0.0-115.0","43","1","2025-02-02 04:44:35","bc01a2b6f61d06f6604adb8657495020","66.229.193.218","Mozilla/5.0 (Windows NT 10.0; Win64; x64) AppleWebKit/537.36 (KHTML, like Gecko) Chrome/132.0.0.0 Safari/537.36","WebKit","Chrome","132.0.0.0","Windows","10.0","https://app.prolific.com/","en-US,en;q=0.9","67265982eb0c3fc495c6e33a","679edb085803f58d6bbd31ca","679ef81d0e53aa3e9801247d","","null","<img  src='G_2.jpg' height='90'> <img id='swapped' src='G_7.jpg' height='90'> <img id='swapped'  src='G_5.jpg' height='90'> <img src='G_8.jpg' height='90'> <img src='G_4.jpg' height='90'> <img src='G_1.jpg' height='90'> <img src='G_6.jpg' height='90'> <img src='G_3.jpg' height='90'>","null","Learning example 1","",""
"","","","","","html-button-response","129","222451","0.0-116.0-0.0-0.0","43","1","2025-02-02 04:44:35","bc01a2b6f61d06f6604adb8657495020","66.229.193.218","Mozilla/5.0 (Windows NT 10.0; Win64; x64) AppleWebKit/537.36 (KHTML, like Gecko) Chrome/132.0.0.0 Safari/537.36","WebKit","Chrome","132.0.0.0","Windows","10.0","https://app.prolific.com/","en-US,en;q=0.9","67265982eb0c3fc495c6e33a","679edb085803f58d6bbd31ca","679ef81d0e53aa3e9801247d","","2265","<img  src='G_2.jpg' height='90'> <img id='swapped' src='G_7.jpg' height='90'> <img id='swapped'  src='G_5.jpg' height='90'> <img src='G_8.jpg' height='90'> <img src='G_4.jpg' height='90'> <img src='G_1.jpg' height='90'> <img src='G_6.jpg' height='90'> <img src='G_3.jpg' height='90'>","1","Learning example 1","",""
"","","","","","html-button-response","130","222742","0.0-116.1-0.1-0.1","43","1","2025-02-02 04:44:35","bc01a2b6f61d06f6604adb8657495020","66.229.193.218","Mozilla/5.0 (Windows NT 10.0; Win64; x64) AppleWebKit/537.36 (KHTML, like Gecko) Chrome/132.0.0.0 Safari/537.36","WebKit","Chrome","132.0.0.0","Windows","10.0","https://app.prolific.com/","en-US,en;q=0.9","67265982eb0c3fc495c6e33a","679edb085803f58d6bbd31ca","679ef81d0e53aa3e9801247d","","289","<img  src='G_2.jpg' height='90'> <img id='swapped' src='G_7.jpg' height='90'> <img id='swapped'  src='G_5.jpg' height='90'> <img src='G_8.jpg' height='90'> <img src='G_4.jpg' height='90'> <img src='G_1.jpg' height='90'> <img src='G_6.jpg' height='90'> <img src='G_3.jpg' height='90'>","2","Learning example 1","",""
"","","","","","html-button-response","131","222944","0.0-117.0","43","1","2025-02-02 04:44:35","bc01a2b6f61d06f6604adb8657495020","66.229.193.218","Mozilla/5.0 (Windows NT 10.0; Win64; x64) AppleWebKit/537.36 (KHTML, like Gecko) Chrome/132.0.0.0 Safari/537.36","WebKit","Chrome","132.0.0.0","Windows","10.0","https://app.prolific.com/","en-US,en;q=0.9","67265982eb0c3fc495c6e33a","679edb085803f58d6bbd31ca","679ef81d0e53aa3e9801247d","","null","<img  src='G_2.jpg' height='90'> <img  src='G_7.jpg' height='90'> <img   src='G_5.jpg' height='90'> <img src='G_8.jpg' height='90'> <img src='G_4.jpg' height='90'> <img src='G_1.jpg' height='90'> <img src='G_6.jpg' height='90'> <img src='G_3.jpg' height='90'>","null","Learning example 1","",""
"","","","","","html-button-response","132","223347","0.0-118.0","43","1","2025-02-02 04:44:35","bc01a2b6f61d06f6604adb8657495020","66.229.193.218","Mozilla/5.0 (Windows NT 10.0; Win64; x64) AppleWebKit/537.36 (KHTML, like Gecko) Chrome/132.0.0.0 Safari/537.36","WebKit","Chrome","132.0.0.0","Windows","10.0","https://app.prolific.com/","en-US,en;q=0.9","67265982eb0c3fc495c6e33a","679edb085803f58d6bbd31ca","679ef81d0e53aa3e9801247d","","null","<img id='selected'  src='G_2.jpg' height='90'> <img  src='G_7.jpg' height='90'> <img   src='G_5.jpg' height='90'> <img src='G_8.jpg' height='90'> <img src='G_4.jpg' height='90'> <img src='G_1.jpg' height='90'> <img src='G_6.jpg' height='90'> <img src='G_3.jpg' height='90'>","null","Learning example 1","",""
"","","","","","html-button-response","133","223659","0.0-119.0","43","1","2025-02-02 04:44:35","bc01a2b6f61d06f6604adb8657495020","66.229.193.218","Mozilla/5.0 (Windows NT 10.0; Win64; x64) AppleWebKit/537.36 (KHTML, like Gecko) Chrome/132.0.0.0 Safari/537.36","WebKit","Chrome","132.0.0.0","Windows","10.0","https://app.prolific.com/","en-US,en;q=0.9","67265982eb0c3fc495c6e33a","679edb085803f58d6bbd31ca","679ef81d0e53aa3e9801247d","","null","<img id='selected'  src='G_2.jpg' height='90'> <img id='selected'  src='G_7.jpg' height='90'> <img   src='G_5.jpg' height='90'> <img src='G_8.jpg' height='90'> <img src='G_4.jpg' height='90'> <img src='G_1.jpg' height='90'> <img src='G_6.jpg' height='90'> <img src='G_3.jpg' height='90'>","null","Learning example 1","",""
"","","","","","html-button-response","134","223965","0.0-120.0","43","1","2025-02-02 04:44:35","bc01a2b6f61d06f6604adb8657495020","66.229.193.218","Mozilla/5.0 (Windows NT 10.0; Win64; x64) AppleWebKit/537.36 (KHTML, like Gecko) Chrome/132.0.0.0 Safari/537.36","WebKit","Chrome","132.0.0.0","Windows","10.0","https://app.prolific.com/","en-US,en;q=0.9","67265982eb0c3fc495c6e33a","679edb085803f58d6bbd31ca","679ef81d0e53aa3e9801247d","","null","<img id='swapped'  src='G_7.jpg' height='90'> <img id='swapped'  src='G_2.jpg' height='90'> <img   src='G_5.jpg' height='90'> <img src='G_8.jpg' height='90'> <img src='G_4.jpg' height='90'> <img src='G_1.jpg' height='90'> <img src='G_6.jpg' height='90'> <img src='G_3.jpg' height='90'>","null","Learning example 1","",""
"","","","","","html-button-response","135","224656","0.0-121.0-0.0-0.0","43","1","2025-02-02 04:44:35","bc01a2b6f61d06f6604adb8657495020","66.229.193.218","Mozilla/5.0 (Windows NT 10.0; Win64; x64) AppleWebKit/537.36 (KHTML, like Gecko) Chrome/132.0.0.0 Safari/537.36","WebKit","Chrome","132.0.0.0","Windows","10.0","https://app.prolific.com/","en-US,en;q=0.9","67265982eb0c3fc495c6e33a","679edb085803f58d6bbd31ca","679ef81d0e53aa3e9801247d","","690","<img id='swapped'  src='G_7.jpg' height='90'> <img id='swapped'  src='G_2.jpg' height='90'> <img   src='G_5.jpg' height='90'> <img src='G_8.jpg' height='90'> <img src='G_4.jpg' height='90'> <img src='G_1.jpg' height='90'> <img src='G_6.jpg' height='90'> <img src='G_3.jpg' height='90'>","0","Learning example 1","",""
"","","","","","html-button-response","136","224971","0.0-121.1-0.1-0.1","43","1","2025-02-02 04:44:35","bc01a2b6f61d06f6604adb8657495020","66.229.193.218","Mozilla/5.0 (Windows NT 10.0; Win64; x64) AppleWebKit/537.36 (KHTML, like Gecko) Chrome/132.0.0.0 Safari/537.36","WebKit","Chrome","132.0.0.0","Windows","10.0","https://app.prolific.com/","en-US,en;q=0.9","67265982eb0c3fc495c6e33a","679edb085803f58d6bbd31ca","679ef81d0e53aa3e9801247d","","312","<img id='swapped'  src='G_7.jpg' height='90'> <img id='swapped'  src='G_2.jpg' height='90'> <img   src='G_5.jpg' height='90'> <img src='G_8.jpg' height='90'> <img src='G_4.jpg' height='90'> <img src='G_1.jpg' height='90'> <img src='G_6.jpg' height='90'> <img src='G_3.jpg' height='90'>","1","Learning example 1","",""
"","","","","","html-button-response","137","225174","0.0-122.0","43","1","2025-02-02 04:44:35","bc01a2b6f61d06f6604adb8657495020","66.229.193.218","Mozilla/5.0 (Windows NT 10.0; Win64; x64) AppleWebKit/537.36 (KHTML, like Gecko) Chrome/132.0.0.0 Safari/537.36","WebKit","Chrome","132.0.0.0","Windows","10.0","https://app.prolific.com/","en-US,en;q=0.9","67265982eb0c3fc495c6e33a","679edb085803f58d6bbd31ca","679ef81d0e53aa3e9801247d","","null","<img   src='G_7.jpg' height='90'> <img   src='G_2.jpg' height='90'> <img   src='G_5.jpg' height='90'> <img src='G_8.jpg' height='90'> <img src='G_4.jpg' height='90'> <img src='G_1.jpg' height='90'> <img src='G_6.jpg' height='90'> <img src='G_3.jpg' height='90'>","null","Learning example 1","",""
"","","","","","html-button-response","138","225586","0.0-123.0","43","1","2025-02-02 04:44:35","bc01a2b6f61d06f6604adb8657495020","66.229.193.218","Mozilla/5.0 (Windows NT 10.0; Win64; x64) AppleWebKit/537.36 (KHTML, like Gecko) Chrome/132.0.0.0 Safari/537.36","WebKit","Chrome","132.0.0.0","Windows","10.0","https://app.prolific.com/","en-US,en;q=0.9","67265982eb0c3fc495c6e33a","679edb085803f58d6bbd31ca","679ef81d0e53aa3e9801247d","","null","<img   src='G_7.jpg' height='90'> <img   src='G_2.jpg' height='90'> <img id='selected'   src='G_5.jpg' height='90'> <img src='G_8.jpg' height='90'> <img src='G_4.jpg' height='90'> <img src='G_1.jpg' height='90'> <img src='G_6.jpg' height='90'> <img src='G_3.jpg' height='90'>","null","Learning example 1","",""
"","","","","","html-button-response","139","225894","0.0-124.0","43","1","2025-02-02 04:44:35","bc01a2b6f61d06f6604adb8657495020","66.229.193.218","Mozilla/5.0 (Windows NT 10.0; Win64; x64) AppleWebKit/537.36 (KHTML, like Gecko) Chrome/132.0.0.0 Safari/537.36","WebKit","Chrome","132.0.0.0","Windows","10.0","https://app.prolific.com/","en-US,en;q=0.9","67265982eb0c3fc495c6e33a","679edb085803f58d6bbd31ca","679ef81d0e53aa3e9801247d","","null","<img   src='G_7.jpg' height='90'> <img   src='G_2.jpg' height='90'> <img id='selected'   src='G_5.jpg' height='90'> <img id='selected' src='G_8.jpg' height='90'> <img src='G_4.jpg' height='90'> <img src='G_1.jpg' height='90'> <img src='G_6.jpg' height='90'> <img src='G_3.jpg' height='90'>","null","Learning example 1","",""
"","","","","","html-button-response","140","226201","0.0-125.0","43","1","2025-02-02 04:44:35","bc01a2b6f61d06f6604adb8657495020","66.229.193.218","Mozilla/5.0 (Windows NT 10.0; Win64; x64) AppleWebKit/537.36 (KHTML, like Gecko) Chrome/132.0.0.0 Safari/537.36","WebKit","Chrome","132.0.0.0","Windows","10.0","https://app.prolific.com/","en-US,en;q=0.9","67265982eb0c3fc495c6e33a","679edb085803f58d6bbd31ca","679ef81d0e53aa3e9801247d","","null","<img   src='G_7.jpg' height='90'> <img   src='G_2.jpg' height='90'> <img id='swapped' src='G_8.jpg' height='90'> <img id='swapped'   src='G_5.jpg' height='90'> <img src='G_4.jpg' height='90'> <img src='G_1.jpg' height='90'> <img src='G_6.jpg' height='90'> <img src='G_3.jpg' height='90'>","null","Learning example 1","",""
