"success","timeout","failed_images","failed_audio","failed_video","trial_type","trial_index","time_elapsed","internal_node_id","run_id","condition","recorded_at","source_code_version","ip","user_agent","device","browser","browser_version","platform","platform_version","referer","accept_language","PROLIFIC_PID","STUDY_ID","SESSION_ID","view_history","rt","stimulus","response","phase","question_order","presented_choices"
"true","false","[]","[]","[]","preload","0","3115","0.0-0.0","44","1","2025-02-02 04:44:50","bc01a2b6f61d06f6604adb8657495020","47.215.222.215","Mozilla/5.0 (Windows NT 10.0; Win64; x64; rv:134.0) Gecko/20100101 Firefox/134.0","","Firefox","134.0","Windows","10.0","https://app.prolific.com/","en-US,en;q=0.5","64012a2623351894f2917605","679edb085803f58d6bbd31ca","679ef83a0a4cffc510bd071a","","","","","","",""
"","","","","","instructions","1","8923","0.0-1.0","44","1","2025-02-02 04:44:50","bc01a2b6f61d06f6604adb8657495020","47.215.222.215","Mozilla/5.0 (Windows NT 10.0; Win64; x64; rv:134.0) Gecko/20100101 Firefox/134.0","","Firefox","134.0","Windows","10.0","https://app.prolific.com/","en-US,en;q=0.5","64012a2623351894f2917605","679edb085803f58d6bbd31ca","679ef83a0a4cffc510bd071a","[{""page_index"":0,""viewing_time"":5805}]","5806","","","","",""
"","","","","","html-keyboard-response","2","9444","0.0-2.0","44","1","2025-02-02 04:44:50","bc01a2b6f61d06f6604adb8657495020","47.215.222.215","Mozilla/5.0 (Windows NT 10.0; Win64; x64; rv:134.0) Gecko/20100101 Firefox/134.0","","Firefox","134.0","Windows","10.0","https://app.prolific.com/","en-US,en;q=0.5","64012a2623351894f2917605","679edb085803f58d6bbd31ca","679ef83a0a4cffc510bd071a","","null","<p> + <p/>","null","","",""
"","","","","","instructions","3","409780","0.0-3.0","44","1","2025-02-02 04:44:50","bc01a2b6f61d06f6604adb8657495020","47.215.222.215","Mozilla/5.0 (Windows NT 10.0; Win64; x64; rv:134.0) Gecko/20100101 Firefox/134.0","","Firefox","134.0","Windows","10.0","https://app.prolific.com/","en-US,en;q=0.5","64012a2623351894f2917605","679edb085803f58d6bbd31ca","679ef83a0a4cffc510bd071a","[{""page_index"":0,""viewing_time"":1882},{""page_index"":1,""viewing_time"":37414},{""page_index"":2,""viewing_time"":235156},{""page_index"":3,""viewing_time"":10811},{""page_index"":4,""viewing_time"":115070}]","400333","","","","",""
"","","","","","html-button-response","4","441372","0.0-4.0-0.0-0.0","44","1","2025-02-02 04:44:50","bc01a2b6f61d06f6604adb8657495020","47.215.222.215","Mozilla/5.0 (Windows NT 10.0; Win64; x64; rv:134.0) Gecko/20100101 Firefox/134.0","","Firefox","134.0","Windows","10.0","https://app.prolific.com/","en-US,en;q=0.5","64012a2623351894f2917605","679edb085803f58d6bbd31ca","679ef83a0a4cffc510bd071a","","31589","","3","Intro Trial","",""
"","","","","","html-button-response","5","441797","0.0-4.1-0.1-0.1","44","1","2025-02-02 04:44:50","bc01a2b6f61d06f6604adb8657495020","47.215.222.215","Mozilla/5.0 (Windows NT 10.0; Win64; x64; rv:134.0) Gecko/20100101 Firefox/134.0","","Firefox","134.0","Windows","10.0","https://app.prolific.com/","en-US,en;q=0.5","64012a2623351894f2917605","679edb085803f58d6bbd31ca","679ef83a0a4cffc510bd071a","","420","","3","Intro Trial","",""
"","","","","","html-button-response","6","442909","0.0-4.2-0.2-0.2","44","1","2025-02-02 04:44:50","bc01a2b6f61d06f6604adb8657495020","47.215.222.215","Mozilla/5.0 (Windows NT 10.0; Win64; x64; rv:134.0) Gecko/20100101 Firefox/134.0","","Firefox","134.0","Windows","10.0","https://app.prolific.com/","en-US,en;q=0.5","64012a2623351894f2917605","679edb085803f58d6bbd31ca","679ef83a0a4cffc510bd071a","","1111","","0","Intro Trial","",""
"","","","","","html-button-response","7","443959","0.0-4.3-0.3-0.3","44","1","2025-02-02 04:44:50","bc01a2b6f61d06f6604adb8657495020","47.215.222.215","Mozilla/5.0 (Windows NT 10.0; Win64; x64; rv:134.0) Gecko/20100101 Firefox/134.0","","Firefox","134.0","Windows","10.0","https://app.prolific.com/","en-US,en;q=0.5","64012a2623351894f2917605","679edb085803f58d6bbd31ca","679ef83a0a4cffc510bd071a","","1047","","3","Intro Trial","",""
"","","","","","html-button-response","8","444484","0.0-4.4-0.4-0.4","44","1","2025-02-02 04:44:50","bc01a2b6f61d06f6604adb8657495020","47.215.222.215","Mozilla/5.0 (Windows NT 10.0; Win64; x64; rv:134.0) Gecko/20100101 Firefox/134.0","","Firefox","134.0","Windows","10.0","https://app.prolific.com/","en-US,en;q=0.5","64012a2623351894f2917605","679edb085803f58d6bbd31ca","679ef83a0a4cffc510bd071a","","522","","1","Intro Trial","",""
"","","","","","html-button-response","9","447506","0.0-4.5-0.5-0.5","44","1","2025-02-02 04:44:50","bc01a2b6f61d06f6604adb8657495020","47.215.222.215","Mozilla/5.0 (Windows NT 10.0; Win64; x64; rv:134.0) Gecko/20100101 Firefox/134.0","","Firefox","134.0","Windows","10.0","https://app.prolific.com/","en-US,en;q=0.5","64012a2623351894f2917605","679edb085803f58d6bbd31ca","679ef83a0a4cffc510bd071a","","3020","","2","Intro Trial","",""
"","","","","","html-button-response","10","447998","0.0-4.6-0.6-0.6","44","1","2025-02-02 04:44:50","bc01a2b6f61d06f6604adb8657495020","47.215.222.215","Mozilla/5.0 (Windows NT 10.0; Win64; x64; rv:134.0) Gecko/20100101 Firefox/134.0","","Firefox","134.0","Windows","10.0","https://app.prolific.com/","en-US,en;q=0.5","64012a2623351894f2917605","679edb085803f58d6bbd31ca","679ef83a0a4cffc510bd071a","","489","","5","Intro Trial","",""
"","","","","","html-keyboard-response","11","485785","0.0-5.0","44","1","2025-02-02 04:44:50","bc01a2b6f61d06f6604adb8657495020","47.215.222.215","Mozilla/5.0 (Windows NT 10.0; Win64; x64; rv:134.0) Gecko/20100101 Firefox/134.0","","Firefox","134.0","Windows","10.0","https://app.prolific.com/","en-US,en;q=0.5","64012a2623351894f2917605","679edb085803f58d6bbd31ca","679ef83a0a4cffc510bd071a","","37785","[""You sorted incorrectly by using the balance 2 times. <br><br> <img src='G_1.jpg' height='90'><img src='G_2.jpg' height='90'><img src='G_3.jpg' height='90'><img src='G_4.jpg' height='90'><img src='G_5.jpg' height='90'><br><br> Your final order is 4,2,3,5,1<br><br><br>Omgne Sort in this game will allow you to sort correctly by using the balance 8 times. Press Enter to learn it!""]","enter","","",""
"","","","","","html-keyboard-response","12","506967","0.0-6.0","44","1","2025-02-02 04:44:50","bc01a2b6f61d06f6604adb8657495020","47.215.222.215","Mozilla/5.0 (Windows NT 10.0; Win64; x64; rv:134.0) Gecko/20100101 Firefox/134.0","","Firefox","134.0","Windows","10.0","https://app.prolific.com/","en-US,en;q=0.5","64012a2623351894f2917605","679edb085803f58d6bbd31ca","679ef83a0a4cffc510bd071a","","21180","<p>Welcome to the learning phase! <br><br> You will learn by six examples. The following learning trials will not be used to calculate your performance. <br><br> Press Enter to continue.<p/>","enter","","",""
"","","","","","html-keyboard-response","13","735400","0.0-7.0","44","1","2025-02-02 04:44:50","bc01a2b6f61d06f6604adb8657495020","47.215.222.215","Mozilla/5.0 (Windows NT 10.0; Win64; x64; rv:134.0) Gecko/20100101 Firefox/134.0","","Firefox","134.0","Windows","10.0","https://app.prolific.com/","en-US,en;q=0.5","64012a2623351894f2917605","679edb085803f58d6bbd31ca","679ef83a0a4cffc510bd071a","","228430","[""Example 1<br><br>You will watch Omnge Sort in action. Try to identify any patterns in the comparisons made by this method. <br><br>Press Enter to continue.""]","enter","","",""
"","","","","","html-keyboard-response","14","735906","0.0-8.0","44","1","2025-02-02 04:44:50","bc01a2b6f61d06f6604adb8657495020","47.215.222.215","Mozilla/5.0 (Windows NT 10.0; Win64; x64; rv:134.0) Gecko/20100101 Firefox/134.0","","Firefox","134.0","Windows","10.0","https://app.prolific.com/","en-US,en;q=0.5","64012a2623351894f2917605","679edb085803f58d6bbd31ca","679ef83a0a4cffc510bd071a","","null","<img id='selected' src='G_9.jpg' height='90'> <img src='G_5.jpg' height='90'> <img src='G_3.jpg' height='90'> <img src='G_7.jpg' height='90'> <img src='G_1.jpg' height='90'>","null","Animation0","",""
"","","","","","html-keyboard-response","15","736415","0.0-9.0","44","1","2025-02-02 04:44:50","bc01a2b6f61d06f6604adb8657495020","47.215.222.215","Mozilla/5.0 (Windows NT 10.0; Win64; x64; rv:134.0) Gecko/20100101 Firefox/134.0","","Firefox","134.0","Windows","10.0","https://app.prolific.com/","en-US,en;q=0.5","64012a2623351894f2917605","679edb085803f58d6bbd31ca","679ef83a0a4cffc510bd071a","","null","<img id='selected' src='G_9.jpg' height='90'> <img id='selected' src='G_5.jpg' height='90'> <img src='G_3.jpg' height='90'> <img src='G_7.jpg' height='90'> <img src='G_1.jpg' height='90'>","null","Animation0","",""
"","","","","","html-keyboard-response","16","736929","0.0-10.0","44","1","2025-02-02 04:44:50","bc01a2b6f61d06f6604adb8657495020","47.215.222.215","Mozilla/5.0 (Windows NT 10.0; Win64; x64; rv:134.0) Gecko/20100101 Firefox/134.0","","Firefox","134.0","Windows","10.0","https://app.prolific.com/","en-US,en;q=0.5","64012a2623351894f2917605","679edb085803f58d6bbd31ca","679ef83a0a4cffc510bd071a","","null","<img id='swapped' src='G_5.jpg' height='90'> <img id='swapped' src='G_9.jpg' height='90'> <img src='G_3.jpg' height='90'> <img src='G_7.jpg' height='90'> <img src='G_1.jpg' height='90'>","null","Animation0","",""
"","","","","","html-keyboard-response","17","737231","0.0-11.0","44","1","2025-02-02 04:44:50","bc01a2b6f61d06f6604adb8657495020","47.215.222.215","Mozilla/5.0 (Windows NT 10.0; Win64; x64; rv:134.0) Gecko/20100101 Firefox/134.0","","Firefox","134.0","Windows","10.0","https://app.prolific.com/","en-US,en;q=0.5","64012a2623351894f2917605","679edb085803f58d6bbd31ca","679ef83a0a4cffc510bd071a","","null","<img  src='G_5.jpg' height='90'> <img  src='G_9.jpg' height='90'> <img src='G_3.jpg' height='90'> <img src='G_7.jpg' height='90'> <img src='G_1.jpg' height='90'>","null","Animation0","",""
"","","","","","html-keyboard-response","18","737737","0.0-12.0","44","1","2025-02-02 04:44:50","bc01a2b6f61d06f6604adb8657495020","47.215.222.215","Mozilla/5.0 (Windows NT 10.0; Win64; x64; rv:134.0) Gecko/20100101 Firefox/134.0","","Firefox","134.0","Windows","10.0","https://app.prolific.com/","en-US,en;q=0.5","64012a2623351894f2917605","679edb085803f58d6bbd31ca","679ef83a0a4cffc510bd071a","","null","<img  src='G_5.jpg' height='90'> <img id='selected'  src='G_9.jpg' height='90'> <img src='G_3.jpg' height='90'> <img src='G_7.jpg' height='90'> <img src='G_1.jpg' height='90'>","null","Animation0","",""
"","","","","","html-keyboard-response","19","738246","0.0-13.0","44","1","2025-02-02 04:44:50","bc01a2b6f61d06f6604adb8657495020","47.215.222.215","Mozilla/5.0 (Windows NT 10.0; Win64; x64; rv:134.0) Gecko/20100101 Firefox/134.0","","Firefox","134.0","Windows","10.0","https://app.prolific.com/","en-US,en;q=0.5","64012a2623351894f2917605","679edb085803f58d6bbd31ca","679ef83a0a4cffc510bd071a","","null","<img  src='G_5.jpg' height='90'> <img id='selected'  src='G_9.jpg' height='90'> <img id='selected' src='G_3.jpg' height='90'> <img src='G_7.jpg' height='90'> <img src='G_1.jpg' height='90'>","null","Animation0","",""
"","","","","","html-keyboard-response","20","738760","0.0-14.0","44","1","2025-02-02 04:44:50","bc01a2b6f61d06f6604adb8657495020","47.215.222.215","Mozilla/5.0 (Windows NT 10.0; Win64; x64; rv:134.0) Gecko/20100101 Firefox/134.0","","Firefox","134.0","Windows","10.0","https://app.prolific.com/","en-US,en;q=0.5","64012a2623351894f2917605","679edb085803f58d6bbd31ca","679ef83a0a4cffc510bd071a","","null","<img  src='G_5.jpg' height='90'> <img id='selected'  src='G_9.jpg' height='90'> <img id='selected' src='G_3.jpg' height='90'> <img src='G_7.jpg' height='90'> <img src='G_1.jpg' height='90'>","null","Animation0","",""
"","","","","","html-keyboard-response","21","739068","0.0-15.0","44","1","2025-02-02 04:44:50","bc01a2b6f61d06f6604adb8657495020","47.215.222.215","Mozilla/5.0 (Windows NT 10.0; Win64; x64; rv:134.0) Gecko/20100101 Firefox/134.0","","Firefox","134.0","Windows","10.0","https://app.prolific.com/","en-US,en;q=0.5","64012a2623351894f2917605","679edb085803f58d6bbd31ca","679ef83a0a4cffc510bd071a","","null","<img  src='G_5.jpg' height='90'> <img   src='G_9.jpg' height='90'> <img  src='G_3.jpg' height='90'> <img src='G_7.jpg' height='90'> <img src='G_1.jpg' height='90'>","null","Animation0","",""
"","","","","","html-keyboard-response","22","739578","0.0-16.0","44","1","2025-02-02 04:44:50","bc01a2b6f61d06f6604adb8657495020","47.215.222.215","Mozilla/5.0 (Windows NT 10.0; Win64; x64; rv:134.0) Gecko/20100101 Firefox/134.0","","Firefox","134.0","Windows","10.0","https://app.prolific.com/","en-US,en;q=0.5","64012a2623351894f2917605","679edb085803f58d6bbd31ca","679ef83a0a4cffc510bd071a","","null","<img  src='G_5.jpg' height='90'> <img   src='G_9.jpg' height='90'> <img id='selected'  src='G_3.jpg' height='90'> <img src='G_7.jpg' height='90'> <img src='G_1.jpg' height='90'>","null","Animation0","",""
"","","","","","html-keyboard-response","23","740088","0.0-17.0","44","1","2025-02-02 04:44:50","bc01a2b6f61d06f6604adb8657495020","47.215.222.215","Mozilla/5.0 (Windows NT 10.0; Win64; x64; rv:134.0) Gecko/20100101 Firefox/134.0","","Firefox","134.0","Windows","10.0","https://app.prolific.com/","en-US,en;q=0.5","64012a2623351894f2917605","679edb085803f58d6bbd31ca","679ef83a0a4cffc510bd071a","","null","<img  src='G_5.jpg' height='90'> <img   src='G_9.jpg' height='90'> <img id='selected'  src='G_3.jpg' height='90'> <img id='selected' src='G_7.jpg' height='90'> <img src='G_1.jpg' height='90'>","null","Animation0","",""
"","","","","","html-keyboard-response","24","740598","0.0-18.0","44","1","2025-02-02 04:44:50","bc01a2b6f61d06f6604adb8657495020","47.215.222.215","Mozilla/5.0 (Windows NT 10.0; Win64; x64; rv:134.0) Gecko/20100101 Firefox/134.0","","Firefox","134.0","Windows","10.0","https://app.prolific.com/","en-US,en;q=0.5","64012a2623351894f2917605","679edb085803f58d6bbd31ca","679ef83a0a4cffc510bd071a","","null","<img  src='G_5.jpg' height='90'> <img   src='G_9.jpg' height='90'> <img id='selected'  src='G_3.jpg' height='90'> <img id='selected' src='G_7.jpg' height='90'> <img src='G_1.jpg' height='90'>","null","Animation0","",""
"","","","","","html-keyboard-response","25","740907","0.0-19.0","44","1","2025-02-02 04:44:50","bc01a2b6f61d06f6604adb8657495020","47.215.222.215","Mozilla/5.0 (Windows NT 10.0; Win64; x64; rv:134.0) Gecko/20100101 Firefox/134.0","","Firefox","134.0","Windows","10.0","https://app.prolific.com/","en-US,en;q=0.5","64012a2623351894f2917605","679edb085803f58d6bbd31ca","679ef83a0a4cffc510bd071a","","null","<img  src='G_5.jpg' height='90'> <img   src='G_9.jpg' height='90'> <img   src='G_3.jpg' height='90'> <img  src='G_7.jpg' height='90'> <img src='G_1.jpg' height='90'>","null","Animation0","",""
"","","","","","html-keyboard-response","26","741420","0.0-20.0","44","1","2025-02-02 04:44:50","bc01a2b6f61d06f6604adb8657495020","47.215.222.215","Mozilla/5.0 (Windows NT 10.0; Win64; x64; rv:134.0) Gecko/20100101 Firefox/134.0","","Firefox","134.0","Windows","10.0","https://app.prolific.com/","en-US,en;q=0.5","64012a2623351894f2917605","679edb085803f58d6bbd31ca","679ef83a0a4cffc510bd071a","","null","<img  src='G_5.jpg' height='90'> <img   src='G_9.jpg' height='90'> <img   src='G_3.jpg' height='90'> <img id='selected'  src='G_7.jpg' height='90'> <img src='G_1.jpg' height='90'>","null","Animation0","",""
"","","","","","html-keyboard-response","27","741932","0.0-21.0","44","1","2025-02-02 04:44:50","bc01a2b6f61d06f6604adb8657495020","47.215.222.215","Mozilla/5.0 (Windows NT 10.0; Win64; x64; rv:134.0) Gecko/20100101 Firefox/134.0","","Firefox","134.0","Windows","10.0","https://app.prolific.com/","en-US,en;q=0.5","64012a2623351894f2917605","679edb085803f58d6bbd31ca","679ef83a0a4cffc510bd071a","","null","<img  src='G_5.jpg' height='90'> <img   src='G_9.jpg' height='90'> <img   src='G_3.jpg' height='90'> <img id='selected'  src='G_7.jpg' height='90'> <img id='selected' src='G_1.jpg' height='90'>","null","Animation0","",""
"","","","","","html-keyboard-response","28","742440","0.0-22.0","44","1","2025-02-02 04:44:50","bc01a2b6f61d06f6604adb8657495020","47.215.222.215","Mozilla/5.0 (Windows NT 10.0; Win64; x64; rv:134.0) Gecko/20100101 Firefox/134.0","","Firefox","134.0","Windows","10.0","https://app.prolific.com/","en-US,en;q=0.5","64012a2623351894f2917605","679edb085803f58d6bbd31ca","679ef83a0a4cffc510bd071a","","null","<img  src='G_5.jpg' height='90'> <img   src='G_9.jpg' height='90'> <img   src='G_3.jpg' height='90'> <img id='selected'  src='G_7.jpg' height='90'> <img id='selected' src='G_1.jpg' height='90'>","null","Animation0","",""
"","","","","","html-keyboard-response","29","742750","0.0-23.0","44","1","2025-02-02 04:44:50","bc01a2b6f61d06f6604adb8657495020","47.215.222.215","Mozilla/5.0 (Windows NT 10.0; Win64; x64; rv:134.0) Gecko/20100101 Firefox/134.0","","Firefox","134.0","Windows","10.0","https://app.prolific.com/","en-US,en;q=0.5","64012a2623351894f2917605","679edb085803f58d6bbd31ca","679ef83a0a4cffc510bd071a","","null","<img  src='G_5.jpg' height='90'> <img   src='G_9.jpg' height='90'> <img   src='G_3.jpg' height='90'> <img   src='G_7.jpg' height='90'> <img  src='G_1.jpg' height='90'>","null","Animation0","",""
"","","","","","html-keyboard-response","30","745500","0.0-24.0","44","1","2025-02-02 04:44:50","bc01a2b6f61d06f6604adb8657495020","47.215.222.215","Mozilla/5.0 (Windows NT 10.0; Win64; x64; rv:134.0) Gecko/20100101 Firefox/134.0","","Firefox","134.0","Windows","10.0","https://app.prolific.com/","en-US,en;q=0.5","64012a2623351894f2917605","679edb085803f58d6bbd31ca","679ef83a0a4cffc510bd071a","","2749","[""Did you notice any patterns? <br><br>Press Enter to watch that example again and follow the steps of Omgne Sort.""]","enter","","",""
"","","","","","html-button-response","31","745903","0.0-25.0","44","1","2025-02-02 04:44:50","bc01a2b6f61d06f6604adb8657495020","47.215.222.215","Mozilla/5.0 (Windows NT 10.0; Win64; x64; rv:134.0) Gecko/20100101 Firefox/134.0","","Firefox","134.0","Windows","10.0","https://app.prolific.com/","en-US,en;q=0.5","64012a2623351894f2917605","679edb085803f58d6bbd31ca","679ef83a0a4cffc510bd071a","","null","<img id='selected' src='G_9.jpg' height='90'> <img src='G_5.jpg' height='90'> <img src='G_3.jpg' height='90'> <img src='G_7.jpg' height='90'> <img src='G_1.jpg' height='90'>","null","Learning example 0","",""
"","","","","","html-button-response","32","746214","0.0-26.0","44","1","2025-02-02 04:44:50","bc01a2b6f61d06f6604adb8657495020","47.215.222.215","Mozilla/5.0 (Windows NT 10.0; Win64; x64; rv:134.0) Gecko/20100101 Firefox/134.0","","Firefox","134.0","Windows","10.0","https://app.prolific.com/","en-US,en;q=0.5","64012a2623351894f2917605","679edb085803f58d6bbd31ca","679ef83a0a4cffc510bd071a","","null","<img id='selected' src='G_9.jpg' height='90'> <img id='selected' src='G_5.jpg' height='90'> <img src='G_3.jpg' height='90'> <img src='G_7.jpg' height='90'> <img src='G_1.jpg' height='90'>","null","Learning example 0","",""
"","","","","","html-button-response","33","746522","0.0-27.0","44","1","2025-02-02 04:44:50","bc01a2b6f61d06f6604adb8657495020","47.215.222.215","Mozilla/5.0 (Windows NT 10.0; Win64; x64; rv:134.0) Gecko/20100101 Firefox/134.0","","Firefox","134.0","Windows","10.0","https://app.prolific.com/","en-US,en;q=0.5","64012a2623351894f2917605","679edb085803f58d6bbd31ca","679ef83a0a4cffc510bd071a","","null","<img id='swapped' src='G_5.jpg' height='90'> <img id='swapped' src='G_9.jpg' height='90'> <img src='G_3.jpg' height='90'> <img src='G_7.jpg' height='90'> <img src='G_1.jpg' height='90'>","null","Learning example 0","",""
"","","","","","html-button-response","34","788246","0.0-28.0-0.0-0.0","44","1","2025-02-02 04:44:50","bc01a2b6f61d06f6604adb8657495020","47.215.222.215","Mozilla/5.0 (Windows NT 10.0; Win64; x64; rv:134.0) Gecko/20100101 Firefox/134.0","","Firefox","134.0","Windows","10.0","https://app.prolific.com/","en-US,en;q=0.5","64012a2623351894f2917605","679edb085803f58d6bbd31ca","679ef83a0a4cffc510bd071a","","41723","<img id='swapped' src='G_5.jpg' height='90'> <img id='swapped' src='G_9.jpg' height='90'> <img src='G_3.jpg' height='90'> <img src='G_7.jpg' height='90'> <img src='G_1.jpg' height='90'>","1","Learning example 0","",""
"","","","","","html-button-response","35","789079","0.0-28.1-0.1-0.1","44","1","2025-02-02 04:44:50","bc01a2b6f61d06f6604adb8657495020","47.215.222.215","Mozilla/5.0 (Windows NT 10.0; Win64; x64; rv:134.0) Gecko/20100101 Firefox/134.0","","Firefox","134.0","Windows","10.0","https://app.prolific.com/","en-US,en;q=0.5","64012a2623351894f2917605","679edb085803f58d6bbd31ca","679ef83a0a4cffc510bd071a","","830","<img id='swapped' src='G_5.jpg' height='90'> <img id='swapped' src='G_9.jpg' height='90'> <img src='G_3.jpg' height='90'> <img src='G_7.jpg' height='90'> <img src='G_1.jpg' height='90'>","0","Learning example 0","",""
"","","","","","html-button-response","36","789288","0.0-29.0","44","1","2025-02-02 04:44:50","bc01a2b6f61d06f6604adb8657495020","47.215.222.215","Mozilla/5.0 (Windows NT 10.0; Win64; x64; rv:134.0) Gecko/20100101 Firefox/134.0","","Firefox","134.0","Windows","10.0","https://app.prolific.com/","en-US,en;q=0.5","64012a2623351894f2917605","679edb085803f58d6bbd31ca","679ef83a0a4cffc510bd071a","","null","<img  src='G_5.jpg' height='90'> <img  src='G_9.jpg' height='90'> <img src='G_3.jpg' height='90'> <img src='G_7.jpg' height='90'> <img src='G_1.jpg' height='90'>","null","Learning example 0","",""
"","","","","","html-button-response","37","789691","0.0-30.0","44","1","2025-02-02 04:44:50","bc01a2b6f61d06f6604adb8657495020","47.215.222.215","Mozilla/5.0 (Windows NT 10.0; Win64; x64; rv:134.0) Gecko/20100101 Firefox/134.0","","Firefox","134.0","Windows","10.0","https://app.prolific.com/","en-US,en;q=0.5","64012a2623351894f2917605","679edb085803f58d6bbd31ca","679ef83a0a4cffc510bd071a","","null","<img  src='G_5.jpg' height='90'> <img id='selected'  src='G_9.jpg' height='90'> <img src='G_3.jpg' height='90'> <img src='G_7.jpg' height='90'> <img src='G_1.jpg' height='90'>","null","Learning example 0","",""
"","","","","","html-button-response","38","790001","0.0-31.0","44","1","2025-02-02 04:44:50","bc01a2b6f61d06f6604adb8657495020","47.215.222.215","Mozilla/5.0 (Windows NT 10.0; Win64; x64; rv:134.0) Gecko/20100101 Firefox/134.0","","Firefox","134.0","Windows","10.0","https://app.prolific.com/","en-US,en;q=0.5","64012a2623351894f2917605","679edb085803f58d6bbd31ca","679ef83a0a4cffc510bd071a","","null","<img  src='G_5.jpg' height='90'> <img id='selected'  src='G_9.jpg' height='90'> <img id='selected' src='G_3.jpg' height='90'> <img src='G_7.jpg' height='90'> <img src='G_1.jpg' height='90'>","null","Learning example 0","",""
"","","","","","html-button-response","39","790312","0.0-32.0","44","1","2025-02-02 04:44:50","bc01a2b6f61d06f6604adb8657495020","47.215.222.215","Mozilla/5.0 (Windows NT 10.0; Win64; x64; rv:134.0) Gecko/20100101 Firefox/134.0","","Firefox","134.0","Windows","10.0","https://app.prolific.com/","en-US,en;q=0.5","64012a2623351894f2917605","679edb085803f58d6bbd31ca","679ef83a0a4cffc510bd071a","","null","<img  src='G_5.jpg' height='90'> <img id='selected'  src='G_9.jpg' height='90'> <img id='selected' src='G_3.jpg' height='90'> <img src='G_7.jpg' height='90'> <img src='G_1.jpg' height='90'>","null","Learning example 0","",""
"","","","","","html-button-response","40","797373","0.0-33.0-0.0-0.0","44","1","2025-02-02 04:44:50","bc01a2b6f61d06f6604adb8657495020","47.215.222.215","Mozilla/5.0 (Windows NT 10.0; Win64; x64; rv:134.0) Gecko/20100101 Firefox/134.0","","Firefox","134.0","Windows","10.0","https://app.prolific.com/","en-US,en;q=0.5","64012a2623351894f2917605","679edb085803f58d6bbd31ca","679ef83a0a4cffc510bd071a","","7058","<img  src='G_5.jpg' height='90'> <img id='selected'  src='G_9.jpg' height='90'> <img id='selected' src='G_3.jpg' height='90'> <img src='G_7.jpg' height='90'> <img src='G_1.jpg' height='90'>","4","Learning example 0","",""
"","","","","","html-button-response","41","797853","0.0-33.1-0.1-0.1","44","1","2025-02-02 04:44:50","bc01a2b6f61d06f6604adb8657495020","47.215.222.215","Mozilla/5.0 (Windows NT 10.0; Win64; x64; rv:134.0) Gecko/20100101 Firefox/134.0","","Firefox","134.0","Windows","10.0","https://app.prolific.com/","en-US,en;q=0.5","64012a2623351894f2917605","679edb085803f58d6bbd31ca","679ef83a0a4cffc510bd071a","","477","<img  src='G_5.jpg' height='90'> <img id='selected'  src='G_9.jpg' height='90'> <img id='selected' src='G_3.jpg' height='90'> <img src='G_7.jpg' height='90'> <img src='G_1.jpg' height='90'>","3","Learning example 0","",""
"","","","","","html-button-response","42","798319","0.0-33.2-0.2-0.2","44","1","2025-02-02 04:44:50","bc01a2b6f61d06f6604adb8657495020","47.215.222.215","Mozilla/5.0 (Windows NT 10.0; Win64; x64; rv:134.0) Gecko/20100101 Firefox/134.0","","Firefox","134.0","Windows","10.0","https://app.prolific.com/","en-US,en;q=0.5","64012a2623351894f2917605","679edb085803f58d6bbd31ca","679ef83a0a4cffc510bd071a","","464","<img  src='G_5.jpg' height='90'> <img id='selected'  src='G_9.jpg' height='90'> <img id='selected' src='G_3.jpg' height='90'> <img src='G_7.jpg' height='90'> <img src='G_1.jpg' height='90'>","4","Learning example 0","",""
"","","","","","html-button-response","43","798737","0.0-33.3-0.3-0.3","44","1","2025-02-02 04:44:50","bc01a2b6f61d06f6604adb8657495020","47.215.222.215","Mozilla/5.0 (Windows NT 10.0; Win64; x64; rv:134.0) Gecko/20100101 Firefox/134.0","","Firefox","134.0","Windows","10.0","https://app.prolific.com/","en-US,en;q=0.5","64012a2623351894f2917605","679edb085803f58d6bbd31ca","679ef83a0a4cffc510bd071a","","414","<img  src='G_5.jpg' height='90'> <img id='selected'  src='G_9.jpg' height='90'> <img id='selected' src='G_3.jpg' height='90'> <img src='G_7.jpg' height='90'> <img src='G_1.jpg' height='90'>","3","Learning example 0","",""
"","","","","","html-button-response","44","804270","0.0-33.4-0.4-0.4","44","1","2025-02-02 04:44:50","bc01a2b6f61d06f6604adb8657495020","47.215.222.215","Mozilla/5.0 (Windows NT 10.0; Win64; x64; rv:134.0) Gecko/20100101 Firefox/134.0","","Firefox","134.0","Windows","10.0","https://app.prolific.com/","en-US,en;q=0.5","64012a2623351894f2917605","679edb085803f58d6bbd31ca","679ef83a0a4cffc510bd071a","","5530","<img  src='G_5.jpg' height='90'> <img id='selected'  src='G_9.jpg' height='90'> <img id='selected' src='G_3.jpg' height='90'> <img src='G_7.jpg' height='90'> <img src='G_1.jpg' height='90'>","1","Learning example 0","",""
"","","","","","html-button-response","45","804787","0.0-33.5-0.5-0.5","44","1","2025-02-02 04:44:50","bc01a2b6f61d06f6604adb8657495020","47.215.222.215","Mozilla/5.0 (Windows NT 10.0; Win64; x64; rv:134.0) Gecko/20100101 Firefox/134.0","","Firefox","134.0","Windows","10.0","https://app.prolific.com/","en-US,en;q=0.5","64012a2623351894f2917605","679edb085803f58d6bbd31ca","679ef83a0a4cffc510bd071a","","514","<img  src='G_5.jpg' height='90'> <img id='selected'  src='G_9.jpg' height='90'> <img id='selected' src='G_3.jpg' height='90'> <img src='G_7.jpg' height='90'> <img src='G_1.jpg' height='90'>","0","Learning example 0","",""
"","","","","","html-button-response","46","805262","0.0-33.6-0.6-0.6","44","1","2025-02-02 04:44:50","bc01a2b6f61d06f6604adb8657495020","47.215.222.215","Mozilla/5.0 (Windows NT 10.0; Win64; x64; rv:134.0) Gecko/20100101 Firefox/134.0","","Firefox","134.0","Windows","10.0","https://app.prolific.com/","en-US,en;q=0.5","64012a2623351894f2917605","679edb085803f58d6bbd31ca","679ef83a0a4cffc510bd071a","","473","<img  src='G_5.jpg' height='90'> <img id='selected'  src='G_9.jpg' height='90'> <img id='selected' src='G_3.jpg' height='90'> <img src='G_7.jpg' height='90'> <img src='G_1.jpg' height='90'>","1","Learning example 0","",""
"","","","","","html-button-response","47","805634","0.0-33.7-0.7-0.7","44","1","2025-02-02 04:44:50","bc01a2b6f61d06f6604adb8657495020","47.215.222.215","Mozilla/5.0 (Windows NT 10.0; Win64; x64; rv:134.0) Gecko/20100101 Firefox/134.0","","Firefox","134.0","Windows","10.0","https://app.prolific.com/","en-US,en;q=0.5","64012a2623351894f2917605","679edb085803f58d6bbd31ca","679ef83a0a4cffc510bd071a","","368","<img  src='G_5.jpg' height='90'> <img id='selected'  src='G_9.jpg' height='90'> <img id='selected' src='G_3.jpg' height='90'> <img src='G_7.jpg' height='90'> <img src='G_1.jpg' height='90'>","2","Learning example 0","",""
"","","","","","html-button-response","48","805840","0.0-34.0","44","1","2025-02-02 04:44:50","bc01a2b6f61d06f6604adb8657495020","47.215.222.215","Mozilla/5.0 (Windows NT 10.0; Win64; x64; rv:134.0) Gecko/20100101 Firefox/134.0","","Firefox","134.0","Windows","10.0","https://app.prolific.com/","en-US,en;q=0.5","64012a2623351894f2917605","679edb085803f58d6bbd31ca","679ef83a0a4cffc510bd071a","","null","<img  src='G_5.jpg' height='90'> <img   src='G_9.jpg' height='90'> <img  src='G_3.jpg' height='90'> <img src='G_7.jpg' height='90'> <img src='G_1.jpg' height='90'>","null","Learning example 0","",""
"","","","","","html-button-response","49","806256","0.0-35.0","44","1","2025-02-02 04:44:50","bc01a2b6f61d06f6604adb8657495020","47.215.222.215","Mozilla/5.0 (Windows NT 10.0; Win64; x64; rv:134.0) Gecko/20100101 Firefox/134.0","","Firefox","134.0","Windows","10.0","https://app.prolific.com/","en-US,en;q=0.5","64012a2623351894f2917605","679edb085803f58d6bbd31ca","679ef83a0a4cffc510bd071a","","null","<img  src='G_5.jpg' height='90'> <img   src='G_9.jpg' height='90'> <img id='selected'  src='G_3.jpg' height='90'> <img src='G_7.jpg' height='90'> <img src='G_1.jpg' height='90'>","null","Learning example 0","",""
"","","","","","html-button-response","50","806566","0.0-36.0","44","1","2025-02-02 04:44:50","bc01a2b6f61d06f6604adb8657495020","47.215.222.215","Mozilla/5.0 (Windows NT 10.0; Win64; x64; rv:134.0) Gecko/20100101 Firefox/134.0","","Firefox","134.0","Windows","10.0","https://app.prolific.com/","en-US,en;q=0.5","64012a2623351894f2917605","679edb085803f58d6bbd31ca","679ef83a0a4cffc510bd071a","","null","<img  src='G_5.jpg' height='90'> <img   src='G_9.jpg' height='90'> <img id='selected'  src='G_3.jpg' height='90'> <img id='selected' src='G_7.jpg' height='90'> <img src='G_1.jpg' height='90'>","null","Learning example 0","",""
"","","","","","html-button-response","51","806875","0.0-37.0","44","1","2025-02-02 04:44:50","bc01a2b6f61d06f6604adb8657495020","47.215.222.215","Mozilla/5.0 (Windows NT 10.0; Win64; x64; rv:134.0) Gecko/20100101 Firefox/134.0","","Firefox","134.0","Windows","10.0","https://app.prolific.com/","en-US,en;q=0.5","64012a2623351894f2917605","679edb085803f58d6bbd31ca","679ef83a0a4cffc510bd071a","","null","<img  src='G_5.jpg' height='90'> <img   src='G_9.jpg' height='90'> <img id='selected'  src='G_3.jpg' height='90'> <img id='selected' src='G_7.jpg' height='90'> <img src='G_1.jpg' height='90'>","null","Learning example 0","",""
"","","","","","html-button-response","52","808485","0.0-38.0-0.0-0.0","44","1","2025-02-02 04:44:50","bc01a2b6f61d06f6604adb8657495020","47.215.222.215","Mozilla/5.0 (Windows NT 10.0; Win64; x64; rv:134.0) Gecko/20100101 Firefox/134.0","","Firefox","134.0","Windows","10.0","https://app.prolific.com/","en-US,en;q=0.5","64012a2623351894f2917605","679edb085803f58d6bbd31ca","679ef83a0a4cffc510bd071a","","1607","<img  src='G_5.jpg' height='90'> <img   src='G_9.jpg' height='90'> <img id='selected'  src='G_3.jpg' height='90'> <img id='selected' src='G_7.jpg' height='90'> <img src='G_1.jpg' height='90'>","2","Learning example 0","",""
"","","","","","html-button-response","53","808887","0.0-38.1-0.1-0.1","44","1","2025-02-02 04:44:50","bc01a2b6f61d06f6604adb8657495020","47.215.222.215","Mozilla/5.0 (Windows NT 10.0; Win64; x64; rv:134.0) Gecko/20100101 Firefox/134.0","","Firefox","134.0","Windows","10.0","https://app.prolific.com/","en-US,en;q=0.5","64012a2623351894f2917605","679edb085803f58d6bbd31ca","679ef83a0a4cffc510bd071a","","398","<img  src='G_5.jpg' height='90'> <img   src='G_9.jpg' height='90'> <img id='selected'  src='G_3.jpg' height='90'> <img id='selected' src='G_7.jpg' height='90'> <img src='G_1.jpg' height='90'>","3","Learning example 0","",""
"","","","","","html-button-response","54","809093","0.0-39.0","44","1","2025-02-02 04:44:50","bc01a2b6f61d06f6604adb8657495020","47.215.222.215","Mozilla/5.0 (Windows NT 10.0; Win64; x64; rv:134.0) Gecko/20100101 Firefox/134.0","","Firefox","134.0","Windows","10.0","https://app.prolific.com/","en-US,en;q=0.5","64012a2623351894f2917605","679edb085803f58d6bbd31ca","679ef83a0a4cffc510bd071a","","null","<img  src='G_5.jpg' height='90'> <img   src='G_9.jpg' height='90'> <img   src='G_3.jpg' height='90'> <img  src='G_7.jpg' height='90'> <img src='G_1.jpg' height='90'>","null","Learning example 0","",""
"","","","","","html-button-response","55","809511","0.0-40.0","44","1","2025-02-02 04:44:50","bc01a2b6f61d06f6604adb8657495020","47.215.222.215","Mozilla/5.0 (Windows NT 10.0; Win64; x64; rv:134.0) Gecko/20100101 Firefox/134.0","","Firefox","134.0","Windows","10.0","https://app.prolific.com/","en-US,en;q=0.5","64012a2623351894f2917605","679edb085803f58d6bbd31ca","679ef83a0a4cffc510bd071a","","null","<img  src='G_5.jpg' height='90'> <img   src='G_9.jpg' height='90'> <img   src='G_3.jpg' height='90'> <img id='selected'  src='G_7.jpg' height='90'> <img src='G_1.jpg' height='90'>","null","Learning example 0","",""
"","","","","","html-button-response","56","809816","0.0-41.0","44","1","2025-02-02 04:44:50","bc01a2b6f61d06f6604adb8657495020","47.215.222.215","Mozilla/5.0 (Windows NT 10.0; Win64; x64; rv:134.0) Gecko/20100101 Firefox/134.0","","Firefox","134.0","Windows","10.0","https://app.prolific.com/","en-US,en;q=0.5","64012a2623351894f2917605","679edb085803f58d6bbd31ca","679ef83a0a4cffc510bd071a","","null","<img  src='G_5.jpg' height='90'> <img   src='G_9.jpg' height='90'> <img   src='G_3.jpg' height='90'> <img id='selected'  src='G_7.jpg' height='90'> <img id='selected' src='G_1.jpg' height='90'>","null","Learning example 0","",""
"","","","","","html-button-response","57","810126","0.0-42.0","44","1","2025-02-02 04:44:50","bc01a2b6f61d06f6604adb8657495020","47.215.222.215","Mozilla/5.0 (Windows NT 10.0; Win64; x64; rv:134.0) Gecko/20100101 Firefox/134.0","","Firefox","134.0","Windows","10.0","https://app.prolific.com/","en-US,en;q=0.5","64012a2623351894f2917605","679edb085803f58d6bbd31ca","679ef83a0a4cffc510bd071a","","null","<img  src='G_5.jpg' height='90'> <img   src='G_9.jpg' height='90'> <img   src='G_3.jpg' height='90'> <img id='selected'  src='G_7.jpg' height='90'> <img id='selected' src='G_1.jpg' height='90'>","null","Learning example 0","",""
"","","","","","html-button-response","58","811163","0.0-43.0-0.0-0.0","44","1","2025-02-02 04:44:50","bc01a2b6f61d06f6604adb8657495020","47.215.222.215","Mozilla/5.0 (Windows NT 10.0; Win64; x64; rv:134.0) Gecko/20100101 Firefox/134.0","","Firefox","134.0","Windows","10.0","https://app.prolific.com/","en-US,en;q=0.5","64012a2623351894f2917605","679edb085803f58d6bbd31ca","679ef83a0a4cffc510bd071a","","1034","<img  src='G_5.jpg' height='90'> <img   src='G_9.jpg' height='90'> <img   src='G_3.jpg' height='90'> <img id='selected'  src='G_7.jpg' height='90'> <img id='selected' src='G_1.jpg' height='90'>","3","Learning example 0","",""
"","","","","","html-button-response","59","811490","0.0-43.1-0.1-0.1","44","1","2025-02-02 04:44:50","bc01a2b6f61d06f6604adb8657495020","47.215.222.215","Mozilla/5.0 (Windows NT 10.0; Win64; x64; rv:134.0) Gecko/20100101 Firefox/134.0","","Firefox","134.0","Windows","10.0","https://app.prolific.com/","en-US,en;q=0.5","64012a2623351894f2917605","679edb085803f58d6bbd31ca","679ef83a0a4cffc510bd071a","","322","<img  src='G_5.jpg' height='90'> <img   src='G_9.jpg' height='90'> <img   src='G_3.jpg' height='90'> <img id='selected'  src='G_7.jpg' height='90'> <img id='selected' src='G_1.jpg' height='90'>","4","Learning example 0","",""
"","","","","","html-button-response","60","811704","0.0-44.0","44","1","2025-02-02 04:44:50","bc01a2b6f61d06f6604adb8657495020","47.215.222.215","Mozilla/5.0 (Windows NT 10.0; Win64; x64; rv:134.0) Gecko/20100101 Firefox/134.0","","Firefox","134.0","Windows","10.0","https://app.prolific.com/","en-US,en;q=0.5","64012a2623351894f2917605","679edb085803f58d6bbd31ca","679ef83a0a4cffc510bd071a","","null","<img  src='G_5.jpg' height='90'> <img   src='G_9.jpg' height='90'> <img   src='G_3.jpg' height='90'> <img   src='G_7.jpg' height='90'> <img  src='G_1.jpg' height='90'>","null","Learning example 0","",""
"","","","","","html-keyboard-response","61","833690","0.0-45.0","44","1","2025-02-02 04:44:50","bc01a2b6f61d06f6604adb8657495020","47.215.222.215","Mozilla/5.0 (Windows NT 10.0; Win64; x64; rv:134.0) Gecko/20100101 Firefox/134.0","","Firefox","134.0","Windows","10.0","https://app.prolific.com/","en-US,en;q=0.5","64012a2623351894f2917605","679edb085803f58d6bbd31ca","679ef83a0a4cffc510bd071a","","21984","[""Final order was 1,2,3,4,5. The initial order was 2,1,3,4,5.<br>It took 1 swaps to sort it correctly with Omgne Sort. <br><br>Press Enter to continue.""]","enter","","",""
"","","","","","html-keyboard-response","62","836159","0.0-46.0","44","1","2025-02-02 04:44:50","bc01a2b6f61d06f6604adb8657495020","47.215.222.215","Mozilla/5.0 (Windows NT 10.0; Win64; x64; rv:134.0) Gecko/20100101 Firefox/134.0","","Firefox","134.0","Windows","10.0","https://app.prolific.com/","en-US,en;q=0.5","64012a2623351894f2917605","679edb085803f58d6bbd31ca","679ef83a0a4cffc510bd071a","","2465","[""Example 2<br><br>You will watch Omnge Sort in action. Try to identify any patterns in the comparisons made by this method. <br><br>Press Enter to continue.""]","enter","","",""
"","","","","","html-keyboard-response","63","836674","0.0-47.0","44","1","2025-02-02 04:44:50","bc01a2b6f61d06f6604adb8657495020","47.215.222.215","Mozilla/5.0 (Windows NT 10.0; Win64; x64; rv:134.0) Gecko/20100101 Firefox/134.0","","Firefox","134.0","Windows","10.0","https://app.prolific.com/","en-US,en;q=0.5","64012a2623351894f2917605","679edb085803f58d6bbd31ca","679ef83a0a4cffc510bd071a","","null","<img id='selected' src='G_5.jpg' height='90'> <img src='G_7.jpg' height='90'> <img src='G_4.jpg' height='90'> <img src='G_1.jpg' height='90'> <img src='G_2.jpg' height='90'> <img src='G_8.jpg' height='90'> <img src='G_3.jpg' height='90'> <img src='G_6.jpg' height='90'>","null","Animation1","",""
"","","","","","html-keyboard-response","64","837183","0.0-48.0","44","1","2025-02-02 04:44:50","bc01a2b6f61d06f6604adb8657495020","47.215.222.215","Mozilla/5.0 (Windows NT 10.0; Win64; x64; rv:134.0) Gecko/20100101 Firefox/134.0","","Firefox","134.0","Windows","10.0","https://app.prolific.com/","en-US,en;q=0.5","64012a2623351894f2917605","679edb085803f58d6bbd31ca","679ef83a0a4cffc510bd071a","","null","<img id='selected' src='G_5.jpg' height='90'> <img id='selected' src='G_7.jpg' height='90'> <img src='G_4.jpg' height='90'> <img src='G_1.jpg' height='90'> <img src='G_2.jpg' height='90'> <img src='G_8.jpg' height='90'> <img src='G_3.jpg' height='90'> <img src='G_6.jpg' height='90'>","null","Animation1","",""
"","","","","","html-keyboard-response","65","837695","0.0-49.0","44","1","2025-02-02 04:44:50","bc01a2b6f61d06f6604adb8657495020","47.215.222.215","Mozilla/5.0 (Windows NT 10.0; Win64; x64; rv:134.0) Gecko/20100101 Firefox/134.0","","Firefox","134.0","Windows","10.0","https://app.prolific.com/","en-US,en;q=0.5","64012a2623351894f2917605","679edb085803f58d6bbd31ca","679ef83a0a4cffc510bd071a","","null","<img id='selected' src='G_5.jpg' height='90'> <img id='selected' src='G_7.jpg' height='90'> <img src='G_4.jpg' height='90'> <img src='G_1.jpg' height='90'> <img src='G_2.jpg' height='90'> <img src='G_8.jpg' height='90'> <img src='G_3.jpg' height='90'> <img src='G_6.jpg' height='90'>","null","Animation1","",""
"","","","","","html-keyboard-response","66","838000","0.0-50.0","44","1","2025-02-02 04:44:50","bc01a2b6f61d06f6604adb8657495020","47.215.222.215","Mozilla/5.0 (Windows NT 10.0; Win64; x64; rv:134.0) Gecko/20100101 Firefox/134.0","","Firefox","134.0","Windows","10.0","https://app.prolific.com/","en-US,en;q=0.5","64012a2623351894f2917605","679edb085803f58d6bbd31ca","679ef83a0a4cffc510bd071a","","null","<img  src='G_5.jpg' height='90'> <img  src='G_7.jpg' height='90'> <img src='G_4.jpg' height='90'> <img src='G_1.jpg' height='90'> <img src='G_2.jpg' height='90'> <img src='G_8.jpg' height='90'> <img src='G_3.jpg' height='90'> <img src='G_6.jpg' height='90'>","null","Animation1","",""
"","","","","","html-keyboard-response","67","838510","0.0-51.0","44","1","2025-02-02 04:44:50","bc01a2b6f61d06f6604adb8657495020","47.215.222.215","Mozilla/5.0 (Windows NT 10.0; Win64; x64; rv:134.0) Gecko/20100101 Firefox/134.0","","Firefox","134.0","Windows","10.0","https://app.prolific.com/","en-US,en;q=0.5","64012a2623351894f2917605","679edb085803f58d6bbd31ca","679ef83a0a4cffc510bd071a","","null","<img  src='G_5.jpg' height='90'> <img id='selected'  src='G_7.jpg' height='90'> <img src='G_4.jpg' height='90'> <img src='G_1.jpg' height='90'> <img src='G_2.jpg' height='90'> <img src='G_8.jpg' height='90'> <img src='G_3.jpg' height='90'> <img src='G_6.jpg' height='90'>","null","Animation1","",""
"","","","","","html-keyboard-response","68","839020","0.0-52.0","44","1","2025-02-02 04:44:50","bc01a2b6f61d06f6604adb8657495020","47.215.222.215","Mozilla/5.0 (Windows NT 10.0; Win64; x64; rv:134.0) Gecko/20100101 Firefox/134.0","","Firefox","134.0","Windows","10.0","https://app.prolific.com/","en-US,en;q=0.5","64012a2623351894f2917605","679edb085803f58d6bbd31ca","679ef83a0a4cffc510bd071a","","null","<img  src='G_5.jpg' height='90'> <img id='selected'  src='G_7.jpg' height='90'> <img id='selected' src='G_4.jpg' height='90'> <img src='G_1.jpg' height='90'> <img src='G_2.jpg' height='90'> <img src='G_8.jpg' height='90'> <img src='G_3.jpg' height='90'> <img src='G_6.jpg' height='90'>","null","Animation1","",""
"","","","","","html-keyboard-response","69","839532","0.0-53.0","44","1","2025-02-02 04:44:50","bc01a2b6f61d06f6604adb8657495020","47.215.222.215","Mozilla/5.0 (Windows NT 10.0; Win64; x64; rv:134.0) Gecko/20100101 Firefox/134.0","","Firefox","134.0","Windows","10.0","https://app.prolific.com/","en-US,en;q=0.5","64012a2623351894f2917605","679edb085803f58d6bbd31ca","679ef83a0a4cffc510bd071a","","null","<img  src='G_5.jpg' height='90'> <img id='swapped' src='G_4.jpg' height='90'> <img id='swapped'  src='G_7.jpg' height='90'> <img src='G_1.jpg' height='90'> <img src='G_2.jpg' height='90'> <img src='G_8.jpg' height='90'> <img src='G_3.jpg' height='90'> <img src='G_6.jpg' height='90'>","null","Animation1","",""
"","","","","","html-keyboard-response","70","839842","0.0-54.0","44","1","2025-02-02 04:44:50","bc01a2b6f61d06f6604adb8657495020","47.215.222.215","Mozilla/5.0 (Windows NT 10.0; Win64; x64; rv:134.0) Gecko/20100101 Firefox/134.0","","Firefox","134.0","Windows","10.0","https://app.prolific.com/","en-US,en;q=0.5","64012a2623351894f2917605","679edb085803f58d6bbd31ca","679ef83a0a4cffc510bd071a","","null","<img  src='G_5.jpg' height='90'> <img  src='G_4.jpg' height='90'> <img   src='G_7.jpg' height='90'> <img src='G_1.jpg' height='90'> <img src='G_2.jpg' height='90'> <img src='G_8.jpg' height='90'> <img src='G_3.jpg' height='90'> <img src='G_6.jpg' height='90'>","null","Animation1","",""
"","","","","","html-keyboard-response","71","840352","0.0-55.0","44","1","2025-02-02 04:44:50","bc01a2b6f61d06f6604adb8657495020","47.215.222.215","Mozilla/5.0 (Windows NT 10.0; Win64; x64; rv:134.0) Gecko/20100101 Firefox/134.0","","Firefox","134.0","Windows","10.0","https://app.prolific.com/","en-US,en;q=0.5","64012a2623351894f2917605","679edb085803f58d6bbd31ca","679ef83a0a4cffc510bd071a","","null","<img id='selected'  src='G_5.jpg' height='90'> <img  src='G_4.jpg' height='90'> <img   src='G_7.jpg' height='90'> <img src='G_1.jpg' height='90'> <img src='G_2.jpg' height='90'> <img src='G_8.jpg' height='90'> <img src='G_3.jpg' height='90'> <img src='G_6.jpg' height='90'>","null","Animation1","",""
"","","","","","html-keyboard-response","72","840863","0.0-56.0","44","1","2025-02-02 04:44:50","bc01a2b6f61d06f6604adb8657495020","47.215.222.215","Mozilla/5.0 (Windows NT 10.0; Win64; x64; rv:134.0) Gecko/20100101 Firefox/134.0","","Firefox","134.0","Windows","10.0","https://app.prolific.com/","en-US,en;q=0.5","64012a2623351894f2917605","679edb085803f58d6bbd31ca","679ef83a0a4cffc510bd071a","","null","<img id='selected'  src='G_5.jpg' height='90'> <img id='selected'  src='G_4.jpg' height='90'> <img   src='G_7.jpg' height='90'> <img src='G_1.jpg' height='90'> <img src='G_2.jpg' height='90'> <img src='G_8.jpg' height='90'> <img src='G_3.jpg' height='90'> <img src='G_6.jpg' height='90'>","null","Animation1","",""
"","","","","","html-keyboard-response","73","841374","0.0-57.0","44","1","2025-02-02 04:44:50","bc01a2b6f61d06f6604adb8657495020","47.215.222.215","Mozilla/5.0 (Windows NT 10.0; Win64; x64; rv:134.0) Gecko/20100101 Firefox/134.0","","Firefox","134.0","Windows","10.0","https://app.prolific.com/","en-US,en;q=0.5","64012a2623351894f2917605","679edb085803f58d6bbd31ca","679ef83a0a4cffc510bd071a","","null","<img id='swapped'  src='G_4.jpg' height='90'> <img id='swapped'  src='G_5.jpg' height='90'> <img   src='G_7.jpg' height='90'> <img src='G_1.jpg' height='90'> <img src='G_2.jpg' height='90'> <img src='G_8.jpg' height='90'> <img src='G_3.jpg' height='90'> <img src='G_6.jpg' height='90'>","null","Animation1","",""
"","","","","","html-keyboard-response","74","841685","0.0-58.0","44","1","2025-02-02 04:44:50","bc01a2b6f61d06f6604adb8657495020","47.215.222.215","Mozilla/5.0 (Windows NT 10.0; Win64; x64; rv:134.0) Gecko/20100101 Firefox/134.0","","Firefox","134.0","Windows","10.0","https://app.prolific.com/","en-US,en;q=0.5","64012a2623351894f2917605","679edb085803f58d6bbd31ca","679ef83a0a4cffc510bd071a","","null","<img   src='G_4.jpg' height='90'> <img   src='G_5.jpg' height='90'> <img   src='G_7.jpg' height='90'> <img src='G_1.jpg' height='90'> <img src='G_2.jpg' height='90'> <img src='G_8.jpg' height='90'> <img src='G_3.jpg' height='90'> <img src='G_6.jpg' height='90'>","null","Animation1","",""
"","","","","","html-keyboard-response","75","842193","0.0-59.0","44","1","2025-02-02 04:44:50","bc01a2b6f61d06f6604adb8657495020","47.215.222.215","Mozilla/5.0 (Windows NT 10.0; Win64; x64; rv:134.0) Gecko/20100101 Firefox/134.0","","Firefox","134.0","Windows","10.0","https://app.prolific.com/","en-US,en;q=0.5","64012a2623351894f2917605","679edb085803f58d6bbd31ca","679ef83a0a4cffc510bd071a","","null","<img   src='G_4.jpg' height='90'> <img   src='G_5.jpg' height='90'> <img id='selected'   src='G_7.jpg' height='90'> <img src='G_1.jpg' height='90'> <img src='G_2.jpg' height='90'> <img src='G_8.jpg' height='90'> <img src='G_3.jpg' height='90'> <img src='G_6.jpg' height='90'>","null","Animation1","",""
"","","","","","html-keyboard-response","76","842703","0.0-60.0","44","1","2025-02-02 04:44:50","bc01a2b6f61d06f6604adb8657495020","47.215.222.215","Mozilla/5.0 (Windows NT 10.0; Win64; x64; rv:134.0) Gecko/20100101 Firefox/134.0","","Firefox","134.0","Windows","10.0","https://app.prolific.com/","en-US,en;q=0.5","64012a2623351894f2917605","679edb085803f58d6bbd31ca","679ef83a0a4cffc510bd071a","","null","<img   src='G_4.jpg' height='90'> <img   src='G_5.jpg' height='90'> <img id='selected'   src='G_7.jpg' height='90'> <img id='selected' src='G_1.jpg' height='90'> <img src='G_2.jpg' height='90'> <img src='G_8.jpg' height='90'> <img src='G_3.jpg' height='90'> <img src='G_6.jpg' height='90'>","null","Animation1","",""
"","","","","","html-keyboard-response","77","843212","0.0-61.0","44","1","2025-02-02 04:44:50","bc01a2b6f61d06f6604adb8657495020","47.215.222.215","Mozilla/5.0 (Windows NT 10.0; Win64; x64; rv:134.0) Gecko/20100101 Firefox/134.0","","Firefox","134.0","Windows","10.0","https://app.prolific.com/","en-US,en;q=0.5","64012a2623351894f2917605","679edb085803f58d6bbd31ca","679ef83a0a4cffc510bd071a","","null","<img   src='G_4.jpg' height='90'> <img   src='G_5.jpg' height='90'> <img id='swapped' src='G_1.jpg' height='90'> <img id='swapped'   src='G_7.jpg' height='90'> <img src='G_2.jpg' height='90'> <img src='G_8.jpg' height='90'> <img src='G_3.jpg' height='90'> <img src='G_6.jpg' height='90'>","null","Animation1","",""
"","","","","","html-keyboard-response","78","843521","0.0-62.0","44","1","2025-02-02 04:44:50","bc01a2b6f61d06f6604adb8657495020","47.215.222.215","Mozilla/5.0 (Windows NT 10.0; Win64; x64; rv:134.0) Gecko/20100101 Firefox/134.0","","Firefox","134.0","Windows","10.0","https://app.prolific.com/","en-US,en;q=0.5","64012a2623351894f2917605","679edb085803f58d6bbd31ca","679ef83a0a4cffc510bd071a","","null","<img   src='G_4.jpg' height='90'> <img   src='G_5.jpg' height='90'> <img  src='G_1.jpg' height='90'> <img    src='G_7.jpg' height='90'> <img src='G_2.jpg' height='90'> <img src='G_8.jpg' height='90'> <img src='G_3.jpg' height='90'> <img src='G_6.jpg' height='90'>","null","Animation1","",""
"","","","","","html-keyboard-response","79","844031","0.0-63.0","44","1","2025-02-02 04:44:50","bc01a2b6f61d06f6604adb8657495020","47.215.222.215","Mozilla/5.0 (Windows NT 10.0; Win64; x64; rv:134.0) Gecko/20100101 Firefox/134.0","","Firefox","134.0","Windows","10.0","https://app.prolific.com/","en-US,en;q=0.5","64012a2623351894f2917605","679edb085803f58d6bbd31ca","679ef83a0a4cffc510bd071a","","null","<img   src='G_4.jpg' height='90'> <img id='selected'   src='G_5.jpg' height='90'> <img  src='G_1.jpg' height='90'> <img    src='G_7.jpg' height='90'> <img src='G_2.jpg' height='90'> <img src='G_8.jpg' height='90'> <img src='G_3.jpg' height='90'> <img src='G_6.jpg' height='90'>","null","Animation1","",""
"","","","","","html-keyboard-response","80","844540","0.0-64.0","44","1","2025-02-02 04:44:50","bc01a2b6f61d06f6604adb8657495020","47.215.222.215","Mozilla/5.0 (Windows NT 10.0; Win64; x64; rv:134.0) Gecko/20100101 Firefox/134.0","","Firefox","134.0","Windows","10.0","https://app.prolific.com/","en-US,en;q=0.5","64012a2623351894f2917605","679edb085803f58d6bbd31ca","679ef83a0a4cffc510bd071a","","null","<img   src='G_4.jpg' height='90'> <img id='selected'   src='G_5.jpg' height='90'> <img id='selected'  src='G_1.jpg' height='90'> <img    src='G_7.jpg' height='90'> <img src='G_2.jpg' height='90'> <img src='G_8.jpg' height='90'> <img src='G_3.jpg' height='90'> <img src='G_6.jpg' height='90'>","null","Animation1","",""
"","","","","","html-keyboard-response","81","845053","0.0-65.0","44","1","2025-02-02 04:44:50","bc01a2b6f61d06f6604adb8657495020","47.215.222.215","Mozilla/5.0 (Windows NT 10.0; Win64; x64; rv:134.0) Gecko/20100101 Firefox/134.0","","Firefox","134.0","Windows","10.0","https://app.prolific.com/","en-US,en;q=0.5","64012a2623351894f2917605","679edb085803f58d6bbd31ca","679ef83a0a4cffc510bd071a","","null","<img   src='G_4.jpg' height='90'> <img id='swapped'  src='G_1.jpg' height='90'> <img id='swapped'   src='G_5.jpg' height='90'> <img    src='G_7.jpg' height='90'> <img src='G_2.jpg' height='90'> <img src='G_8.jpg' height='90'> <img src='G_3.jpg' height='90'> <img src='G_6.jpg' height='90'>","null","Animation1","",""
"","","","","","html-keyboard-response","82","845362","0.0-66.0","44","1","2025-02-02 04:44:50","bc01a2b6f61d06f6604adb8657495020","47.215.222.215","Mozilla/5.0 (Windows NT 10.0; Win64; x64; rv:134.0) Gecko/20100101 Firefox/134.0","","Firefox","134.0","Windows","10.0","https://app.prolific.com/","en-US,en;q=0.5","64012a2623351894f2917605","679edb085803f58d6bbd31ca","679ef83a0a4cffc510bd071a","","null","<img   src='G_4.jpg' height='90'> <img   src='G_1.jpg' height='90'> <img    src='G_5.jpg' height='90'> <img    src='G_7.jpg' height='90'> <img src='G_2.jpg' height='90'> <img src='G_8.jpg' height='90'> <img src='G_3.jpg' height='90'> <img src='G_6.jpg' height='90'>","null","Animation1","",""
"","","","","","html-keyboard-response","83","845868","0.0-67.0","44","1","2025-02-02 04:44:50","bc01a2b6f61d06f6604adb8657495020","47.215.222.215","Mozilla/5.0 (Windows NT 10.0; Win64; x64; rv:134.0) Gecko/20100101 Firefox/134.0","","Firefox","134.0","Windows","10.0","https://app.prolific.com/","en-US,en;q=0.5","64012a2623351894f2917605","679edb085803f58d6bbd31ca","679ef83a0a4cffc510bd071a","","null","<img id='selected'   src='G_4.jpg' height='90'> <img   src='G_1.jpg' height='90'> <img    src='G_5.jpg' height='90'> <img    src='G_7.jpg' height='90'> <img src='G_2.jpg' height='90'> <img src='G_8.jpg' height='90'> <img src='G_3.jpg' height='90'> <img src='G_6.jpg' height='90'>","null","Animation1","",""
"","","","","","html-keyboard-response","84","846380","0.0-68.0","44","1","2025-02-02 04:44:50","bc01a2b6f61d06f6604adb8657495020","47.215.222.215","Mozilla/5.0 (Windows NT 10.0; Win64; x64; rv:134.0) Gecko/20100101 Firefox/134.0","","Firefox","134.0","Windows","10.0","https://app.prolific.com/","en-US,en;q=0.5","64012a2623351894f2917605","679edb085803f58d6bbd31ca","679ef83a0a4cffc510bd071a","","null","<img id='selected'   src='G_4.jpg' height='90'> <img id='selected'   src='G_1.jpg' height='90'> <img    src='G_5.jpg' height='90'> <img    src='G_7.jpg' height='90'> <img src='G_2.jpg' height='90'> <img src='G_8.jpg' height='90'> <img src='G_3.jpg' height='90'> <img src='G_6.jpg' height='90'>","null","Animation1","",""
"","","","","","html-keyboard-response","85","846890","0.0-69.0","44","1","2025-02-02 04:44:50","bc01a2b6f61d06f6604adb8657495020","47.215.222.215","Mozilla/5.0 (Windows NT 10.0; Win64; x64; rv:134.0) Gecko/20100101 Firefox/134.0","","Firefox","134.0","Windows","10.0","https://app.prolific.com/","en-US,en;q=0.5","64012a2623351894f2917605","679edb085803f58d6bbd31ca","679ef83a0a4cffc510bd071a","","null","<img id='swapped'   src='G_1.jpg' height='90'> <img id='swapped'   src='G_4.jpg' height='90'> <img    src='G_5.jpg' height='90'> <img    src='G_7.jpg' height='90'> <img src='G_2.jpg' height='90'> <img src='G_8.jpg' height='90'> <img src='G_3.jpg' height='90'> <img src='G_6.jpg' height='90'>","null","Animation1","",""
"","","","","","html-keyboard-response","86","847198","0.0-70.0","44","1","2025-02-02 04:44:50","bc01a2b6f61d06f6604adb8657495020","47.215.222.215","Mozilla/5.0 (Windows NT 10.0; Win64; x64; rv:134.0) Gecko/20100101 Firefox/134.0","","Firefox","134.0","Windows","10.0","https://app.prolific.com/","en-US,en;q=0.5","64012a2623351894f2917605","679edb085803f58d6bbd31ca","679ef83a0a4cffc510bd071a","","null","<img    src='G_1.jpg' height='90'> <img    src='G_4.jpg' height='90'> <img    src='G_5.jpg' height='90'> <img    src='G_7.jpg' height='90'> <img src='G_2.jpg' height='90'> <img src='G_8.jpg' height='90'> <img src='G_3.jpg' height='90'> <img src='G_6.jpg' height='90'>","null","Animation1","",""
"","","","","","html-keyboard-response","87","847707","0.0-71.0","44","1","2025-02-02 04:44:50","bc01a2b6f61d06f6604adb8657495020","47.215.222.215","Mozilla/5.0 (Windows NT 10.0; Win64; x64; rv:134.0) Gecko/20100101 Firefox/134.0","","Firefox","134.0","Windows","10.0","https://app.prolific.com/","en-US,en;q=0.5","64012a2623351894f2917605","679edb085803f58d6bbd31ca","679ef83a0a4cffc510bd071a","","null","<img    src='G_1.jpg' height='90'> <img    src='G_4.jpg' height='90'> <img    src='G_5.jpg' height='90'> <img id='selected'    src='G_7.jpg' height='90'> <img src='G_2.jpg' height='90'> <img src='G_8.jpg' height='90'> <img src='G_3.jpg' height='90'> <img src='G_6.jpg' height='90'>","null","Animation1","",""
"","","","","","html-keyboard-response","88","848215","0.0-72.0","44","1","2025-02-02 04:44:50","bc01a2b6f61d06f6604adb8657495020","47.215.222.215","Mozilla/5.0 (Windows NT 10.0; Win64; x64; rv:134.0) Gecko/20100101 Firefox/134.0","","Firefox","134.0","Windows","10.0","https://app.prolific.com/","en-US,en;q=0.5","64012a2623351894f2917605","679edb085803f58d6bbd31ca","679ef83a0a4cffc510bd071a","","null","<img    src='G_1.jpg' height='90'> <img    src='G_4.jpg' height='90'> <img    src='G_5.jpg' height='90'> <img id='selected'    src='G_7.jpg' height='90'> <img id='selected' src='G_2.jpg' height='90'> <img src='G_8.jpg' height='90'> <img src='G_3.jpg' height='90'> <img src='G_6.jpg' height='90'>","null","Animation1","",""
"","","","","","html-keyboard-response","89","848723","0.0-73.0","44","1","2025-02-02 04:44:50","bc01a2b6f61d06f6604adb8657495020","47.215.222.215","Mozilla/5.0 (Windows NT 10.0; Win64; x64; rv:134.0) Gecko/20100101 Firefox/134.0","","Firefox","134.0","Windows","10.0","https://app.prolific.com/","en-US,en;q=0.5","64012a2623351894f2917605","679edb085803f58d6bbd31ca","679ef83a0a4cffc510bd071a","","null","<img    src='G_1.jpg' height='90'> <img    src='G_4.jpg' height='90'> <img    src='G_5.jpg' height='90'> <img id='swapped' src='G_2.jpg' height='90'> <img id='swapped'    src='G_7.jpg' height='90'> <img src='G_8.jpg' height='90'> <img src='G_3.jpg' height='90'> <img src='G_6.jpg' height='90'>","null","Animation1","",""
"","","","","","html-keyboard-response","90","849031","0.0-74.0","44","1","2025-02-02 04:44:50","bc01a2b6f61d06f6604adb8657495020","47.215.222.215","Mozilla/5.0 (Windows NT 10.0; Win64; x64; rv:134.0) Gecko/20100101 Firefox/134.0","","Firefox","134.0","Windows","10.0","https://app.prolific.com/","en-US,en;q=0.5","64012a2623351894f2917605","679edb085803f58d6bbd31ca","679ef83a0a4cffc510bd071a","","null","<img    src='G_1.jpg' height='90'> <img    src='G_4.jpg' height='90'> <img    src='G_5.jpg' height='90'> <img  src='G_2.jpg' height='90'> <img     src='G_7.jpg' height='90'> <img src='G_8.jpg' height='90'> <img src='G_3.jpg' height='90'> <img src='G_6.jpg' height='90'>","null","Animation1","",""
"","","","","","html-keyboard-response","91","849539","0.0-75.0","44","1","2025-02-02 04:44:50","bc01a2b6f61d06f6604adb8657495020","47.215.222.215","Mozilla/5.0 (Windows NT 10.0; Win64; x64; rv:134.0) Gecko/20100101 Firefox/134.0","","Firefox","134.0","Windows","10.0","https://app.prolific.com/","en-US,en;q=0.5","64012a2623351894f2917605","679edb085803f58d6bbd31ca","679ef83a0a4cffc510bd071a","","null","<img    src='G_1.jpg' height='90'> <img    src='G_4.jpg' height='90'> <img id='selected'    src='G_5.jpg' height='90'> <img  src='G_2.jpg' height='90'> <img     src='G_7.jpg' height='90'> <img src='G_8.jpg' height='90'> <img src='G_3.jpg' height='90'> <img src='G_6.jpg' height='90'>","null","Animation1","",""
"","","","","","html-keyboard-response","92","850050","0.0-76.0","44","1","2025-02-02 04:44:50","bc01a2b6f61d06f6604adb8657495020","47.215.222.215","Mozilla/5.0 (Windows NT 10.0; Win64; x64; rv:134.0) Gecko/20100101 Firefox/134.0","","Firefox","134.0","Windows","10.0","https://app.prolific.com/","en-US,en;q=0.5","64012a2623351894f2917605","679edb085803f58d6bbd31ca","679ef83a0a4cffc510bd071a","","null","<img    src='G_1.jpg' height='90'> <img    src='G_4.jpg' height='90'> <img id='selected'    src='G_5.jpg' height='90'> <img id='selected'  src='G_2.jpg' height='90'> <img     src='G_7.jpg' height='90'> <img src='G_8.jpg' height='90'> <img src='G_3.jpg' height='90'> <img src='G_6.jpg' height='90'>","null","Animation1","",""
"","","","","","html-keyboard-response","93","850562","0.0-77.0","44","1","2025-02-02 04:44:50","bc01a2b6f61d06f6604adb8657495020","47.215.222.215","Mozilla/5.0 (Windows NT 10.0; Win64; x64; rv:134.0) Gecko/20100101 Firefox/134.0","","Firefox","134.0","Windows","10.0","https://app.prolific.com/","en-US,en;q=0.5","64012a2623351894f2917605","679edb085803f58d6bbd31ca","679ef83a0a4cffc510bd071a","","null","<img    src='G_1.jpg' height='90'> <img    src='G_4.jpg' height='90'> <img id='swapped'  src='G_2.jpg' height='90'> <img id='swapped'    src='G_5.jpg' height='90'> <img     src='G_7.jpg' height='90'> <img src='G_8.jpg' height='90'> <img src='G_3.jpg' height='90'> <img src='G_6.jpg' height='90'>","null","Animation1","",""
"","","","","","html-keyboard-response","94","850868","0.0-78.0","44","1","2025-02-02 04:44:50","bc01a2b6f61d06f6604adb8657495020","47.215.222.215","Mozilla/5.0 (Windows NT 10.0; Win64; x64; rv:134.0) Gecko/20100101 Firefox/134.0","","Firefox","134.0","Windows","10.0","https://app.prolific.com/","en-US,en;q=0.5","64012a2623351894f2917605","679edb085803f58d6bbd31ca","679ef83a0a4cffc510bd071a","","null","<img    src='G_1.jpg' height='90'> <img    src='G_4.jpg' height='90'> <img   src='G_2.jpg' height='90'> <img     src='G_5.jpg' height='90'> <img     src='G_7.jpg' height='90'> <img src='G_8.jpg' height='90'> <img src='G_3.jpg' height='90'> <img src='G_6.jpg' height='90'>","null","Animation1","",""
"","","","","","html-keyboard-response","95","851379","0.0-79.0","44","1","2025-02-02 04:44:50","bc01a2b6f61d06f6604adb8657495020","47.215.222.215","Mozilla/5.0 (Windows NT 10.0; Win64; x64; rv:134.0) Gecko/20100101 Firefox/134.0","","Firefox","134.0","Windows","10.0","https://app.prolific.com/","en-US,en;q=0.5","64012a2623351894f2917605","679edb085803f58d6bbd31ca","679ef83a0a4cffc510bd071a","","null","<img    src='G_1.jpg' height='90'> <img id='selected'    src='G_4.jpg' height='90'> <img   src='G_2.jpg' height='90'> <img     src='G_5.jpg' height='90'> <img     src='G_7.jpg' height='90'> <img src='G_8.jpg' height='90'> <img src='G_3.jpg' height='90'> <img src='G_6.jpg' height='90'>","null","Animation1","",""
"","","","","","html-keyboard-response","96","851885","0.0-80.0","44","1","2025-02-02 04:44:50","bc01a2b6f61d06f6604adb8657495020","47.215.222.215","Mozilla/5.0 (Windows NT 10.0; Win64; x64; rv:134.0) Gecko/20100101 Firefox/134.0","","Firefox","134.0","Windows","10.0","https://app.prolific.com/","en-US,en;q=0.5","64012a2623351894f2917605","679edb085803f58d6bbd31ca","679ef83a0a4cffc510bd071a","","null","<img    src='G_1.jpg' height='90'> <img id='selected'    src='G_4.jpg' height='90'> <img id='selected'   src='G_2.jpg' height='90'> <img     src='G_5.jpg' height='90'> <img     src='G_7.jpg' height='90'> <img src='G_8.jpg' height='90'> <img src='G_3.jpg' height='90'> <img src='G_6.jpg' height='90'>","null","Animation1","",""
"","","","","","html-keyboard-response","97","852398","0.0-81.0","44","1","2025-02-02 04:44:50","bc01a2b6f61d06f6604adb8657495020","47.215.222.215","Mozilla/5.0 (Windows NT 10.0; Win64; x64; rv:134.0) Gecko/20100101 Firefox/134.0","","Firefox","134.0","Windows","10.0","https://app.prolific.com/","en-US,en;q=0.5","64012a2623351894f2917605","679edb085803f58d6bbd31ca","679ef83a0a4cffc510bd071a","","null","<img    src='G_1.jpg' height='90'> <img id='swapped'   src='G_2.jpg' height='90'> <img id='swapped'    src='G_4.jpg' height='90'> <img     src='G_5.jpg' height='90'> <img     src='G_7.jpg' height='90'> <img src='G_8.jpg' height='90'> <img src='G_3.jpg' height='90'> <img src='G_6.jpg' height='90'>","null","Animation1","",""
"","","","","","html-keyboard-response","98","852707","0.0-82.0","44","1","2025-02-02 04:44:50","bc01a2b6f61d06f6604adb8657495020","47.215.222.215","Mozilla/5.0 (Windows NT 10.0; Win64; x64; rv:134.0) Gecko/20100101 Firefox/134.0","","Firefox","134.0","Windows","10.0","https://app.prolific.com/","en-US,en;q=0.5","64012a2623351894f2917605","679edb085803f58d6bbd31ca","679ef83a0a4cffc510bd071a","","null","<img    src='G_1.jpg' height='90'> <img    src='G_2.jpg' height='90'> <img     src='G_4.jpg' height='90'> <img     src='G_5.jpg' height='90'> <img     src='G_7.jpg' height='90'> <img src='G_8.jpg' height='90'> <img src='G_3.jpg' height='90'> <img src='G_6.jpg' height='90'>","null","Animation1","",""
"","","","","","html-keyboard-response","99","853220","0.0-83.0","44","1","2025-02-02 04:44:50","bc01a2b6f61d06f6604adb8657495020","47.215.222.215","Mozilla/5.0 (Windows NT 10.0; Win64; x64; rv:134.0) Gecko/20100101 Firefox/134.0","","Firefox","134.0","Windows","10.0","https://app.prolific.com/","en-US,en;q=0.5","64012a2623351894f2917605","679edb085803f58d6bbd31ca","679ef83a0a4cffc510bd071a","","null","<img id='selected'    src='G_1.jpg' height='90'> <img    src='G_2.jpg' height='90'> <img     src='G_4.jpg' height='90'> <img     src='G_5.jpg' height='90'> <img     src='G_7.jpg' height='90'> <img src='G_8.jpg' height='90'> <img src='G_3.jpg' height='90'> <img src='G_6.jpg' height='90'>","null","Animation1","",""
"","","","","","html-keyboard-response","100","853735","0.0-84.0","44","1","2025-02-02 04:44:50","bc01a2b6f61d06f6604adb8657495020","47.215.222.215","Mozilla/5.0 (Windows NT 10.0; Win64; x64; rv:134.0) Gecko/20100101 Firefox/134.0","","Firefox","134.0","Windows","10.0","https://app.prolific.com/","en-US,en;q=0.5","64012a2623351894f2917605","679edb085803f58d6bbd31ca","679ef83a0a4cffc510bd071a","","null","<img id='selected'    src='G_1.jpg' height='90'> <img id='selected'    src='G_2.jpg' height='90'> <img     src='G_4.jpg' height='90'> <img     src='G_5.jpg' height='90'> <img     src='G_7.jpg' height='90'> <img src='G_8.jpg' height='90'> <img src='G_3.jpg' height='90'> <img src='G_6.jpg' height='90'>","null","Animation1","",""
"","","","","","html-keyboard-response","101","854245","0.0-85.0","44","1","2025-02-02 04:44:50","bc01a2b6f61d06f6604adb8657495020","47.215.222.215","Mozilla/5.0 (Windows NT 10.0; Win64; x64; rv:134.0) Gecko/20100101 Firefox/134.0","","Firefox","134.0","Windows","10.0","https://app.prolific.com/","en-US,en;q=0.5","64012a2623351894f2917605","679edb085803f58d6bbd31ca","679ef83a0a4cffc510bd071a","","null","<img id='selected'    src='G_1.jpg' height='90'> <img id='selected'    src='G_2.jpg' height='90'> <img     src='G_4.jpg' height='90'> <img     src='G_5.jpg' height='90'> <img     src='G_7.jpg' height='90'> <img src='G_8.jpg' height='90'> <img src='G_3.jpg' height='90'> <img src='G_6.jpg' height='90'>","null","Animation1","",""
"","","","","","html-keyboard-response","102","854551","0.0-86.0","44","1","2025-02-02 04:44:50","bc01a2b6f61d06f6604adb8657495020","47.215.222.215","Mozilla/5.0 (Windows NT 10.0; Win64; x64; rv:134.0) Gecko/20100101 Firefox/134.0","","Firefox","134.0","Windows","10.0","https://app.prolific.com/","en-US,en;q=0.5","64012a2623351894f2917605","679edb085803f58d6bbd31ca","679ef83a0a4cffc510bd071a","","null","<img     src='G_1.jpg' height='90'> <img     src='G_2.jpg' height='90'> <img     src='G_4.jpg' height='90'> <img     src='G_5.jpg' height='90'> <img     src='G_7.jpg' height='90'> <img src='G_8.jpg' height='90'> <img src='G_3.jpg' height='90'> <img src='G_6.jpg' height='90'>","null","Animation1","",""
"","","","","","html-keyboard-response","103","855060","0.0-87.0","44","1","2025-02-02 04:44:50","bc01a2b6f61d06f6604adb8657495020","47.215.222.215","Mozilla/5.0 (Windows NT 10.0; Win64; x64; rv:134.0) Gecko/20100101 Firefox/134.0","","Firefox","134.0","Windows","10.0","https://app.prolific.com/","en-US,en;q=0.5","64012a2623351894f2917605","679edb085803f58d6bbd31ca","679ef83a0a4cffc510bd071a","","null","<img     src='G_1.jpg' height='90'> <img     src='G_2.jpg' height='90'> <img     src='G_4.jpg' height='90'> <img     src='G_5.jpg' height='90'> <img id='selected'     src='G_7.jpg' height='90'> <img src='G_8.jpg' height='90'> <img src='G_3.jpg' height='90'> <img src='G_6.jpg' height='90'>","null","Animation1","",""
"","","","","","html-keyboard-response","104","855571","0.0-88.0","44","1","2025-02-02 04:44:50","bc01a2b6f61d06f6604adb8657495020","47.215.222.215","Mozilla/5.0 (Windows NT 10.0; Win64; x64; rv:134.0) Gecko/20100101 Firefox/134.0","","Firefox","134.0","Windows","10.0","https://app.prolific.com/","en-US,en;q=0.5","64012a2623351894f2917605","679edb085803f58d6bbd31ca","679ef83a0a4cffc510bd071a","","null","<img     src='G_1.jpg' height='90'> <img     src='G_2.jpg' height='90'> <img     src='G_4.jpg' height='90'> <img     src='G_5.jpg' height='90'> <img id='selected'     src='G_7.jpg' height='90'> <img id='selected' src='G_8.jpg' height='90'> <img src='G_3.jpg' height='90'> <img src='G_6.jpg' height='90'>","null","Animation1","",""
"","","","","","html-keyboard-response","105","856079","0.0-89.0","44","1","2025-02-02 04:44:50","bc01a2b6f61d06f6604adb8657495020","47.215.222.215","Mozilla/5.0 (Windows NT 10.0; Win64; x64; rv:134.0) Gecko/20100101 Firefox/134.0","","Firefox","134.0","Windows","10.0","https://app.prolific.com/","en-US,en;q=0.5","64012a2623351894f2917605","679edb085803f58d6bbd31ca","679ef83a0a4cffc510bd071a","","null","<img     src='G_1.jpg' height='90'> <img     src='G_2.jpg' height='90'> <img     src='G_4.jpg' height='90'> <img     src='G_5.jpg' height='90'> <img id='swapped' src='G_8.jpg' height='90'> <img id='swapped'     src='G_7.jpg' height='90'> <img src='G_3.jpg' height='90'> <img src='G_6.jpg' height='90'>","null","Animation1","",""
"","","","","","html-keyboard-response","106","856388","0.0-90.0","44","1","2025-02-02 04:44:50","bc01a2b6f61d06f6604adb8657495020","47.215.222.215","Mozilla/5.0 (Windows NT 10.0; Win64; x64; rv:134.0) Gecko/20100101 Firefox/134.0","","Firefox","134.0","Windows","10.0","https://app.prolific.com/","en-US,en;q=0.5","64012a2623351894f2917605","679edb085803f58d6bbd31ca","679ef83a0a4cffc510bd071a","","null","<img     src='G_1.jpg' height='90'> <img     src='G_2.jpg' height='90'> <img     src='G_4.jpg' height='90'> <img     src='G_5.jpg' height='90'> <img  src='G_8.jpg' height='90'> <img      src='G_7.jpg' height='90'> <img src='G_3.jpg' height='90'> <img src='G_6.jpg' height='90'>","null","Animation1","",""
"","","","","","html-keyboard-response","107","856898","0.0-91.0","44","1","2025-02-02 04:44:50","bc01a2b6f61d06f6604adb8657495020","47.215.222.215","Mozilla/5.0 (Windows NT 10.0; Win64; x64; rv:134.0) Gecko/20100101 Firefox/134.0","","Firefox","134.0","Windows","10.0","https://app.prolific.com/","en-US,en;q=0.5","64012a2623351894f2917605","679edb085803f58d6bbd31ca","679ef83a0a4cffc510bd071a","","null","<img     src='G_1.jpg' height='90'> <img     src='G_2.jpg' height='90'> <img     src='G_4.jpg' height='90'> <img id='selected'     src='G_5.jpg' height='90'> <img  src='G_8.jpg' height='90'> <img      src='G_7.jpg' height='90'> <img src='G_3.jpg' height='90'> <img src='G_6.jpg' height='90'>","null","Animation1","",""
"","","","","","html-keyboard-response","108","857410","0.0-92.0","44","1","2025-02-02 04:44:50","bc01a2b6f61d06f6604adb8657495020","47.215.222.215","Mozilla/5.0 (Windows NT 10.0; Win64; x64; rv:134.0) Gecko/20100101 Firefox/134.0","","Firefox","134.0","Windows","10.0","https://app.prolific.com/","en-US,en;q=0.5","64012a2623351894f2917605","679edb085803f58d6bbd31ca","679ef83a0a4cffc510bd071a","","null","<img     src='G_1.jpg' height='90'> <img     src='G_2.jpg' height='90'> <img     src='G_4.jpg' height='90'> <img id='selected'     src='G_5.jpg' height='90'> <img id='selected'  src='G_8.jpg' height='90'> <img      src='G_7.jpg' height='90'> <img src='G_3.jpg' height='90'> <img src='G_6.jpg' height='90'>","null","Animation1","",""
"","","","","","html-keyboard-response","109","857923","0.0-93.0","44","1","2025-02-02 04:44:50","bc01a2b6f61d06f6604adb8657495020","47.215.222.215","Mozilla/5.0 (Windows NT 10.0; Win64; x64; rv:134.0) Gecko/20100101 Firefox/134.0","","Firefox","134.0","Windows","10.0","https://app.prolific.com/","en-US,en;q=0.5","64012a2623351894f2917605","679edb085803f58d6bbd31ca","679ef83a0a4cffc510bd071a","","null","<img     src='G_1.jpg' height='90'> <img     src='G_2.jpg' height='90'> <img     src='G_4.jpg' height='90'> <img id='selected'     src='G_5.jpg' height='90'> <img id='selected'  src='G_8.jpg' height='90'> <img      src='G_7.jpg' height='90'> <img src='G_3.jpg' height='90'> <img src='G_6.jpg' height='90'>","null","Animation1","",""
"","","","","","html-keyboard-response","110","858231","0.0-94.0","44","1","2025-02-02 04:44:50","bc01a2b6f61d06f6604adb8657495020","47.215.222.215","Mozilla/5.0 (Windows NT 10.0; Win64; x64; rv:134.0) Gecko/20100101 Firefox/134.0","","Firefox","134.0","Windows","10.0","https://app.prolific.com/","en-US,en;q=0.5","64012a2623351894f2917605","679edb085803f58d6bbd31ca","679ef83a0a4cffc510bd071a","","null","<img     src='G_1.jpg' height='90'> <img     src='G_2.jpg' height='90'> <img     src='G_4.jpg' height='90'> <img      src='G_5.jpg' height='90'> <img   src='G_8.jpg' height='90'> <img      src='G_7.jpg' height='90'> <img src='G_3.jpg' height='90'> <img src='G_6.jpg' height='90'>","null","Animation1","",""
"","","","","","html-keyboard-response","111","858745","0.0-95.0","44","1","2025-02-02 04:44:50","bc01a2b6f61d06f6604adb8657495020","47.215.222.215","Mozilla/5.0 (Windows NT 10.0; Win64; x64; rv:134.0) Gecko/20100101 Firefox/134.0","","Firefox","134.0","Windows","10.0","https://app.prolific.com/","en-US,en;q=0.5","64012a2623351894f2917605","679edb085803f58d6bbd31ca","679ef83a0a4cffc510bd071a","","null","<img     src='G_1.jpg' height='90'> <img     src='G_2.jpg' height='90'> <img     src='G_4.jpg' height='90'> <img      src='G_5.jpg' height='90'> <img   src='G_8.jpg' height='90'> <img id='selected'      src='G_7.jpg' height='90'> <img src='G_3.jpg' height='90'> <img src='G_6.jpg' height='90'>","null","Animation1","",""
"","","","","","html-keyboard-response","112","859257","0.0-96.0","44","1","2025-02-02 04:44:50","bc01a2b6f61d06f6604adb8657495020","47.215.222.215","Mozilla/5.0 (Windows NT 10.0; Win64; x64; rv:134.0) Gecko/20100101 Firefox/134.0","","Firefox","134.0","Windows","10.0","https://app.prolific.com/","en-US,en;q=0.5","64012a2623351894f2917605","679edb085803f58d6bbd31ca","679ef83a0a4cffc510bd071a","","null","<img     src='G_1.jpg' height='90'> <img     src='G_2.jpg' height='90'> <img     src='G_4.jpg' height='90'> <img      src='G_5.jpg' height='90'> <img   src='G_8.jpg' height='90'> <img id='selected'      src='G_7.jpg' height='90'> <img id='selected' src='G_3.jpg' height='90'> <img src='G_6.jpg' height='90'>","null","Animation1","",""
"","","","","","html-keyboard-response","113","859766","0.0-97.0","44","1","2025-02-02 04:44:50","bc01a2b6f61d06f6604adb8657495020","47.215.222.215","Mozilla/5.0 (Windows NT 10.0; Win64; x64; rv:134.0) Gecko/20100101 Firefox/134.0","","Firefox","134.0","Windows","10.0","https://app.prolific.com/","en-US,en;q=0.5","64012a2623351894f2917605","679edb085803f58d6bbd31ca","679ef83a0a4cffc510bd071a","","null","<img     src='G_1.jpg' height='90'> <img     src='G_2.jpg' height='90'> <img     src='G_4.jpg' height='90'> <img      src='G_5.jpg' height='90'> <img   src='G_8.jpg' height='90'> <img id='selected'      src='G_7.jpg' height='90'> <img id='selected' src='G_3.jpg' height='90'> <img src='G_6.jpg' height='90'>","null","Animation1","",""
"","","","","","html-keyboard-response","114","860075","0.0-98.0","44","1","2025-02-02 04:44:50","bc01a2b6f61d06f6604adb8657495020","47.215.222.215","Mozilla/5.0 (Windows NT 10.0; Win64; x64; rv:134.0) Gecko/20100101 Firefox/134.0","","Firefox","134.0","Windows","10.0","https://app.prolific.com/","en-US,en;q=0.5","64012a2623351894f2917605","679edb085803f58d6bbd31ca","679ef83a0a4cffc510bd071a","","null","<img     src='G_1.jpg' height='90'> <img     src='G_2.jpg' height='90'> <img     src='G_4.jpg' height='90'> <img      src='G_5.jpg' height='90'> <img   src='G_8.jpg' height='90'> <img       src='G_7.jpg' height='90'> <img  src='G_3.jpg' height='90'> <img src='G_6.jpg' height='90'>","null","Animation1","",""
"","","","","","html-keyboard-response","115","860587","0.0-99.0","44","1","2025-02-02 04:44:50","bc01a2b6f61d06f6604adb8657495020","47.215.222.215","Mozilla/5.0 (Windows NT 10.0; Win64; x64; rv:134.0) Gecko/20100101 Firefox/134.0","","Firefox","134.0","Windows","10.0","https://app.prolific.com/","en-US,en;q=0.5","64012a2623351894f2917605","679edb085803f58d6bbd31ca","679ef83a0a4cffc510bd071a","","null","<img     src='G_1.jpg' height='90'> <img     src='G_2.jpg' height='90'> <img     src='G_4.jpg' height='90'> <img      src='G_5.jpg' height='90'> <img   src='G_8.jpg' height='90'> <img       src='G_7.jpg' height='90'> <img id='selected'  src='G_3.jpg' height='90'> <img src='G_6.jpg' height='90'>","null","Animation1","",""
"","","","","","html-keyboard-response","116","861098","0.0-100.0","44","1","2025-02-02 04:44:50","bc01a2b6f61d06f6604adb8657495020","47.215.222.215","Mozilla/5.0 (Windows NT 10.0; Win64; x64; rv:134.0) Gecko/20100101 Firefox/134.0","","Firefox","134.0","Windows","10.0","https://app.prolific.com/","en-US,en;q=0.5","64012a2623351894f2917605","679edb085803f58d6bbd31ca","679ef83a0a4cffc510bd071a","","null","<img     src='G_1.jpg' height='90'> <img     src='G_2.jpg' height='90'> <img     src='G_4.jpg' height='90'> <img      src='G_5.jpg' height='90'> <img   src='G_8.jpg' height='90'> <img       src='G_7.jpg' height='90'> <img id='selected'  src='G_3.jpg' height='90'> <img id='selected' src='G_6.jpg' height='90'>","null","Animation1","",""
"","","","","","html-keyboard-response","117","861610","0.0-101.0","44","1","2025-02-02 04:44:50","bc01a2b6f61d06f6604adb8657495020","47.215.222.215","Mozilla/5.0 (Windows NT 10.0; Win64; x64; rv:134.0) Gecko/20100101 Firefox/134.0","","Firefox","134.0","Windows","10.0","https://app.prolific.com/","en-US,en;q=0.5","64012a2623351894f2917605","679edb085803f58d6bbd31ca","679ef83a0a4cffc510bd071a","","null","<img     src='G_1.jpg' height='90'> <img     src='G_2.jpg' height='90'> <img     src='G_4.jpg' height='90'> <img      src='G_5.jpg' height='90'> <img   src='G_8.jpg' height='90'> <img       src='G_7.jpg' height='90'> <img id='swapped' src='G_6.jpg' height='90'> <img id='swapped'  src='G_3.jpg' height='90'>","null","Animation1","",""
"","","","","","html-keyboard-response","118","861921","0.0-102.0","44","1","2025-02-02 04:44:50","bc01a2b6f61d06f6604adb8657495020","47.215.222.215","Mozilla/5.0 (Windows NT 10.0; Win64; x64; rv:134.0) Gecko/20100101 Firefox/134.0","","Firefox","134.0","Windows","10.0","https://app.prolific.com/","en-US,en;q=0.5","64012a2623351894f2917605","679edb085803f58d6bbd31ca","679ef83a0a4cffc510bd071a","","null","<img     src='G_1.jpg' height='90'> <img     src='G_2.jpg' height='90'> <img     src='G_4.jpg' height='90'> <img      src='G_5.jpg' height='90'> <img   src='G_8.jpg' height='90'> <img       src='G_7.jpg' height='90'> <img  src='G_6.jpg' height='90'> <img   src='G_3.jpg' height='90'>","null","Animation1","",""
"","","","","","html-keyboard-response","119","862432","0.0-103.0","44","1","2025-02-02 04:44:50","bc01a2b6f61d06f6604adb8657495020","47.215.222.215","Mozilla/5.0 (Windows NT 10.0; Win64; x64; rv:134.0) Gecko/20100101 Firefox/134.0","","Firefox","134.0","Windows","10.0","https://app.prolific.com/","en-US,en;q=0.5","64012a2623351894f2917605","679edb085803f58d6bbd31ca","679ef83a0a4cffc510bd071a","","null","<img     src='G_1.jpg' height='90'> <img     src='G_2.jpg' height='90'> <img     src='G_4.jpg' height='90'> <img      src='G_5.jpg' height='90'> <img   src='G_8.jpg' height='90'> <img id='selected'       src='G_7.jpg' height='90'> <img  src='G_6.jpg' height='90'> <img   src='G_3.jpg' height='90'>","null","Animation1","",""
"","","","","","html-keyboard-response","120","862941","0.0-104.0","44","1","2025-02-02 04:44:50","bc01a2b6f61d06f6604adb8657495020","47.215.222.215","Mozilla/5.0 (Windows NT 10.0; Win64; x64; rv:134.0) Gecko/20100101 Firefox/134.0","","Firefox","134.0","Windows","10.0","https://app.prolific.com/","en-US,en;q=0.5","64012a2623351894f2917605","679edb085803f58d6bbd31ca","679ef83a0a4cffc510bd071a","","null","<img     src='G_1.jpg' height='90'> <img     src='G_2.jpg' height='90'> <img     src='G_4.jpg' height='90'> <img      src='G_5.jpg' height='90'> <img   src='G_8.jpg' height='90'> <img id='selected'       src='G_7.jpg' height='90'> <img id='selected'  src='G_6.jpg' height='90'> <img   src='G_3.jpg' height='90'>","null","Animation1","",""
"","","","","","html-keyboard-response","121","863453","0.0-105.0","44","1","2025-02-02 04:44:50","bc01a2b6f61d06f6604adb8657495020","47.215.222.215","Mozilla/5.0 (Windows NT 10.0; Win64; x64; rv:134.0) Gecko/20100101 Firefox/134.0","","Firefox","134.0","Windows","10.0","https://app.prolific.com/","en-US,en;q=0.5","64012a2623351894f2917605","679edb085803f58d6bbd31ca","679ef83a0a4cffc510bd071a","","null","<img     src='G_1.jpg' height='90'> <img     src='G_2.jpg' height='90'> <img     src='G_4.jpg' height='90'> <img      src='G_5.jpg' height='90'> <img   src='G_8.jpg' height='90'> <img id='selected'       src='G_7.jpg' height='90'> <img id='selected'  src='G_6.jpg' height='90'> <img   src='G_3.jpg' height='90'>","null","Animation1","",""
"","","","","","html-keyboard-response","122","863763","0.0-106.0","44","1","2025-02-02 04:44:50","bc01a2b6f61d06f6604adb8657495020","47.215.222.215","Mozilla/5.0 (Windows NT 10.0; Win64; x64; rv:134.0) Gecko/20100101 Firefox/134.0","","Firefox","134.0","Windows","10.0","https://app.prolific.com/","en-US,en;q=0.5","64012a2623351894f2917605","679edb085803f58d6bbd31ca","679ef83a0a4cffc510bd071a","","null","<img     src='G_1.jpg' height='90'> <img     src='G_2.jpg' height='90'> <img     src='G_4.jpg' height='90'> <img      src='G_5.jpg' height='90'> <img   src='G_8.jpg' height='90'> <img        src='G_7.jpg' height='90'> <img   src='G_6.jpg' height='90'> <img   src='G_3.jpg' height='90'>","null","Animation1","",""
"","","","","","html-keyboard-response","123","880560","0.0-107.0","44","1","2025-02-02 04:44:50","bc01a2b6f61d06f6604adb8657495020","47.215.222.215","Mozilla/5.0 (Windows NT 10.0; Win64; x64; rv:134.0) Gecko/20100101 Firefox/134.0","","Firefox","134.0","Windows","10.0","https://app.prolific.com/","en-US,en;q=0.5","64012a2623351894f2917605","679edb085803f58d6bbd31ca","679ef83a0a4cffc510bd071a","","16794","[""Did you notice any patterns? <br><br>Press Enter to watch that example again and follow the steps of Omgne Sort.""]","enter","","",""
"","","","","","html-button-response","124","880973","0.0-108.0","44","1","2025-02-02 04:44:50","bc01a2b6f61d06f6604adb8657495020","47.215.222.215","Mozilla/5.0 (Windows NT 10.0; Win64; x64; rv:134.0) Gecko/20100101 Firefox/134.0","","Firefox","134.0","Windows","10.0","https://app.prolific.com/","en-US,en;q=0.5","64012a2623351894f2917605","679edb085803f58d6bbd31ca","679ef83a0a4cffc510bd071a","","null","<img id='selected' src='G_5.jpg' height='90'> <img src='G_7.jpg' height='90'> <img src='G_4.jpg' height='90'> <img src='G_1.jpg' height='90'> <img src='G_2.jpg' height='90'> <img src='G_8.jpg' height='90'> <img src='G_3.jpg' height='90'> <img src='G_6.jpg' height='90'>","null","Learning example 1","",""
"","","","","","html-button-response","125","881282","0.0-109.0","44","1","2025-02-02 04:44:50","bc01a2b6f61d06f6604adb8657495020","47.215.222.215","Mozilla/5.0 (Windows NT 10.0; Win64; x64; rv:134.0) Gecko/20100101 Firefox/134.0","","Firefox","134.0","Windows","10.0","https://app.prolific.com/","en-US,en;q=0.5","64012a2623351894f2917605","679edb085803f58d6bbd31ca","679ef83a0a4cffc510bd071a","","null","<img id='selected' src='G_5.jpg' height='90'> <img id='selected' src='G_7.jpg' height='90'> <img src='G_4.jpg' height='90'> <img src='G_1.jpg' height='90'> <img src='G_2.jpg' height='90'> <img src='G_8.jpg' height='90'> <img src='G_3.jpg' height='90'> <img src='G_6.jpg' height='90'>","null","Learning example 1","",""
"","","","","","html-button-response","126","881592","0.0-110.0","44","1","2025-02-02 04:44:50","bc01a2b6f61d06f6604adb8657495020","47.215.222.215","Mozilla/5.0 (Windows NT 10.0; Win64; x64; rv:134.0) Gecko/20100101 Firefox/134.0","","Firefox","134.0","Windows","10.0","https://app.prolific.com/","en-US,en;q=0.5","64012a2623351894f2917605","679edb085803f58d6bbd31ca","679ef83a0a4cffc510bd071a","","null","<img id='selected' src='G_5.jpg' height='90'> <img id='selected' src='G_7.jpg' height='90'> <img src='G_4.jpg' height='90'> <img src='G_1.jpg' height='90'> <img src='G_2.jpg' height='90'> <img src='G_8.jpg' height='90'> <img src='G_3.jpg' height='90'> <img src='G_6.jpg' height='90'>","null","Learning example 1","",""
"","","","","","html-button-response","127","887824","0.0-111.0-0.0-0.0","44","1","2025-02-02 04:44:50","bc01a2b6f61d06f6604adb8657495020","47.215.222.215","Mozilla/5.0 (Windows NT 10.0; Win64; x64; rv:134.0) Gecko/20100101 Firefox/134.0","","Firefox","134.0","Windows","10.0","https://app.prolific.com/","en-US,en;q=0.5","64012a2623351894f2917605","679edb085803f58d6bbd31ca","679ef83a0a4cffc510bd071a","","6226","<img id='selected' src='G_5.jpg' height='90'> <img id='selected' src='G_7.jpg' height='90'> <img src='G_4.jpg' height='90'> <img src='G_1.jpg' height='90'> <img src='G_2.jpg' height='90'> <img src='G_8.jpg' height='90'> <img src='G_3.jpg' height='90'> <img src='G_6.jpg' height='90'>","0","Learning example 1","",""
"","","","","","html-button-response","128","888403","0.0-111.1-0.1-0.1","44","1","2025-02-02 04:44:50","bc01a2b6f61d06f6604adb8657495020","47.215.222.215","Mozilla/5.0 (Windows NT 10.0; Win64; x64; rv:134.0) Gecko/20100101 Firefox/134.0","","Firefox","134.0","Windows","10.0","https://app.prolific.com/","en-US,en;q=0.5","64012a2623351894f2917605","679edb085803f58d6bbd31ca","679ef83a0a4cffc510bd071a","","570","<img id='selected' src='G_5.jpg' height='90'> <img id='selected' src='G_7.jpg' height='90'> <img src='G_4.jpg' height='90'> <img src='G_1.jpg' height='90'> <img src='G_2.jpg' height='90'> <img src='G_8.jpg' height='90'> <img src='G_3.jpg' height='90'> <img src='G_6.jpg' height='90'>","1","Learning example 1","",""
"","","","","","html-button-response","129","888614","0.0-112.0","44","1","2025-02-02 04:44:50","bc01a2b6f61d06f6604adb8657495020","47.215.222.215","Mozilla/5.0 (Windows NT 10.0; Win64; x64; rv:134.0) Gecko/20100101 Firefox/134.0","","Firefox","134.0","Windows","10.0","https://app.prolific.com/","en-US,en;q=0.5","64012a2623351894f2917605","679edb085803f58d6bbd31ca","679ef83a0a4cffc510bd071a","","null","<img  src='G_5.jpg' height='90'> <img  src='G_7.jpg' height='90'> <img src='G_4.jpg' height='90'> <img src='G_1.jpg' height='90'> <img src='G_2.jpg' height='90'> <img src='G_8.jpg' height='90'> <img src='G_3.jpg' height='90'> <img src='G_6.jpg' height='90'>","null","Learning example 1","",""
"","","","","","html-button-response","130","889032","0.0-113.0","44","1","2025-02-02 04:44:50","bc01a2b6f61d06f6604adb8657495020","47.215.222.215","Mozilla/5.0 (Windows NT 10.0; Win64; x64; rv:134.0) Gecko/20100101 Firefox/134.0","","Firefox","134.0","Windows","10.0","https://app.prolific.com/","en-US,en;q=0.5","64012a2623351894f2917605","679edb085803f58d6bbd31ca","679ef83a0a4cffc510bd071a","","null","<img  src='G_5.jpg' height='90'> <img id='selected'  src='G_7.jpg' height='90'> <img src='G_4.jpg' height='90'> <img src='G_1.jpg' height='90'> <img src='G_2.jpg' height='90'> <img src='G_8.jpg' height='90'> <img src='G_3.jpg' height='90'> <img src='G_6.jpg' height='90'>","null","Learning example 1","",""
"","","","","","html-button-response","131","889344","0.0-114.0","44","1","2025-02-02 04:44:50","bc01a2b6f61d06f6604adb8657495020","47.215.222.215","Mozilla/5.0 (Windows NT 10.0; Win64; x64; rv:134.0) Gecko/20100101 Firefox/134.0","","Firefox","134.0","Windows","10.0","https://app.prolific.com/","en-US,en;q=0.5","64012a2623351894f2917605","679edb085803f58d6bbd31ca","679ef83a0a4cffc510bd071a","","null","<img  src='G_5.jpg' height='90'> <img id='selected'  src='G_7.jpg' height='90'> <img id='selected' src='G_4.jpg' height='90'> <img src='G_1.jpg' height='90'> <img src='G_2.jpg' height='90'> <img src='G_8.jpg' height='90'> <img src='G_3.jpg' height='90'> <img src='G_6.jpg' height='90'>","null","Learning example 1","",""
"","","","","","html-button-response","132","889661","0.0-115.0","44","1","2025-02-02 04:44:50","bc01a2b6f61d06f6604adb8657495020","47.215.222.215","Mozilla/5.0 (Windows NT 10.0; Win64; x64; rv:134.0) Gecko/20100101 Firefox/134.0","","Firefox","134.0","Windows","10.0","https://app.prolific.com/","en-US,en;q=0.5","64012a2623351894f2917605","679edb085803f58d6bbd31ca","679ef83a0a4cffc510bd071a","","null","<img  src='G_5.jpg' height='90'> <img id='swapped' src='G_4.jpg' height='90'> <img id='swapped'  src='G_7.jpg' height='90'> <img src='G_1.jpg' height='90'> <img src='G_2.jpg' height='90'> <img src='G_8.jpg' height='90'> <img src='G_3.jpg' height='90'> <img src='G_6.jpg' height='90'>","null","Learning example 1","",""
"","","","","","html-button-response","133","890209","0.0-116.0-0.0-0.0","44","1","2025-02-02 04:44:50","bc01a2b6f61d06f6604adb8657495020","47.215.222.215","Mozilla/5.0 (Windows NT 10.0; Win64; x64; rv:134.0) Gecko/20100101 Firefox/134.0","","Firefox","134.0","Windows","10.0","https://app.prolific.com/","en-US,en;q=0.5","64012a2623351894f2917605","679edb085803f58d6bbd31ca","679ef83a0a4cffc510bd071a","","544","<img  src='G_5.jpg' height='90'> <img id='swapped' src='G_4.jpg' height='90'> <img id='swapped'  src='G_7.jpg' height='90'> <img src='G_1.jpg' height='90'> <img src='G_2.jpg' height='90'> <img src='G_8.jpg' height='90'> <img src='G_3.jpg' height='90'> <img src='G_6.jpg' height='90'>","1","Learning example 1","",""
"","","","","","html-button-response","134","890602","0.0-116.1-0.1-0.1","44","1","2025-02-02 04:44:50","bc01a2b6f61d06f6604adb8657495020","47.215.222.215","Mozilla/5.0 (Windows NT 10.0; Win64; x64; rv:134.0) Gecko/20100101 Firefox/134.0","","Firefox","134.0","Windows","10.0","https://app.prolific.com/","en-US,en;q=0.5","64012a2623351894f2917605","679edb085803f58d6bbd31ca","679ef83a0a4cffc510bd071a","","387","<img  src='G_5.jpg' height='90'> <img id='swapped' src='G_4.jpg' height='90'> <img id='swapped'  src='G_7.jpg' height='90'> <img src='G_1.jpg' height='90'> <img src='G_2.jpg' height='90'> <img src='G_8.jpg' height='90'> <img src='G_3.jpg' height='90'> <img src='G_6.jpg' height='90'>","2","Learning example 1","",""
"","","","","","html-button-response","135","890819","0.0-117.0","44","1","2025-02-02 04:44:50","bc01a2b6f61d06f6604adb8657495020","47.215.222.215","Mozilla/5.0 (Windows NT 10.0; Win64; x64; rv:134.0) Gecko/20100101 Firefox/134.0","","Firefox","134.0","Windows","10.0","https://app.prolific.com/","en-US,en;q=0.5","64012a2623351894f2917605","679edb085803f58d6bbd31ca","679ef83a0a4cffc510bd071a","","null","<img  src='G_5.jpg' height='90'> <img  src='G_4.jpg' height='90'> <img   src='G_7.jpg' height='90'> <img src='G_1.jpg' height='90'> <img src='G_2.jpg' height='90'> <img src='G_8.jpg' height='90'> <img src='G_3.jpg' height='90'> <img src='G_6.jpg' height='90'>","null","Learning example 1","",""
"","","","","","html-button-response","136","891223","0.0-118.0","44","1","2025-02-02 04:44:50","bc01a2b6f61d06f6604adb8657495020","47.215.222.215","Mozilla/5.0 (Windows NT 10.0; Win64; x64; rv:134.0) Gecko/20100101 Firefox/134.0","","Firefox","134.0","Windows","10.0","https://app.prolific.com/","en-US,en;q=0.5","64012a2623351894f2917605","679edb085803f58d6bbd31ca","679ef83a0a4cffc510bd071a","","null","<img id='selected'  src='G_5.jpg' height='90'> <img  src='G_4.jpg' height='90'> <img   src='G_7.jpg' height='90'> <img src='G_1.jpg' height='90'> <img src='G_2.jpg' height='90'> <img src='G_8.jpg' height='90'> <img src='G_3.jpg' height='90'> <img src='G_6.jpg' height='90'>","null","Learning example 1","",""
"","","","","","html-button-response","137","891538","0.0-119.0","44","1","2025-02-02 04:44:50","bc01a2b6f61d06f6604adb8657495020","47.215.222.215","Mozilla/5.0 (Windows NT 10.0; Win64; x64; rv:134.0) Gecko/20100101 Firefox/134.0","","Firefox","134.0","Windows","10.0","https://app.prolific.com/","en-US,en;q=0.5","64012a2623351894f2917605","679edb085803f58d6bbd31ca","679ef83a0a4cffc510bd071a","","null","<img id='selected'  src='G_5.jpg' height='90'> <img id='selected'  src='G_4.jpg' height='90'> <img   src='G_7.jpg' height='90'> <img src='G_1.jpg' height='90'> <img src='G_2.jpg' height='90'> <img src='G_8.jpg' height='90'> <img src='G_3.jpg' height='90'> <img src='G_6.jpg' height='90'>","null","Learning example 1","",""
"","","","","","html-button-response","138","891841","0.0-120.0","44","1","2025-02-02 04:44:50","bc01a2b6f61d06f6604adb8657495020","47.215.222.215","Mozilla/5.0 (Windows NT 10.0; Win64; x64; rv:134.0) Gecko/20100101 Firefox/134.0","","Firefox","134.0","Windows","10.0","https://app.prolific.com/","en-US,en;q=0.5","64012a2623351894f2917605","679edb085803f58d6bbd31ca","679ef83a0a4cffc510bd071a","","null","<img id='swapped'  src='G_4.jpg' height='90'> <img id='swapped'  src='G_5.jpg' height='90'> <img   src='G_7.jpg' height='90'> <img src='G_1.jpg' height='90'> <img src='G_2.jpg' height='90'> <img src='G_8.jpg' height='90'> <img src='G_3.jpg' height='90'> <img src='G_6.jpg' height='90'>","null","Learning example 1","",""
"","","","","","html-button-response","139","893048","0.0-121.0-0.0-0.0","44","1","2025-02-02 04:44:50","bc01a2b6f61d06f6604adb8657495020","47.215.222.215","Mozilla/5.0 (Windows NT 10.0; Win64; x64; rv:134.0) Gecko/20100101 Firefox/134.0","","Firefox","134.0","Windows","10.0","https://app.prolific.com/","en-US,en;q=0.5","64012a2623351894f2917605","679edb085803f58d6bbd31ca","679ef83a0a4cffc510bd071a","","1200","<img id='swapped'  src='G_4.jpg' height='90'> <img id='swapped'  src='G_5.jpg' height='90'> <img   src='G_7.jpg' height='90'> <img src='G_1.jpg' height='90'> <img src='G_2.jpg' height='90'> <img src='G_8.jpg' height='90'> <img src='G_3.jpg' height='90'> <img src='G_6.jpg' height='90'>","1","Learning example 1","",""
"","","","","","html-button-response","140","893661","0.0-121.1-0.1-0.1","44","1","2025-02-02 04:44:50","bc01a2b6f61d06f6604adb8657495020","47.215.222.215","Mozilla/5.0 (Windows NT 10.0; Win64; x64; rv:134.0) Gecko/20100101 Firefox/134.0","","Firefox","134.0","Windows","10.0","https://app.prolific.com/","en-US,en;q=0.5","64012a2623351894f2917605","679edb085803f58d6bbd31ca","679ef83a0a4cffc510bd071a","","609","<img id='swapped'  src='G_4.jpg' height='90'> <img id='swapped'  src='G_5.jpg' height='90'> <img   src='G_7.jpg' height='90'> <img src='G_1.jpg' height='90'> <img src='G_2.jpg' height='90'> <img src='G_8.jpg' height='90'> <img src='G_3.jpg' height='90'> <img src='G_6.jpg' height='90'>","0","Learning example 1","",""
"","","","","","html-button-response","141","893874","0.0-122.0","44","1","2025-02-02 04:44:50","bc01a2b6f61d06f6604adb8657495020","47.215.222.215","Mozilla/5.0 (Windows NT 10.0; Win64; x64; rv:134.0) Gecko/20100101 Firefox/134.0","","Firefox","134.0","Windows","10.0","https://app.prolific.com/","en-US,en;q=0.5","64012a2623351894f2917605","679edb085803f58d6bbd31ca","679ef83a0a4cffc510bd071a","","null","<img   src='G_4.jpg' height='90'> <img   src='G_5.jpg' height='90'> <img   src='G_7.jpg' height='90'> <img src='G_1.jpg' height='90'> <img src='G_2.jpg' height='90'> <img src='G_8.jpg' height='90'> <img src='G_3.jpg' height='90'> <img src='G_6.jpg' height='90'>","null","Learning example 1","",""
"","","","","","html-button-response","142","894294","0.0-123.0","44","1","2025-02-02 04:44:50","bc01a2b6f61d06f6604adb8657495020","47.215.222.215","Mozilla/5.0 (Windows NT 10.0; Win64; x64; rv:134.0) Gecko/20100101 Firefox/134.0","","Firefox","134.0","Windows","10.0","https://app.prolific.com/","en-US,en;q=0.5","64012a2623351894f2917605","679edb085803f58d6bbd31ca","679ef83a0a4cffc510bd071a","","null","<img   src='G_4.jpg' height='90'> <img   src='G_5.jpg' height='90'> <img id='selected'   src='G_7.jpg' height='90'> <img src='G_1.jpg' height='90'> <img src='G_2.jpg' height='90'> <img src='G_8.jpg' height='90'> <img src='G_3.jpg' height='90'> <img src='G_6.jpg' height='90'>","null","Learning example 1","",""
"","","","","","html-button-response","143","894607","0.0-124.0","44","1","2025-02-02 04:44:50","bc01a2b6f61d06f6604adb8657495020","47.215.222.215","Mozilla/5.0 (Windows NT 10.0; Win64; x64; rv:134.0) Gecko/20100101 Firefox/134.0","","Firefox","134.0","Windows","10.0","https://app.prolific.com/","en-US,en;q=0.5","64012a2623351894f2917605","679edb085803f58d6bbd31ca","679ef83a0a4cffc510bd071a","","null","<img   src='G_4.jpg' height='90'> <img   src='G_5.jpg' height='90'> <img id='selected'   src='G_7.jpg' height='90'> <img id='selected' src='G_1.jpg' height='90'> <img src='G_2.jpg' height='90'> <img src='G_8.jpg' height='90'> <img src='G_3.jpg' height='90'> <img src='G_6.jpg' height='90'>","null","Learning example 1","",""
"","","","","","html-button-response","144","894918","0.0-125.0","44","1","2025-02-02 04:44:50","bc01a2b6f61d06f6604adb8657495020","47.215.222.215","Mozilla/5.0 (Windows NT 10.0; Win64; x64; rv:134.0) Gecko/20100101 Firefox/134.0","","Firefox","134.0","Windows","10.0","https://app.prolific.com/","en-US,en;q=0.5","64012a2623351894f2917605","679edb085803f58d6bbd31ca","679ef83a0a4cffc510bd071a","","null","<img   src='G_4.jpg' height='90'> <img   src='G_5.jpg' height='90'> <img id='swapped' src='G_1.jpg' height='90'> <img id='swapped'   src='G_7.jpg' height='90'> <img src='G_2.jpg' height='90'> <img src='G_8.jpg' height='90'> <img src='G_3.jpg' height='90'> <img src='G_6.jpg' height='90'>","null","Learning example 1","",""
"","","","","","html-button-response","145","895213","0.0-126.0-0.0-0.0","44","1","2025-02-02 04:44:50","bc01a2b6f61d06f6604adb8657495020","47.215.222.215","Mozilla/5.0 (Windows NT 10.0; Win64; x64; rv:134.0) Gecko/20100101 Firefox/134.0","","Firefox","134.0","Windows","10.0","https://app.prolific.com/","en-US,en;q=0.5","64012a2623351894f2917605","679edb085803f58d6bbd31ca","679ef83a0a4cffc510bd071a","","290","<img   src='G_4.jpg' height='90'> <img   src='G_5.jpg' height='90'> <img id='swapped' src='G_1.jpg' height='90'> <img id='swapped'   src='G_7.jpg' height='90'> <img src='G_2.jpg' height='90'> <img src='G_8.jpg' height='90'> <img src='G_3.jpg' height='90'> <img src='G_6.jpg' height='90'>","2","Learning example 1","",""
"","","","","","html-button-response","146","895613","0.0-126.1-0.1-0.1","44","1","2025-02-02 04:44:50","bc01a2b6f61d06f6604adb8657495020","47.215.222.215","Mozilla/5.0 (Windows NT 10.0; Win64; x64; rv:134.0) Gecko/20100101 Firefox/134.0","","Firefox","134.0","Windows","10.0","https://app.prolific.com/","en-US,en;q=0.5","64012a2623351894f2917605","679edb085803f58d6bbd31ca","679ef83a0a4cffc510bd071a","","393","<img   src='G_4.jpg' height='90'> <img   src='G_5.jpg' height='90'> <img id='swapped' src='G_1.jpg' height='90'> <img id='swapped'   src='G_7.jpg' height='90'> <img src='G_2.jpg' height='90'> <img src='G_8.jpg' height='90'> <img src='G_3.jpg' height='90'> <img src='G_6.jpg' height='90'>","3","Learning example 1","",""
"","","","","","html-button-response","147","895830","0.0-127.0","44","1","2025-02-02 04:44:50","bc01a2b6f61d06f6604adb8657495020","47.215.222.215","Mozilla/5.0 (Windows NT 10.0; Win64; x64; rv:134.0) Gecko/20100101 Firefox/134.0","","Firefox","134.0","Windows","10.0","https://app.prolific.com/","en-US,en;q=0.5","64012a2623351894f2917605","679edb085803f58d6bbd31ca","679ef83a0a4cffc510bd071a","","null","<img   src='G_4.jpg' height='90'> <img   src='G_5.jpg' height='90'> <img  src='G_1.jpg' height='90'> <img    src='G_7.jpg' height='90'> <img src='G_2.jpg' height='90'> <img src='G_8.jpg' height='90'> <img src='G_3.jpg' height='90'> <img src='G_6.jpg' height='90'>","null","Learning example 1","",""
"","","","","","html-button-response","148","896246","0.0-128.0","44","1","2025-02-02 04:44:50","bc01a2b6f61d06f6604adb8657495020","47.215.222.215","Mozilla/5.0 (Windows NT 10.0; Win64; x64; rv:134.0) Gecko/20100101 Firefox/134.0","","Firefox","134.0","Windows","10.0","https://app.prolific.com/","en-US,en;q=0.5","64012a2623351894f2917605","679edb085803f58d6bbd31ca","679ef83a0a4cffc510bd071a","","null","<img   src='G_4.jpg' height='90'> <img id='selected'   src='G_5.jpg' height='90'> <img  src='G_1.jpg' height='90'> <img    src='G_7.jpg' height='90'> <img src='G_2.jpg' height='90'> <img src='G_8.jpg' height='90'> <img src='G_3.jpg' height='90'> <img src='G_6.jpg' height='90'>","null","Learning example 1","",""
