"success","timeout","failed_images","failed_audio","failed_video","trial_type","trial_index","time_elapsed","internal_node_id","run_id","condition","recorded_at","source_code_version","ip","user_agent","device","browser","browser_version","platform","platform_version","referer","accept_language","PROLIFIC_PID","STUDY_ID","SESSION_ID","view_history","rt","stimulus","response","phase","question_order","presented_choices"
"true","false","[]","[]","[]","preload","0","238","0.0-0.0","45","1","2025-02-02 04:50:15","bc01a2b6f61d06f6604adb8657495020","68.161.162.68","Mozilla/5.0 (Windows NT 10.0; Win64; x64) AppleWebKit/537.36 (KHTML, like Gecko) Chrome/132.0.0.0 Safari/537.36","WebKit","Chrome","132.0.0.0","Windows","10.0","https://app.prolific.com/","en-US,en;q=0.9","5aa806e7777df200016088c5","679edb085803f58d6bbd31ca","679ef93acf36ed17eee64d2d","","","","","","",""
"","","","","","instructions","1","19464","0.0-1.0","45","1","2025-02-02 04:50:15","bc01a2b6f61d06f6604adb8657495020","68.161.162.68","Mozilla/5.0 (Windows NT 10.0; Win64; x64) AppleWebKit/537.36 (KHTML, like Gecko) Chrome/132.0.0.0 Safari/537.36","WebKit","Chrome","132.0.0.0","Windows","10.0","https://app.prolific.com/","en-US,en;q=0.9","5aa806e7777df200016088c5","679edb085803f58d6bbd31ca","679ef93acf36ed17eee64d2d","[{""page_index"":0,""viewing_time"":19222}]","19223","","","","",""
"","","","","","html-keyboard-response","2","19974","0.0-2.0","45","1","2025-02-02 04:50:15","bc01a2b6f61d06f6604adb8657495020","68.161.162.68","Mozilla/5.0 (Windows NT 10.0; Win64; x64) AppleWebKit/537.36 (KHTML, like Gecko) Chrome/132.0.0.0 Safari/537.36","WebKit","Chrome","132.0.0.0","Windows","10.0","https://app.prolific.com/","en-US,en;q=0.9","5aa806e7777df200016088c5","679edb085803f58d6bbd31ca","679ef93acf36ed17eee64d2d","","null","<p> + <p/>","null","","",""
"","","","","","instructions","3","64349","0.0-3.0","45","1","2025-02-02 04:50:15","bc01a2b6f61d06f6604adb8657495020","68.161.162.68","Mozilla/5.0 (Windows NT 10.0; Win64; x64) AppleWebKit/537.36 (KHTML, like Gecko) Chrome/132.0.0.0 Safari/537.36","WebKit","Chrome","132.0.0.0","Windows","10.0","https://app.prolific.com/","en-US,en;q=0.9","5aa806e7777df200016088c5","679edb085803f58d6bbd31ca","679ef93acf36ed17eee64d2d","[{""page_index"":0,""viewing_time"":14968},{""page_index"":1,""viewing_time"":12199},{""page_index"":2,""viewing_time"":6936},{""page_index"":3,""viewing_time"":2930},{""page_index"":4,""viewing_time"":7341}]","44373","","","","",""
"","","","","","html-button-response","4","66318","0.0-4.0-0.0-0.0","45","1","2025-02-02 04:50:15","bc01a2b6f61d06f6604adb8657495020","68.161.162.68","Mozilla/5.0 (Windows NT 10.0; Win64; x64) AppleWebKit/537.36 (KHTML, like Gecko) Chrome/132.0.0.0 Safari/537.36","WebKit","Chrome","132.0.0.0","Windows","10.0","https://app.prolific.com/","en-US,en;q=0.9","5aa806e7777df200016088c5","679edb085803f58d6bbd31ca","679ef93acf36ed17eee64d2d","","1967","","0","Intro Trial","",""
"","","","","","html-button-response","5","68849","0.0-4.1-0.1-0.1","45","1","2025-02-02 04:50:15","bc01a2b6f61d06f6604adb8657495020","68.161.162.68","Mozilla/5.0 (Windows NT 10.0; Win64; x64) AppleWebKit/537.36 (KHTML, like Gecko) Chrome/132.0.0.0 Safari/537.36","WebKit","Chrome","132.0.0.0","Windows","10.0","https://app.prolific.com/","en-US,en;q=0.9","5aa806e7777df200016088c5","679edb085803f58d6bbd31ca","679ef93acf36ed17eee64d2d","","2530","","3","Intro Trial","",""
"","","","","","html-button-response","6","79026","0.0-4.2-0.2-0.2","45","1","2025-02-02 04:50:15","bc01a2b6f61d06f6604adb8657495020","68.161.162.68","Mozilla/5.0 (Windows NT 10.0; Win64; x64) AppleWebKit/537.36 (KHTML, like Gecko) Chrome/132.0.0.0 Safari/537.36","WebKit","Chrome","132.0.0.0","Windows","10.0","https://app.prolific.com/","en-US,en;q=0.9","5aa806e7777df200016088c5","679edb085803f58d6bbd31ca","679ef93acf36ed17eee64d2d","","10175","","0","Intro Trial","",""
"","","","","","html-button-response","7","82057","0.0-4.3-0.3-0.3","45","1","2025-02-02 04:50:15","bc01a2b6f61d06f6604adb8657495020","68.161.162.68","Mozilla/5.0 (Windows NT 10.0; Win64; x64) AppleWebKit/537.36 (KHTML, like Gecko) Chrome/132.0.0.0 Safari/537.36","WebKit","Chrome","132.0.0.0","Windows","10.0","https://app.prolific.com/","en-US,en;q=0.9","5aa806e7777df200016088c5","679edb085803f58d6bbd31ca","679ef93acf36ed17eee64d2d","","3029","","1","Intro Trial","",""
"","","","","","html-button-response","8","89988","0.0-4.4-0.4-0.4","45","1","2025-02-02 04:50:15","bc01a2b6f61d06f6604adb8657495020","68.161.162.68","Mozilla/5.0 (Windows NT 10.0; Win64; x64) AppleWebKit/537.36 (KHTML, like Gecko) Chrome/132.0.0.0 Safari/537.36","WebKit","Chrome","132.0.0.0","Windows","10.0","https://app.prolific.com/","en-US,en;q=0.9","5aa806e7777df200016088c5","679edb085803f58d6bbd31ca","679ef93acf36ed17eee64d2d","","7929","","2","Intro Trial","",""
"","","","","","html-button-response","9","90979","0.0-4.5-0.5-0.5","45","1","2025-02-02 04:50:15","bc01a2b6f61d06f6604adb8657495020","68.161.162.68","Mozilla/5.0 (Windows NT 10.0; Win64; x64) AppleWebKit/537.36 (KHTML, like Gecko) Chrome/132.0.0.0 Safari/537.36","WebKit","Chrome","132.0.0.0","Windows","10.0","https://app.prolific.com/","en-US,en;q=0.9","5aa806e7777df200016088c5","679edb085803f58d6bbd31ca","679ef93acf36ed17eee64d2d","","989","","0","Intro Trial","",""
"","","","","","html-button-response","10","92534","0.0-4.6-0.6-0.6","45","1","2025-02-02 04:50:15","bc01a2b6f61d06f6604adb8657495020","68.161.162.68","Mozilla/5.0 (Windows NT 10.0; Win64; x64) AppleWebKit/537.36 (KHTML, like Gecko) Chrome/132.0.0.0 Safari/537.36","WebKit","Chrome","132.0.0.0","Windows","10.0","https://app.prolific.com/","en-US,en;q=0.9","5aa806e7777df200016088c5","679edb085803f58d6bbd31ca","679ef93acf36ed17eee64d2d","","1553","","3","Intro Trial","",""
"","","","","","html-button-response","11","93472","0.0-4.7-0.7-0.7","45","1","2025-02-02 04:50:15","bc01a2b6f61d06f6604adb8657495020","68.161.162.68","Mozilla/5.0 (Windows NT 10.0; Win64; x64) AppleWebKit/537.36 (KHTML, like Gecko) Chrome/132.0.0.0 Safari/537.36","WebKit","Chrome","132.0.0.0","Windows","10.0","https://app.prolific.com/","en-US,en;q=0.9","5aa806e7777df200016088c5","679edb085803f58d6bbd31ca","679ef93acf36ed17eee64d2d","","936","","1","Intro Trial","",""
"","","","","","html-button-response","12","94794","0.0-4.8-0.8-0.8","45","1","2025-02-02 04:50:15","bc01a2b6f61d06f6604adb8657495020","68.161.162.68","Mozilla/5.0 (Windows NT 10.0; Win64; x64) AppleWebKit/537.36 (KHTML, like Gecko) Chrome/132.0.0.0 Safari/537.36","WebKit","Chrome","132.0.0.0","Windows","10.0","https://app.prolific.com/","en-US,en;q=0.9","5aa806e7777df200016088c5","679edb085803f58d6bbd31ca","679ef93acf36ed17eee64d2d","","1320","","4","Intro Trial","",""
"","","","","","html-button-response","13","95752","0.0-4.9-0.9-0.9","45","1","2025-02-02 04:50:15","bc01a2b6f61d06f6604adb8657495020","68.161.162.68","Mozilla/5.0 (Windows NT 10.0; Win64; x64) AppleWebKit/537.36 (KHTML, like Gecko) Chrome/132.0.0.0 Safari/537.36","WebKit","Chrome","132.0.0.0","Windows","10.0","https://app.prolific.com/","en-US,en;q=0.9","5aa806e7777df200016088c5","679edb085803f58d6bbd31ca","679ef93acf36ed17eee64d2d","","956","","2","Intro Trial","",""
"","","","","","html-button-response","14","99351","0.0-4.10-0.10-0.10","45","1","2025-02-02 04:50:15","bc01a2b6f61d06f6604adb8657495020","68.161.162.68","Mozilla/5.0 (Windows NT 10.0; Win64; x64) AppleWebKit/537.36 (KHTML, like Gecko) Chrome/132.0.0.0 Safari/537.36","WebKit","Chrome","132.0.0.0","Windows","10.0","https://app.prolific.com/","en-US,en;q=0.9","5aa806e7777df200016088c5","679edb085803f58d6bbd31ca","679ef93acf36ed17eee64d2d","","3598","","4","Intro Trial","",""
"","","","","","html-button-response","15","100088","0.0-4.11-0.11-0.11","45","1","2025-02-02 04:50:15","bc01a2b6f61d06f6604adb8657495020","68.161.162.68","Mozilla/5.0 (Windows NT 10.0; Win64; x64) AppleWebKit/537.36 (KHTML, like Gecko) Chrome/132.0.0.0 Safari/537.36","WebKit","Chrome","132.0.0.0","Windows","10.0","https://app.prolific.com/","en-US,en;q=0.9","5aa806e7777df200016088c5","679edb085803f58d6bbd31ca","679ef93acf36ed17eee64d2d","","735","","3","Intro Trial","",""
"","","","","","html-button-response","16","102509","0.0-4.12-0.12-0.12","45","1","2025-02-02 04:50:15","bc01a2b6f61d06f6604adb8657495020","68.161.162.68","Mozilla/5.0 (Windows NT 10.0; Win64; x64) AppleWebKit/537.36 (KHTML, like Gecko) Chrome/132.0.0.0 Safari/537.36","WebKit","Chrome","132.0.0.0","Windows","10.0","https://app.prolific.com/","en-US,en;q=0.9","5aa806e7777df200016088c5","679edb085803f58d6bbd31ca","679ef93acf36ed17eee64d2d","","2419","","4","Intro Trial","",""
"","","","","","html-button-response","17","103182","0.0-4.13-0.13-0.13","45","1","2025-02-02 04:50:15","bc01a2b6f61d06f6604adb8657495020","68.161.162.68","Mozilla/5.0 (Windows NT 10.0; Win64; x64) AppleWebKit/537.36 (KHTML, like Gecko) Chrome/132.0.0.0 Safari/537.36","WebKit","Chrome","132.0.0.0","Windows","10.0","https://app.prolific.com/","en-US,en;q=0.9","5aa806e7777df200016088c5","679edb085803f58d6bbd31ca","679ef93acf36ed17eee64d2d","","671","","3","Intro Trial","",""
"","","","","","html-button-response","18","104409","0.0-4.14-0.14-0.14","45","1","2025-02-02 04:50:15","bc01a2b6f61d06f6604adb8657495020","68.161.162.68","Mozilla/5.0 (Windows NT 10.0; Win64; x64) AppleWebKit/537.36 (KHTML, like Gecko) Chrome/132.0.0.0 Safari/537.36","WebKit","Chrome","132.0.0.0","Windows","10.0","https://app.prolific.com/","en-US,en;q=0.9","5aa806e7777df200016088c5","679edb085803f58d6bbd31ca","679ef93acf36ed17eee64d2d","","1224","","4","Intro Trial","",""
"","","","","","html-button-response","19","105284","0.0-4.15-0.15-0.15","45","1","2025-02-02 04:50:15","bc01a2b6f61d06f6604adb8657495020","68.161.162.68","Mozilla/5.0 (Windows NT 10.0; Win64; x64) AppleWebKit/537.36 (KHTML, like Gecko) Chrome/132.0.0.0 Safari/537.36","WebKit","Chrome","132.0.0.0","Windows","10.0","https://app.prolific.com/","en-US,en;q=0.9","5aa806e7777df200016088c5","679edb085803f58d6bbd31ca","679ef93acf36ed17eee64d2d","","872","","2","Intro Trial","",""
"","","","","","html-button-response","20","106597","0.0-4.16-0.16-0.16","45","1","2025-02-02 04:50:15","bc01a2b6f61d06f6604adb8657495020","68.161.162.68","Mozilla/5.0 (Windows NT 10.0; Win64; x64) AppleWebKit/537.36 (KHTML, like Gecko) Chrome/132.0.0.0 Safari/537.36","WebKit","Chrome","132.0.0.0","Windows","10.0","https://app.prolific.com/","en-US,en;q=0.9","5aa806e7777df200016088c5","679edb085803f58d6bbd31ca","679ef93acf36ed17eee64d2d","","1309","","4","Intro Trial","",""
"","","","","","html-button-response","21","107798","0.0-4.17-0.17-0.17","45","1","2025-02-02 04:50:15","bc01a2b6f61d06f6604adb8657495020","68.161.162.68","Mozilla/5.0 (Windows NT 10.0; Win64; x64) AppleWebKit/537.36 (KHTML, like Gecko) Chrome/132.0.0.0 Safari/537.36","WebKit","Chrome","132.0.0.0","Windows","10.0","https://app.prolific.com/","en-US,en;q=0.9","5aa806e7777df200016088c5","679edb085803f58d6bbd31ca","679ef93acf36ed17eee64d2d","","1199","","1","Intro Trial","",""
"","","","","","html-button-response","22","108937","0.0-4.18-0.18-0.18","45","1","2025-02-02 04:50:15","bc01a2b6f61d06f6604adb8657495020","68.161.162.68","Mozilla/5.0 (Windows NT 10.0; Win64; x64) AppleWebKit/537.36 (KHTML, like Gecko) Chrome/132.0.0.0 Safari/537.36","WebKit","Chrome","132.0.0.0","Windows","10.0","https://app.prolific.com/","en-US,en;q=0.9","5aa806e7777df200016088c5","679edb085803f58d6bbd31ca","679ef93acf36ed17eee64d2d","","1136","","4","Intro Trial","",""
"","","","","","html-button-response","23","110443","0.0-4.19-0.19-0.19","45","1","2025-02-02 04:50:15","bc01a2b6f61d06f6604adb8657495020","68.161.162.68","Mozilla/5.0 (Windows NT 10.0; Win64; x64) AppleWebKit/537.36 (KHTML, like Gecko) Chrome/132.0.0.0 Safari/537.36","WebKit","Chrome","132.0.0.0","Windows","10.0","https://app.prolific.com/","en-US,en;q=0.9","5aa806e7777df200016088c5","679edb085803f58d6bbd31ca","679ef93acf36ed17eee64d2d","","1504","","0","Intro Trial","",""
"","","","","","html-button-response","24","117934","0.0-4.20-0.20-0.20","45","1","2025-02-02 04:50:15","bc01a2b6f61d06f6604adb8657495020","68.161.162.68","Mozilla/5.0 (Windows NT 10.0; Win64; x64) AppleWebKit/537.36 (KHTML, like Gecko) Chrome/132.0.0.0 Safari/537.36","WebKit","Chrome","132.0.0.0","Windows","10.0","https://app.prolific.com/","en-US,en;q=0.9","5aa806e7777df200016088c5","679edb085803f58d6bbd31ca","679ef93acf36ed17eee64d2d","","7489","","5","Intro Trial","",""
"","","","","","html-keyboard-response","25","131530","0.0-5.0","45","1","2025-02-02 04:50:15","bc01a2b6f61d06f6604adb8657495020","68.161.162.68","Mozilla/5.0 (Windows NT 10.0; Win64; x64) AppleWebKit/537.36 (KHTML, like Gecko) Chrome/132.0.0.0 Safari/537.36","WebKit","Chrome","132.0.0.0","Windows","10.0","https://app.prolific.com/","en-US,en;q=0.9","5aa806e7777df200016088c5","679edb085803f58d6bbd31ca","679ef93acf36ed17eee64d2d","","13592","[""You sorted incorrectly by using the balance 10 times. <br><br> <img src='G_2.jpg' height='90'><img src='G_1.jpg' height='90'><img src='G_5.jpg' height='90'><img src='G_3.jpg' height='90'><img src='G_4.jpg' height='90'><br><br> Your final order is 2,4,1,3,5<br><br><br>Omgne Sort in this game will allow you to sort correctly by using the balance 8 times. Press Enter to learn it!""]","enter","","",""
"","","","","","html-keyboard-response","26","136567","0.0-6.0","45","1","2025-02-02 04:50:15","bc01a2b6f61d06f6604adb8657495020","68.161.162.68","Mozilla/5.0 (Windows NT 10.0; Win64; x64) AppleWebKit/537.36 (KHTML, like Gecko) Chrome/132.0.0.0 Safari/537.36","WebKit","Chrome","132.0.0.0","Windows","10.0","https://app.prolific.com/","en-US,en;q=0.9","5aa806e7777df200016088c5","679edb085803f58d6bbd31ca","679ef93acf36ed17eee64d2d","","5036","<p>Welcome to the learning phase! <br><br> You will learn by six examples. The following learning trials will not be used to calculate your performance. <br><br> Press Enter to continue.<p/>","enter","","",""
"","","","","","html-keyboard-response","27","140210","0.0-7.0","45","1","2025-02-02 04:50:15","bc01a2b6f61d06f6604adb8657495020","68.161.162.68","Mozilla/5.0 (Windows NT 10.0; Win64; x64) AppleWebKit/537.36 (KHTML, like Gecko) Chrome/132.0.0.0 Safari/537.36","WebKit","Chrome","132.0.0.0","Windows","10.0","https://app.prolific.com/","en-US,en;q=0.9","5aa806e7777df200016088c5","679edb085803f58d6bbd31ca","679ef93acf36ed17eee64d2d","","3642","[""Example 1<br><br>You will watch Omnge Sort in action. Try to identify any patterns in the comparisons made by this method. <br><br>Press Enter to continue.""]","enter","","",""
"","","","","","html-keyboard-response","28","140715","0.0-8.0","45","1","2025-02-02 04:50:15","bc01a2b6f61d06f6604adb8657495020","68.161.162.68","Mozilla/5.0 (Windows NT 10.0; Win64; x64) AppleWebKit/537.36 (KHTML, like Gecko) Chrome/132.0.0.0 Safari/537.36","WebKit","Chrome","132.0.0.0","Windows","10.0","https://app.prolific.com/","en-US,en;q=0.9","5aa806e7777df200016088c5","679edb085803f58d6bbd31ca","679ef93acf36ed17eee64d2d","","null","<img id='selected' src='G_7.jpg' height='90'> <img src='G_9.jpg' height='90'> <img src='G_1.jpg' height='90'> <img src='G_5.jpg' height='90'> <img src='G_3.jpg' height='90'>","null","Animation0","",""
"","","","","","html-keyboard-response","29","141222","0.0-9.0","45","1","2025-02-02 04:50:15","bc01a2b6f61d06f6604adb8657495020","68.161.162.68","Mozilla/5.0 (Windows NT 10.0; Win64; x64) AppleWebKit/537.36 (KHTML, like Gecko) Chrome/132.0.0.0 Safari/537.36","WebKit","Chrome","132.0.0.0","Windows","10.0","https://app.prolific.com/","en-US,en;q=0.9","5aa806e7777df200016088c5","679edb085803f58d6bbd31ca","679ef93acf36ed17eee64d2d","","null","<img id='selected' src='G_7.jpg' height='90'> <img id='selected' src='G_9.jpg' height='90'> <img src='G_1.jpg' height='90'> <img src='G_5.jpg' height='90'> <img src='G_3.jpg' height='90'>","null","Animation0","",""
"","","","","","html-keyboard-response","30","141739","0.0-10.0","45","1","2025-02-02 04:50:15","bc01a2b6f61d06f6604adb8657495020","68.161.162.68","Mozilla/5.0 (Windows NT 10.0; Win64; x64) AppleWebKit/537.36 (KHTML, like Gecko) Chrome/132.0.0.0 Safari/537.36","WebKit","Chrome","132.0.0.0","Windows","10.0","https://app.prolific.com/","en-US,en;q=0.9","5aa806e7777df200016088c5","679edb085803f58d6bbd31ca","679ef93acf36ed17eee64d2d","","null","<img id='swapped' src='G_9.jpg' height='90'> <img id='swapped' src='G_7.jpg' height='90'> <img src='G_1.jpg' height='90'> <img src='G_5.jpg' height='90'> <img src='G_3.jpg' height='90'>","null","Animation0","",""
"","","","","","html-keyboard-response","31","142044","0.0-11.0","45","1","2025-02-02 04:50:15","bc01a2b6f61d06f6604adb8657495020","68.161.162.68","Mozilla/5.0 (Windows NT 10.0; Win64; x64) AppleWebKit/537.36 (KHTML, like Gecko) Chrome/132.0.0.0 Safari/537.36","WebKit","Chrome","132.0.0.0","Windows","10.0","https://app.prolific.com/","en-US,en;q=0.9","5aa806e7777df200016088c5","679edb085803f58d6bbd31ca","679ef93acf36ed17eee64d2d","","null","<img  src='G_9.jpg' height='90'> <img  src='G_7.jpg' height='90'> <img src='G_1.jpg' height='90'> <img src='G_5.jpg' height='90'> <img src='G_3.jpg' height='90'>","null","Animation0","",""
"","","","","","html-keyboard-response","32","142556","0.0-12.0","45","1","2025-02-02 04:50:15","bc01a2b6f61d06f6604adb8657495020","68.161.162.68","Mozilla/5.0 (Windows NT 10.0; Win64; x64) AppleWebKit/537.36 (KHTML, like Gecko) Chrome/132.0.0.0 Safari/537.36","WebKit","Chrome","132.0.0.0","Windows","10.0","https://app.prolific.com/","en-US,en;q=0.9","5aa806e7777df200016088c5","679edb085803f58d6bbd31ca","679ef93acf36ed17eee64d2d","","null","<img  src='G_9.jpg' height='90'> <img id='selected'  src='G_7.jpg' height='90'> <img src='G_1.jpg' height='90'> <img src='G_5.jpg' height='90'> <img src='G_3.jpg' height='90'>","null","Animation0","",""
"","","","","","html-keyboard-response","33","143063","0.0-13.0","45","1","2025-02-02 04:50:15","bc01a2b6f61d06f6604adb8657495020","68.161.162.68","Mozilla/5.0 (Windows NT 10.0; Win64; x64) AppleWebKit/537.36 (KHTML, like Gecko) Chrome/132.0.0.0 Safari/537.36","WebKit","Chrome","132.0.0.0","Windows","10.0","https://app.prolific.com/","en-US,en;q=0.9","5aa806e7777df200016088c5","679edb085803f58d6bbd31ca","679ef93acf36ed17eee64d2d","","null","<img  src='G_9.jpg' height='90'> <img id='selected'  src='G_7.jpg' height='90'> <img id='selected' src='G_1.jpg' height='90'> <img src='G_5.jpg' height='90'> <img src='G_3.jpg' height='90'>","null","Animation0","",""
"","","","","","html-keyboard-response","34","143580","0.0-14.0","45","1","2025-02-02 04:50:15","bc01a2b6f61d06f6604adb8657495020","68.161.162.68","Mozilla/5.0 (Windows NT 10.0; Win64; x64) AppleWebKit/537.36 (KHTML, like Gecko) Chrome/132.0.0.0 Safari/537.36","WebKit","Chrome","132.0.0.0","Windows","10.0","https://app.prolific.com/","en-US,en;q=0.9","5aa806e7777df200016088c5","679edb085803f58d6bbd31ca","679ef93acf36ed17eee64d2d","","null","<img  src='G_9.jpg' height='90'> <img id='selected'  src='G_7.jpg' height='90'> <img id='selected' src='G_1.jpg' height='90'> <img src='G_5.jpg' height='90'> <img src='G_3.jpg' height='90'>","null","Animation0","",""
"","","","","","html-keyboard-response","35","143884","0.0-15.0","45","1","2025-02-02 04:50:15","bc01a2b6f61d06f6604adb8657495020","68.161.162.68","Mozilla/5.0 (Windows NT 10.0; Win64; x64) AppleWebKit/537.36 (KHTML, like Gecko) Chrome/132.0.0.0 Safari/537.36","WebKit","Chrome","132.0.0.0","Windows","10.0","https://app.prolific.com/","en-US,en;q=0.9","5aa806e7777df200016088c5","679edb085803f58d6bbd31ca","679ef93acf36ed17eee64d2d","","null","<img  src='G_9.jpg' height='90'> <img   src='G_7.jpg' height='90'> <img  src='G_1.jpg' height='90'> <img src='G_5.jpg' height='90'> <img src='G_3.jpg' height='90'>","null","Animation0","",""
"","","","","","html-keyboard-response","36","144394","0.0-16.0","45","1","2025-02-02 04:50:15","bc01a2b6f61d06f6604adb8657495020","68.161.162.68","Mozilla/5.0 (Windows NT 10.0; Win64; x64) AppleWebKit/537.36 (KHTML, like Gecko) Chrome/132.0.0.0 Safari/537.36","WebKit","Chrome","132.0.0.0","Windows","10.0","https://app.prolific.com/","en-US,en;q=0.9","5aa806e7777df200016088c5","679edb085803f58d6bbd31ca","679ef93acf36ed17eee64d2d","","null","<img  src='G_9.jpg' height='90'> <img   src='G_7.jpg' height='90'> <img id='selected'  src='G_1.jpg' height='90'> <img src='G_5.jpg' height='90'> <img src='G_3.jpg' height='90'>","null","Animation0","",""
"","","","","","html-keyboard-response","37","144897","0.0-17.0","45","1","2025-02-02 04:50:15","bc01a2b6f61d06f6604adb8657495020","68.161.162.68","Mozilla/5.0 (Windows NT 10.0; Win64; x64) AppleWebKit/537.36 (KHTML, like Gecko) Chrome/132.0.0.0 Safari/537.36","WebKit","Chrome","132.0.0.0","Windows","10.0","https://app.prolific.com/","en-US,en;q=0.9","5aa806e7777df200016088c5","679edb085803f58d6bbd31ca","679ef93acf36ed17eee64d2d","","null","<img  src='G_9.jpg' height='90'> <img   src='G_7.jpg' height='90'> <img id='selected'  src='G_1.jpg' height='90'> <img id='selected' src='G_5.jpg' height='90'> <img src='G_3.jpg' height='90'>","null","Animation0","",""
"","","","","","html-keyboard-response","38","145409","0.0-18.0","45","1","2025-02-02 04:50:15","bc01a2b6f61d06f6604adb8657495020","68.161.162.68","Mozilla/5.0 (Windows NT 10.0; Win64; x64) AppleWebKit/537.36 (KHTML, like Gecko) Chrome/132.0.0.0 Safari/537.36","WebKit","Chrome","132.0.0.0","Windows","10.0","https://app.prolific.com/","en-US,en;q=0.9","5aa806e7777df200016088c5","679edb085803f58d6bbd31ca","679ef93acf36ed17eee64d2d","","null","<img  src='G_9.jpg' height='90'> <img   src='G_7.jpg' height='90'> <img id='selected'  src='G_1.jpg' height='90'> <img id='selected' src='G_5.jpg' height='90'> <img src='G_3.jpg' height='90'>","null","Animation0","",""
"","","","","","html-keyboard-response","39","145718","0.0-19.0","45","1","2025-02-02 04:50:15","bc01a2b6f61d06f6604adb8657495020","68.161.162.68","Mozilla/5.0 (Windows NT 10.0; Win64; x64) AppleWebKit/537.36 (KHTML, like Gecko) Chrome/132.0.0.0 Safari/537.36","WebKit","Chrome","132.0.0.0","Windows","10.0","https://app.prolific.com/","en-US,en;q=0.9","5aa806e7777df200016088c5","679edb085803f58d6bbd31ca","679ef93acf36ed17eee64d2d","","null","<img  src='G_9.jpg' height='90'> <img   src='G_7.jpg' height='90'> <img   src='G_1.jpg' height='90'> <img  src='G_5.jpg' height='90'> <img src='G_3.jpg' height='90'>","null","Animation0","",""
"","","","","","html-keyboard-response","40","146230","0.0-20.0","45","1","2025-02-02 04:50:15","bc01a2b6f61d06f6604adb8657495020","68.161.162.68","Mozilla/5.0 (Windows NT 10.0; Win64; x64) AppleWebKit/537.36 (KHTML, like Gecko) Chrome/132.0.0.0 Safari/537.36","WebKit","Chrome","132.0.0.0","Windows","10.0","https://app.prolific.com/","en-US,en;q=0.9","5aa806e7777df200016088c5","679edb085803f58d6bbd31ca","679ef93acf36ed17eee64d2d","","null","<img  src='G_9.jpg' height='90'> <img   src='G_7.jpg' height='90'> <img   src='G_1.jpg' height='90'> <img id='selected'  src='G_5.jpg' height='90'> <img src='G_3.jpg' height='90'>","null","Animation0","",""
"","","","","","html-keyboard-response","41","146742","0.0-21.0","45","1","2025-02-02 04:50:15","bc01a2b6f61d06f6604adb8657495020","68.161.162.68","Mozilla/5.0 (Windows NT 10.0; Win64; x64) AppleWebKit/537.36 (KHTML, like Gecko) Chrome/132.0.0.0 Safari/537.36","WebKit","Chrome","132.0.0.0","Windows","10.0","https://app.prolific.com/","en-US,en;q=0.9","5aa806e7777df200016088c5","679edb085803f58d6bbd31ca","679ef93acf36ed17eee64d2d","","null","<img  src='G_9.jpg' height='90'> <img   src='G_7.jpg' height='90'> <img   src='G_1.jpg' height='90'> <img id='selected'  src='G_5.jpg' height='90'> <img id='selected' src='G_3.jpg' height='90'>","null","Animation0","",""
"","","","","","html-keyboard-response","42","147249","0.0-22.0","45","1","2025-02-02 04:50:15","bc01a2b6f61d06f6604adb8657495020","68.161.162.68","Mozilla/5.0 (Windows NT 10.0; Win64; x64) AppleWebKit/537.36 (KHTML, like Gecko) Chrome/132.0.0.0 Safari/537.36","WebKit","Chrome","132.0.0.0","Windows","10.0","https://app.prolific.com/","en-US,en;q=0.9","5aa806e7777df200016088c5","679edb085803f58d6bbd31ca","679ef93acf36ed17eee64d2d","","null","<img  src='G_9.jpg' height='90'> <img   src='G_7.jpg' height='90'> <img   src='G_1.jpg' height='90'> <img id='selected'  src='G_5.jpg' height='90'> <img id='selected' src='G_3.jpg' height='90'>","null","Animation0","",""
"","","","","","html-keyboard-response","43","147554","0.0-23.0","45","1","2025-02-02 04:50:15","bc01a2b6f61d06f6604adb8657495020","68.161.162.68","Mozilla/5.0 (Windows NT 10.0; Win64; x64) AppleWebKit/537.36 (KHTML, like Gecko) Chrome/132.0.0.0 Safari/537.36","WebKit","Chrome","132.0.0.0","Windows","10.0","https://app.prolific.com/","en-US,en;q=0.9","5aa806e7777df200016088c5","679edb085803f58d6bbd31ca","679ef93acf36ed17eee64d2d","","null","<img  src='G_9.jpg' height='90'> <img   src='G_7.jpg' height='90'> <img   src='G_1.jpg' height='90'> <img   src='G_5.jpg' height='90'> <img  src='G_3.jpg' height='90'>","null","Animation0","",""
"","","","","","html-keyboard-response","44","152492","0.0-24.0","45","1","2025-02-02 04:50:15","bc01a2b6f61d06f6604adb8657495020","68.161.162.68","Mozilla/5.0 (Windows NT 10.0; Win64; x64) AppleWebKit/537.36 (KHTML, like Gecko) Chrome/132.0.0.0 Safari/537.36","WebKit","Chrome","132.0.0.0","Windows","10.0","https://app.prolific.com/","en-US,en;q=0.9","5aa806e7777df200016088c5","679edb085803f58d6bbd31ca","679ef93acf36ed17eee64d2d","","4935","[""Did you notice any patterns? <br><br>Press Enter to watch that example again and follow the steps of Omgne Sort.""]","enter","","",""
"","","","","","html-button-response","45","152908","0.0-25.0","45","1","2025-02-02 04:50:15","bc01a2b6f61d06f6604adb8657495020","68.161.162.68","Mozilla/5.0 (Windows NT 10.0; Win64; x64) AppleWebKit/537.36 (KHTML, like Gecko) Chrome/132.0.0.0 Safari/537.36","WebKit","Chrome","132.0.0.0","Windows","10.0","https://app.prolific.com/","en-US,en;q=0.9","5aa806e7777df200016088c5","679edb085803f58d6bbd31ca","679ef93acf36ed17eee64d2d","","null","<img id='selected' src='G_7.jpg' height='90'> <img src='G_9.jpg' height='90'> <img src='G_1.jpg' height='90'> <img src='G_5.jpg' height='90'> <img src='G_3.jpg' height='90'>","null","Learning example 0","",""
"","","","","","html-button-response","46","153228","0.0-26.0","45","1","2025-02-02 04:50:15","bc01a2b6f61d06f6604adb8657495020","68.161.162.68","Mozilla/5.0 (Windows NT 10.0; Win64; x64) AppleWebKit/537.36 (KHTML, like Gecko) Chrome/132.0.0.0 Safari/537.36","WebKit","Chrome","132.0.0.0","Windows","10.0","https://app.prolific.com/","en-US,en;q=0.9","5aa806e7777df200016088c5","679edb085803f58d6bbd31ca","679ef93acf36ed17eee64d2d","","null","<img id='selected' src='G_7.jpg' height='90'> <img id='selected' src='G_9.jpg' height='90'> <img src='G_1.jpg' height='90'> <img src='G_5.jpg' height='90'> <img src='G_3.jpg' height='90'>","null","Learning example 0","",""
"","","","","","html-button-response","47","153542","0.0-27.0","45","1","2025-02-02 04:50:15","bc01a2b6f61d06f6604adb8657495020","68.161.162.68","Mozilla/5.0 (Windows NT 10.0; Win64; x64) AppleWebKit/537.36 (KHTML, like Gecko) Chrome/132.0.0.0 Safari/537.36","WebKit","Chrome","132.0.0.0","Windows","10.0","https://app.prolific.com/","en-US,en;q=0.9","5aa806e7777df200016088c5","679edb085803f58d6bbd31ca","679ef93acf36ed17eee64d2d","","null","<img id='swapped' src='G_9.jpg' height='90'> <img id='swapped' src='G_7.jpg' height='90'> <img src='G_1.jpg' height='90'> <img src='G_5.jpg' height='90'> <img src='G_3.jpg' height='90'>","null","Learning example 0","",""
"","","","","","html-button-response","48","185917","0.0-28.0-0.0-0.0","45","1","2025-02-02 04:50:15","bc01a2b6f61d06f6604adb8657495020","68.161.162.68","Mozilla/5.0 (Windows NT 10.0; Win64; x64) AppleWebKit/537.36 (KHTML, like Gecko) Chrome/132.0.0.0 Safari/537.36","WebKit","Chrome","132.0.0.0","Windows","10.0","https://app.prolific.com/","en-US,en;q=0.9","5aa806e7777df200016088c5","679edb085803f58d6bbd31ca","679ef93acf36ed17eee64d2d","","32372","<img id='swapped' src='G_9.jpg' height='90'> <img id='swapped' src='G_7.jpg' height='90'> <img src='G_1.jpg' height='90'> <img src='G_5.jpg' height='90'> <img src='G_3.jpg' height='90'>","1","Learning example 0","",""
"","","","","","html-button-response","49","186936","0.0-28.1-0.1-0.1","45","1","2025-02-02 04:50:15","bc01a2b6f61d06f6604adb8657495020","68.161.162.68","Mozilla/5.0 (Windows NT 10.0; Win64; x64) AppleWebKit/537.36 (KHTML, like Gecko) Chrome/132.0.0.0 Safari/537.36","WebKit","Chrome","132.0.0.0","Windows","10.0","https://app.prolific.com/","en-US,en;q=0.9","5aa806e7777df200016088c5","679edb085803f58d6bbd31ca","679ef93acf36ed17eee64d2d","","1015","<img id='swapped' src='G_9.jpg' height='90'> <img id='swapped' src='G_7.jpg' height='90'> <img src='G_1.jpg' height='90'> <img src='G_5.jpg' height='90'> <img src='G_3.jpg' height='90'>","0","Learning example 0","",""
"","","","","","html-button-response","50","187141","0.0-29.0","45","1","2025-02-02 04:50:15","bc01a2b6f61d06f6604adb8657495020","68.161.162.68","Mozilla/5.0 (Windows NT 10.0; Win64; x64) AppleWebKit/537.36 (KHTML, like Gecko) Chrome/132.0.0.0 Safari/537.36","WebKit","Chrome","132.0.0.0","Windows","10.0","https://app.prolific.com/","en-US,en;q=0.9","5aa806e7777df200016088c5","679edb085803f58d6bbd31ca","679ef93acf36ed17eee64d2d","","null","<img  src='G_9.jpg' height='90'> <img  src='G_7.jpg' height='90'> <img src='G_1.jpg' height='90'> <img src='G_5.jpg' height='90'> <img src='G_3.jpg' height='90'>","null","Learning example 0","",""
"","","","","","html-button-response","51","187550","0.0-30.0","45","1","2025-02-02 04:50:15","bc01a2b6f61d06f6604adb8657495020","68.161.162.68","Mozilla/5.0 (Windows NT 10.0; Win64; x64) AppleWebKit/537.36 (KHTML, like Gecko) Chrome/132.0.0.0 Safari/537.36","WebKit","Chrome","132.0.0.0","Windows","10.0","https://app.prolific.com/","en-US,en;q=0.9","5aa806e7777df200016088c5","679edb085803f58d6bbd31ca","679ef93acf36ed17eee64d2d","","null","<img  src='G_9.jpg' height='90'> <img id='selected'  src='G_7.jpg' height='90'> <img src='G_1.jpg' height='90'> <img src='G_5.jpg' height='90'> <img src='G_3.jpg' height='90'>","null","Learning example 0","",""
"","","","","","html-button-response","52","187858","0.0-31.0","45","1","2025-02-02 04:50:15","bc01a2b6f61d06f6604adb8657495020","68.161.162.68","Mozilla/5.0 (Windows NT 10.0; Win64; x64) AppleWebKit/537.36 (KHTML, like Gecko) Chrome/132.0.0.0 Safari/537.36","WebKit","Chrome","132.0.0.0","Windows","10.0","https://app.prolific.com/","en-US,en;q=0.9","5aa806e7777df200016088c5","679edb085803f58d6bbd31ca","679ef93acf36ed17eee64d2d","","null","<img  src='G_9.jpg' height='90'> <img id='selected'  src='G_7.jpg' height='90'> <img id='selected' src='G_1.jpg' height='90'> <img src='G_5.jpg' height='90'> <img src='G_3.jpg' height='90'>","null","Learning example 0","",""
"","","","","","html-button-response","53","188167","0.0-32.0","45","1","2025-02-02 04:50:15","bc01a2b6f61d06f6604adb8657495020","68.161.162.68","Mozilla/5.0 (Windows NT 10.0; Win64; x64) AppleWebKit/537.36 (KHTML, like Gecko) Chrome/132.0.0.0 Safari/537.36","WebKit","Chrome","132.0.0.0","Windows","10.0","https://app.prolific.com/","en-US,en;q=0.9","5aa806e7777df200016088c5","679edb085803f58d6bbd31ca","679ef93acf36ed17eee64d2d","","null","<img  src='G_9.jpg' height='90'> <img id='selected'  src='G_7.jpg' height='90'> <img id='selected' src='G_1.jpg' height='90'> <img src='G_5.jpg' height='90'> <img src='G_3.jpg' height='90'>","null","Learning example 0","",""
"","","","","","html-button-response","54","189883","0.0-33.0-0.0-0.0","45","1","2025-02-02 04:50:15","bc01a2b6f61d06f6604adb8657495020","68.161.162.68","Mozilla/5.0 (Windows NT 10.0; Win64; x64) AppleWebKit/537.36 (KHTML, like Gecko) Chrome/132.0.0.0 Safari/537.36","WebKit","Chrome","132.0.0.0","Windows","10.0","https://app.prolific.com/","en-US,en;q=0.9","5aa806e7777df200016088c5","679edb085803f58d6bbd31ca","679ef93acf36ed17eee64d2d","","1711","<img  src='G_9.jpg' height='90'> <img id='selected'  src='G_7.jpg' height='90'> <img id='selected' src='G_1.jpg' height='90'> <img src='G_5.jpg' height='90'> <img src='G_3.jpg' height='90'>","2","Learning example 0","",""
"","","","","","html-button-response","55","191540","0.0-33.1-0.1-0.1","45","1","2025-02-02 04:50:15","bc01a2b6f61d06f6604adb8657495020","68.161.162.68","Mozilla/5.0 (Windows NT 10.0; Win64; x64) AppleWebKit/537.36 (KHTML, like Gecko) Chrome/132.0.0.0 Safari/537.36","WebKit","Chrome","132.0.0.0","Windows","10.0","https://app.prolific.com/","en-US,en;q=0.9","5aa806e7777df200016088c5","679edb085803f58d6bbd31ca","679ef93acf36ed17eee64d2d","","1652","<img  src='G_9.jpg' height='90'> <img id='selected'  src='G_7.jpg' height='90'> <img id='selected' src='G_1.jpg' height='90'> <img src='G_5.jpg' height='90'> <img src='G_3.jpg' height='90'>","1","Learning example 0","",""
"","","","","","html-button-response","56","191761","0.0-34.0","45","1","2025-02-02 04:50:15","bc01a2b6f61d06f6604adb8657495020","68.161.162.68","Mozilla/5.0 (Windows NT 10.0; Win64; x64) AppleWebKit/537.36 (KHTML, like Gecko) Chrome/132.0.0.0 Safari/537.36","WebKit","Chrome","132.0.0.0","Windows","10.0","https://app.prolific.com/","en-US,en;q=0.9","5aa806e7777df200016088c5","679edb085803f58d6bbd31ca","679ef93acf36ed17eee64d2d","","null","<img  src='G_9.jpg' height='90'> <img   src='G_7.jpg' height='90'> <img  src='G_1.jpg' height='90'> <img src='G_5.jpg' height='90'> <img src='G_3.jpg' height='90'>","null","Learning example 0","",""
"","","","","","html-button-response","57","192172","0.0-35.0","45","1","2025-02-02 04:50:15","bc01a2b6f61d06f6604adb8657495020","68.161.162.68","Mozilla/5.0 (Windows NT 10.0; Win64; x64) AppleWebKit/537.36 (KHTML, like Gecko) Chrome/132.0.0.0 Safari/537.36","WebKit","Chrome","132.0.0.0","Windows","10.0","https://app.prolific.com/","en-US,en;q=0.9","5aa806e7777df200016088c5","679edb085803f58d6bbd31ca","679ef93acf36ed17eee64d2d","","null","<img  src='G_9.jpg' height='90'> <img   src='G_7.jpg' height='90'> <img id='selected'  src='G_1.jpg' height='90'> <img src='G_5.jpg' height='90'> <img src='G_3.jpg' height='90'>","null","Learning example 0","",""
"","","","","","html-button-response","58","192476","0.0-36.0","45","1","2025-02-02 04:50:15","bc01a2b6f61d06f6604adb8657495020","68.161.162.68","Mozilla/5.0 (Windows NT 10.0; Win64; x64) AppleWebKit/537.36 (KHTML, like Gecko) Chrome/132.0.0.0 Safari/537.36","WebKit","Chrome","132.0.0.0","Windows","10.0","https://app.prolific.com/","en-US,en;q=0.9","5aa806e7777df200016088c5","679edb085803f58d6bbd31ca","679ef93acf36ed17eee64d2d","","null","<img  src='G_9.jpg' height='90'> <img   src='G_7.jpg' height='90'> <img id='selected'  src='G_1.jpg' height='90'> <img id='selected' src='G_5.jpg' height='90'> <img src='G_3.jpg' height='90'>","null","Learning example 0","",""
"","","","","","html-button-response","59","192780","0.0-37.0","45","1","2025-02-02 04:50:15","bc01a2b6f61d06f6604adb8657495020","68.161.162.68","Mozilla/5.0 (Windows NT 10.0; Win64; x64) AppleWebKit/537.36 (KHTML, like Gecko) Chrome/132.0.0.0 Safari/537.36","WebKit","Chrome","132.0.0.0","Windows","10.0","https://app.prolific.com/","en-US,en;q=0.9","5aa806e7777df200016088c5","679edb085803f58d6bbd31ca","679ef93acf36ed17eee64d2d","","null","<img  src='G_9.jpg' height='90'> <img   src='G_7.jpg' height='90'> <img id='selected'  src='G_1.jpg' height='90'> <img id='selected' src='G_5.jpg' height='90'> <img src='G_3.jpg' height='90'>","null","Learning example 0","",""
"","","","","","html-button-response","60","194761","0.0-38.0-0.0-0.0","45","1","2025-02-02 04:50:15","bc01a2b6f61d06f6604adb8657495020","68.161.162.68","Mozilla/5.0 (Windows NT 10.0; Win64; x64) AppleWebKit/537.36 (KHTML, like Gecko) Chrome/132.0.0.0 Safari/537.36","WebKit","Chrome","132.0.0.0","Windows","10.0","https://app.prolific.com/","en-US,en;q=0.9","5aa806e7777df200016088c5","679edb085803f58d6bbd31ca","679ef93acf36ed17eee64d2d","","1976","<img  src='G_9.jpg' height='90'> <img   src='G_7.jpg' height='90'> <img id='selected'  src='G_1.jpg' height='90'> <img id='selected' src='G_5.jpg' height='90'> <img src='G_3.jpg' height='90'>","3","Learning example 0","",""
"","","","","","html-button-response","61","196208","0.0-38.1-0.1-0.1","45","1","2025-02-02 04:50:15","bc01a2b6f61d06f6604adb8657495020","68.161.162.68","Mozilla/5.0 (Windows NT 10.0; Win64; x64) AppleWebKit/537.36 (KHTML, like Gecko) Chrome/132.0.0.0 Safari/537.36","WebKit","Chrome","132.0.0.0","Windows","10.0","https://app.prolific.com/","en-US,en;q=0.9","5aa806e7777df200016088c5","679edb085803f58d6bbd31ca","679ef93acf36ed17eee64d2d","","1441","<img  src='G_9.jpg' height='90'> <img   src='G_7.jpg' height='90'> <img id='selected'  src='G_1.jpg' height='90'> <img id='selected' src='G_5.jpg' height='90'> <img src='G_3.jpg' height='90'>","1","Learning example 0","",""
"","","","","","html-button-response","62","198056","0.0-38.2-0.2-0.2","45","1","2025-02-02 04:50:15","bc01a2b6f61d06f6604adb8657495020","68.161.162.68","Mozilla/5.0 (Windows NT 10.0; Win64; x64) AppleWebKit/537.36 (KHTML, like Gecko) Chrome/132.0.0.0 Safari/537.36","WebKit","Chrome","132.0.0.0","Windows","10.0","https://app.prolific.com/","en-US,en;q=0.9","5aa806e7777df200016088c5","679edb085803f58d6bbd31ca","679ef93acf36ed17eee64d2d","","1844","<img  src='G_9.jpg' height='90'> <img   src='G_7.jpg' height='90'> <img id='selected'  src='G_1.jpg' height='90'> <img id='selected' src='G_5.jpg' height='90'> <img src='G_3.jpg' height='90'>","2","Learning example 0","",""
"","","","","","html-button-response","63","201905","0.0-38.3-0.3-0.3","45","1","2025-02-02 04:50:15","bc01a2b6f61d06f6604adb8657495020","68.161.162.68","Mozilla/5.0 (Windows NT 10.0; Win64; x64) AppleWebKit/537.36 (KHTML, like Gecko) Chrome/132.0.0.0 Safari/537.36","WebKit","Chrome","132.0.0.0","Windows","10.0","https://app.prolific.com/","en-US,en;q=0.9","5aa806e7777df200016088c5","679edb085803f58d6bbd31ca","679ef93acf36ed17eee64d2d","","3845","<img  src='G_9.jpg' height='90'> <img   src='G_7.jpg' height='90'> <img id='selected'  src='G_1.jpg' height='90'> <img id='selected' src='G_5.jpg' height='90'> <img src='G_3.jpg' height='90'>","4","Learning example 0","",""
"","","","","","html-button-response","64","203149","0.0-38.4-0.4-0.4","45","1","2025-02-02 04:50:15","bc01a2b6f61d06f6604adb8657495020","68.161.162.68","Mozilla/5.0 (Windows NT 10.0; Win64; x64) AppleWebKit/537.36 (KHTML, like Gecko) Chrome/132.0.0.0 Safari/537.36","WebKit","Chrome","132.0.0.0","Windows","10.0","https://app.prolific.com/","en-US,en;q=0.9","5aa806e7777df200016088c5","679edb085803f58d6bbd31ca","679ef93acf36ed17eee64d2d","","1236","<img  src='G_9.jpg' height='90'> <img   src='G_7.jpg' height='90'> <img id='selected'  src='G_1.jpg' height='90'> <img id='selected' src='G_5.jpg' height='90'> <img src='G_3.jpg' height='90'>","1","Learning example 0","",""
"","","","","","html-button-response","65","208277","0.0-38.5-0.5-0.5","45","1","2025-02-02 04:50:15","bc01a2b6f61d06f6604adb8657495020","68.161.162.68","Mozilla/5.0 (Windows NT 10.0; Win64; x64) AppleWebKit/537.36 (KHTML, like Gecko) Chrome/132.0.0.0 Safari/537.36","WebKit","Chrome","132.0.0.0","Windows","10.0","https://app.prolific.com/","en-US,en;q=0.9","5aa806e7777df200016088c5","679edb085803f58d6bbd31ca","679ef93acf36ed17eee64d2d","","5123","<img  src='G_9.jpg' height='90'> <img   src='G_7.jpg' height='90'> <img id='selected'  src='G_1.jpg' height='90'> <img id='selected' src='G_5.jpg' height='90'> <img src='G_3.jpg' height='90'>","1","Learning example 0","",""
"","","","","","html-button-response","66","209360","0.0-38.6-0.6-0.6","45","1","2025-02-02 04:50:15","bc01a2b6f61d06f6604adb8657495020","68.161.162.68","Mozilla/5.0 (Windows NT 10.0; Win64; x64) AppleWebKit/537.36 (KHTML, like Gecko) Chrome/132.0.0.0 Safari/537.36","WebKit","Chrome","132.0.0.0","Windows","10.0","https://app.prolific.com/","en-US,en;q=0.9","5aa806e7777df200016088c5","679edb085803f58d6bbd31ca","679ef93acf36ed17eee64d2d","","1080","<img  src='G_9.jpg' height='90'> <img   src='G_7.jpg' height='90'> <img id='selected'  src='G_1.jpg' height='90'> <img id='selected' src='G_5.jpg' height='90'> <img src='G_3.jpg' height='90'>","4","Learning example 0","",""
"","","","","","html-button-response","67","210950","0.0-38.7-0.7-0.7","45","1","2025-02-02 04:50:15","bc01a2b6f61d06f6604adb8657495020","68.161.162.68","Mozilla/5.0 (Windows NT 10.0; Win64; x64) AppleWebKit/537.36 (KHTML, like Gecko) Chrome/132.0.0.0 Safari/537.36","WebKit","Chrome","132.0.0.0","Windows","10.0","https://app.prolific.com/","en-US,en;q=0.9","5aa806e7777df200016088c5","679edb085803f58d6bbd31ca","679ef93acf36ed17eee64d2d","","1584","<img  src='G_9.jpg' height='90'> <img   src='G_7.jpg' height='90'> <img id='selected'  src='G_1.jpg' height='90'> <img id='selected' src='G_5.jpg' height='90'> <img src='G_3.jpg' height='90'>","3","Learning example 0","",""
"","","","","","html-button-response","68","211855","0.0-38.8-0.8-0.8","45","1","2025-02-02 04:50:15","bc01a2b6f61d06f6604adb8657495020","68.161.162.68","Mozilla/5.0 (Windows NT 10.0; Win64; x64) AppleWebKit/537.36 (KHTML, like Gecko) Chrome/132.0.0.0 Safari/537.36","WebKit","Chrome","132.0.0.0","Windows","10.0","https://app.prolific.com/","en-US,en;q=0.9","5aa806e7777df200016088c5","679edb085803f58d6bbd31ca","679ef93acf36ed17eee64d2d","","901","<img  src='G_9.jpg' height='90'> <img   src='G_7.jpg' height='90'> <img id='selected'  src='G_1.jpg' height='90'> <img id='selected' src='G_5.jpg' height='90'> <img src='G_3.jpg' height='90'>","2","Learning example 0","",""
"","","","","","html-button-response","69","212076","0.0-39.0","45","1","2025-02-02 04:50:15","bc01a2b6f61d06f6604adb8657495020","68.161.162.68","Mozilla/5.0 (Windows NT 10.0; Win64; x64) AppleWebKit/537.36 (KHTML, like Gecko) Chrome/132.0.0.0 Safari/537.36","WebKit","Chrome","132.0.0.0","Windows","10.0","https://app.prolific.com/","en-US,en;q=0.9","5aa806e7777df200016088c5","679edb085803f58d6bbd31ca","679ef93acf36ed17eee64d2d","","null","<img  src='G_9.jpg' height='90'> <img   src='G_7.jpg' height='90'> <img   src='G_1.jpg' height='90'> <img  src='G_5.jpg' height='90'> <img src='G_3.jpg' height='90'>","null","Learning example 0","",""
"","","","","","html-button-response","70","212489","0.0-40.0","45","1","2025-02-02 04:50:15","bc01a2b6f61d06f6604adb8657495020","68.161.162.68","Mozilla/5.0 (Windows NT 10.0; Win64; x64) AppleWebKit/537.36 (KHTML, like Gecko) Chrome/132.0.0.0 Safari/537.36","WebKit","Chrome","132.0.0.0","Windows","10.0","https://app.prolific.com/","en-US,en;q=0.9","5aa806e7777df200016088c5","679edb085803f58d6bbd31ca","679ef93acf36ed17eee64d2d","","null","<img  src='G_9.jpg' height='90'> <img   src='G_7.jpg' height='90'> <img   src='G_1.jpg' height='90'> <img id='selected'  src='G_5.jpg' height='90'> <img src='G_3.jpg' height='90'>","null","Learning example 0","",""
"","","","","","html-button-response","71","212794","0.0-41.0","45","1","2025-02-02 04:50:15","bc01a2b6f61d06f6604adb8657495020","68.161.162.68","Mozilla/5.0 (Windows NT 10.0; Win64; x64) AppleWebKit/537.36 (KHTML, like Gecko) Chrome/132.0.0.0 Safari/537.36","WebKit","Chrome","132.0.0.0","Windows","10.0","https://app.prolific.com/","en-US,en;q=0.9","5aa806e7777df200016088c5","679edb085803f58d6bbd31ca","679ef93acf36ed17eee64d2d","","null","<img  src='G_9.jpg' height='90'> <img   src='G_7.jpg' height='90'> <img   src='G_1.jpg' height='90'> <img id='selected'  src='G_5.jpg' height='90'> <img id='selected' src='G_3.jpg' height='90'>","null","Learning example 0","",""
"","","","","","html-button-response","72","213114","0.0-42.0","45","1","2025-02-02 04:50:15","bc01a2b6f61d06f6604adb8657495020","68.161.162.68","Mozilla/5.0 (Windows NT 10.0; Win64; x64) AppleWebKit/537.36 (KHTML, like Gecko) Chrome/132.0.0.0 Safari/537.36","WebKit","Chrome","132.0.0.0","Windows","10.0","https://app.prolific.com/","en-US,en;q=0.9","5aa806e7777df200016088c5","679edb085803f58d6bbd31ca","679ef93acf36ed17eee64d2d","","null","<img  src='G_9.jpg' height='90'> <img   src='G_7.jpg' height='90'> <img   src='G_1.jpg' height='90'> <img id='selected'  src='G_5.jpg' height='90'> <img id='selected' src='G_3.jpg' height='90'>","null","Learning example 0","",""
"","","","","","html-button-response","73","219493","0.0-43.0-0.0-0.0","45","1","2025-02-02 04:50:15","bc01a2b6f61d06f6604adb8657495020","68.161.162.68","Mozilla/5.0 (Windows NT 10.0; Win64; x64) AppleWebKit/537.36 (KHTML, like Gecko) Chrome/132.0.0.0 Safari/537.36","WebKit","Chrome","132.0.0.0","Windows","10.0","https://app.prolific.com/","en-US,en;q=0.9","5aa806e7777df200016088c5","679edb085803f58d6bbd31ca","679ef93acf36ed17eee64d2d","","6375","<img  src='G_9.jpg' height='90'> <img   src='G_7.jpg' height='90'> <img   src='G_1.jpg' height='90'> <img id='selected'  src='G_5.jpg' height='90'> <img id='selected' src='G_3.jpg' height='90'>","4","Learning example 0","",""
"","","","","","html-button-response","74","220302","0.0-43.1-0.1-0.1","45","1","2025-02-02 04:50:15","bc01a2b6f61d06f6604adb8657495020","68.161.162.68","Mozilla/5.0 (Windows NT 10.0; Win64; x64) AppleWebKit/537.36 (KHTML, like Gecko) Chrome/132.0.0.0 Safari/537.36","WebKit","Chrome","132.0.0.0","Windows","10.0","https://app.prolific.com/","en-US,en;q=0.9","5aa806e7777df200016088c5","679edb085803f58d6bbd31ca","679ef93acf36ed17eee64d2d","","805","<img  src='G_9.jpg' height='90'> <img   src='G_7.jpg' height='90'> <img   src='G_1.jpg' height='90'> <img id='selected'  src='G_5.jpg' height='90'> <img id='selected' src='G_3.jpg' height='90'>","3","Learning example 0","",""
"","","","","","html-button-response","75","220521","0.0-44.0","45","1","2025-02-02 04:50:15","bc01a2b6f61d06f6604adb8657495020","68.161.162.68","Mozilla/5.0 (Windows NT 10.0; Win64; x64) AppleWebKit/537.36 (KHTML, like Gecko) Chrome/132.0.0.0 Safari/537.36","WebKit","Chrome","132.0.0.0","Windows","10.0","https://app.prolific.com/","en-US,en;q=0.9","5aa806e7777df200016088c5","679edb085803f58d6bbd31ca","679ef93acf36ed17eee64d2d","","null","<img  src='G_9.jpg' height='90'> <img   src='G_7.jpg' height='90'> <img   src='G_1.jpg' height='90'> <img   src='G_5.jpg' height='90'> <img  src='G_3.jpg' height='90'>","null","Learning example 0","",""
"","","","","","html-keyboard-response","76","226338","0.0-45.0","45","1","2025-02-02 04:50:15","bc01a2b6f61d06f6604adb8657495020","68.161.162.68","Mozilla/5.0 (Windows NT 10.0; Win64; x64) AppleWebKit/537.36 (KHTML, like Gecko) Chrome/132.0.0.0 Safari/537.36","WebKit","Chrome","132.0.0.0","Windows","10.0","https://app.prolific.com/","en-US,en;q=0.9","5aa806e7777df200016088c5","679edb085803f58d6bbd31ca","679ef93acf36ed17eee64d2d","","5814","[""Final order was 1,2,3,4,5. The initial order was 2,1,3,4,5.<br>It took 1 swaps to sort it correctly with Omgne Sort. <br><br>Press Enter to continue.""]","enter","","",""
"","","","","","html-keyboard-response","77","232411","0.0-46.0","45","1","2025-02-02 04:50:15","bc01a2b6f61d06f6604adb8657495020","68.161.162.68","Mozilla/5.0 (Windows NT 10.0; Win64; x64) AppleWebKit/537.36 (KHTML, like Gecko) Chrome/132.0.0.0 Safari/537.36","WebKit","Chrome","132.0.0.0","Windows","10.0","https://app.prolific.com/","en-US,en;q=0.9","5aa806e7777df200016088c5","679edb085803f58d6bbd31ca","679ef93acf36ed17eee64d2d","","6069","[""Example 2<br><br>You will watch Omnge Sort in action. Try to identify any patterns in the comparisons made by this method. <br><br>Press Enter to continue.""]","enter","","",""
"","","","","","html-keyboard-response","78","232929","0.0-47.0","45","1","2025-02-02 04:50:15","bc01a2b6f61d06f6604adb8657495020","68.161.162.68","Mozilla/5.0 (Windows NT 10.0; Win64; x64) AppleWebKit/537.36 (KHTML, like Gecko) Chrome/132.0.0.0 Safari/537.36","WebKit","Chrome","132.0.0.0","Windows","10.0","https://app.prolific.com/","en-US,en;q=0.9","5aa806e7777df200016088c5","679edb085803f58d6bbd31ca","679ef93acf36ed17eee64d2d","","null","<img id='selected' src='G_4.jpg' height='90'> <img src='G_7.jpg' height='90'> <img src='G_3.jpg' height='90'> <img src='G_6.jpg' height='90'> <img src='G_8.jpg' height='90'> <img src='G_5.jpg' height='90'> <img src='G_1.jpg' height='90'> <img src='G_2.jpg' height='90'>","null","Animation1","",""
"","","","","","html-keyboard-response","79","233435","0.0-48.0","45","1","2025-02-02 04:50:15","bc01a2b6f61d06f6604adb8657495020","68.161.162.68","Mozilla/5.0 (Windows NT 10.0; Win64; x64) AppleWebKit/537.36 (KHTML, like Gecko) Chrome/132.0.0.0 Safari/537.36","WebKit","Chrome","132.0.0.0","Windows","10.0","https://app.prolific.com/","en-US,en;q=0.9","5aa806e7777df200016088c5","679edb085803f58d6bbd31ca","679ef93acf36ed17eee64d2d","","null","<img id='selected' src='G_4.jpg' height='90'> <img id='selected' src='G_7.jpg' height='90'> <img src='G_3.jpg' height='90'> <img src='G_6.jpg' height='90'> <img src='G_8.jpg' height='90'> <img src='G_5.jpg' height='90'> <img src='G_1.jpg' height='90'> <img src='G_2.jpg' height='90'>","null","Animation1","",""
"","","","","","html-keyboard-response","80","233945","0.0-49.0","45","1","2025-02-02 04:50:15","bc01a2b6f61d06f6604adb8657495020","68.161.162.68","Mozilla/5.0 (Windows NT 10.0; Win64; x64) AppleWebKit/537.36 (KHTML, like Gecko) Chrome/132.0.0.0 Safari/537.36","WebKit","Chrome","132.0.0.0","Windows","10.0","https://app.prolific.com/","en-US,en;q=0.9","5aa806e7777df200016088c5","679edb085803f58d6bbd31ca","679ef93acf36ed17eee64d2d","","null","<img id='selected' src='G_4.jpg' height='90'> <img id='selected' src='G_7.jpg' height='90'> <img src='G_3.jpg' height='90'> <img src='G_6.jpg' height='90'> <img src='G_8.jpg' height='90'> <img src='G_5.jpg' height='90'> <img src='G_1.jpg' height='90'> <img src='G_2.jpg' height='90'>","null","Animation1","",""
"","","","","","html-keyboard-response","81","234262","0.0-50.0","45","1","2025-02-02 04:50:15","bc01a2b6f61d06f6604adb8657495020","68.161.162.68","Mozilla/5.0 (Windows NT 10.0; Win64; x64) AppleWebKit/537.36 (KHTML, like Gecko) Chrome/132.0.0.0 Safari/537.36","WebKit","Chrome","132.0.0.0","Windows","10.0","https://app.prolific.com/","en-US,en;q=0.9","5aa806e7777df200016088c5","679edb085803f58d6bbd31ca","679ef93acf36ed17eee64d2d","","null","<img  src='G_4.jpg' height='90'> <img  src='G_7.jpg' height='90'> <img src='G_3.jpg' height='90'> <img src='G_6.jpg' height='90'> <img src='G_8.jpg' height='90'> <img src='G_5.jpg' height='90'> <img src='G_1.jpg' height='90'> <img src='G_2.jpg' height='90'>","null","Animation1","",""
"","","","","","html-keyboard-response","82","234773","0.0-51.0","45","1","2025-02-02 04:50:15","bc01a2b6f61d06f6604adb8657495020","68.161.162.68","Mozilla/5.0 (Windows NT 10.0; Win64; x64) AppleWebKit/537.36 (KHTML, like Gecko) Chrome/132.0.0.0 Safari/537.36","WebKit","Chrome","132.0.0.0","Windows","10.0","https://app.prolific.com/","en-US,en;q=0.9","5aa806e7777df200016088c5","679edb085803f58d6bbd31ca","679ef93acf36ed17eee64d2d","","null","<img  src='G_4.jpg' height='90'> <img id='selected'  src='G_7.jpg' height='90'> <img src='G_3.jpg' height='90'> <img src='G_6.jpg' height='90'> <img src='G_8.jpg' height='90'> <img src='G_5.jpg' height='90'> <img src='G_1.jpg' height='90'> <img src='G_2.jpg' height='90'>","null","Animation1","",""
"","","","","","html-keyboard-response","83","235283","0.0-52.0","45","1","2025-02-02 04:50:15","bc01a2b6f61d06f6604adb8657495020","68.161.162.68","Mozilla/5.0 (Windows NT 10.0; Win64; x64) AppleWebKit/537.36 (KHTML, like Gecko) Chrome/132.0.0.0 Safari/537.36","WebKit","Chrome","132.0.0.0","Windows","10.0","https://app.prolific.com/","en-US,en;q=0.9","5aa806e7777df200016088c5","679edb085803f58d6bbd31ca","679ef93acf36ed17eee64d2d","","null","<img  src='G_4.jpg' height='90'> <img id='selected'  src='G_7.jpg' height='90'> <img id='selected' src='G_3.jpg' height='90'> <img src='G_6.jpg' height='90'> <img src='G_8.jpg' height='90'> <img src='G_5.jpg' height='90'> <img src='G_1.jpg' height='90'> <img src='G_2.jpg' height='90'>","null","Animation1","",""
"","","","","","html-keyboard-response","84","235792","0.0-53.0","45","1","2025-02-02 04:50:15","bc01a2b6f61d06f6604adb8657495020","68.161.162.68","Mozilla/5.0 (Windows NT 10.0; Win64; x64) AppleWebKit/537.36 (KHTML, like Gecko) Chrome/132.0.0.0 Safari/537.36","WebKit","Chrome","132.0.0.0","Windows","10.0","https://app.prolific.com/","en-US,en;q=0.9","5aa806e7777df200016088c5","679edb085803f58d6bbd31ca","679ef93acf36ed17eee64d2d","","null","<img  src='G_4.jpg' height='90'> <img id='swapped' src='G_3.jpg' height='90'> <img id='swapped'  src='G_7.jpg' height='90'> <img src='G_6.jpg' height='90'> <img src='G_8.jpg' height='90'> <img src='G_5.jpg' height='90'> <img src='G_1.jpg' height='90'> <img src='G_2.jpg' height='90'>","null","Animation1","",""
"","","","","","html-keyboard-response","85","236111","0.0-54.0","45","1","2025-02-02 04:50:15","bc01a2b6f61d06f6604adb8657495020","68.161.162.68","Mozilla/5.0 (Windows NT 10.0; Win64; x64) AppleWebKit/537.36 (KHTML, like Gecko) Chrome/132.0.0.0 Safari/537.36","WebKit","Chrome","132.0.0.0","Windows","10.0","https://app.prolific.com/","en-US,en;q=0.9","5aa806e7777df200016088c5","679edb085803f58d6bbd31ca","679ef93acf36ed17eee64d2d","","null","<img  src='G_4.jpg' height='90'> <img  src='G_3.jpg' height='90'> <img   src='G_7.jpg' height='90'> <img src='G_6.jpg' height='90'> <img src='G_8.jpg' height='90'> <img src='G_5.jpg' height='90'> <img src='G_1.jpg' height='90'> <img src='G_2.jpg' height='90'>","null","Animation1","",""
"","","","","","html-keyboard-response","86","236620","0.0-55.0","45","1","2025-02-02 04:50:15","bc01a2b6f61d06f6604adb8657495020","68.161.162.68","Mozilla/5.0 (Windows NT 10.0; Win64; x64) AppleWebKit/537.36 (KHTML, like Gecko) Chrome/132.0.0.0 Safari/537.36","WebKit","Chrome","132.0.0.0","Windows","10.0","https://app.prolific.com/","en-US,en;q=0.9","5aa806e7777df200016088c5","679edb085803f58d6bbd31ca","679ef93acf36ed17eee64d2d","","null","<img id='selected'  src='G_4.jpg' height='90'> <img  src='G_3.jpg' height='90'> <img   src='G_7.jpg' height='90'> <img src='G_6.jpg' height='90'> <img src='G_8.jpg' height='90'> <img src='G_5.jpg' height='90'> <img src='G_1.jpg' height='90'> <img src='G_2.jpg' height='90'>","null","Animation1","",""
"","","","","","html-keyboard-response","87","237129","0.0-56.0","45","1","2025-02-02 04:50:15","bc01a2b6f61d06f6604adb8657495020","68.161.162.68","Mozilla/5.0 (Windows NT 10.0; Win64; x64) AppleWebKit/537.36 (KHTML, like Gecko) Chrome/132.0.0.0 Safari/537.36","WebKit","Chrome","132.0.0.0","Windows","10.0","https://app.prolific.com/","en-US,en;q=0.9","5aa806e7777df200016088c5","679edb085803f58d6bbd31ca","679ef93acf36ed17eee64d2d","","null","<img id='selected'  src='G_4.jpg' height='90'> <img id='selected'  src='G_3.jpg' height='90'> <img   src='G_7.jpg' height='90'> <img src='G_6.jpg' height='90'> <img src='G_8.jpg' height='90'> <img src='G_5.jpg' height='90'> <img src='G_1.jpg' height='90'> <img src='G_2.jpg' height='90'>","null","Animation1","",""
"","","","","","html-keyboard-response","88","237640","0.0-57.0","45","1","2025-02-02 04:50:15","bc01a2b6f61d06f6604adb8657495020","68.161.162.68","Mozilla/5.0 (Windows NT 10.0; Win64; x64) AppleWebKit/537.36 (KHTML, like Gecko) Chrome/132.0.0.0 Safari/537.36","WebKit","Chrome","132.0.0.0","Windows","10.0","https://app.prolific.com/","en-US,en;q=0.9","5aa806e7777df200016088c5","679edb085803f58d6bbd31ca","679ef93acf36ed17eee64d2d","","null","<img id='swapped'  src='G_3.jpg' height='90'> <img id='swapped'  src='G_4.jpg' height='90'> <img   src='G_7.jpg' height='90'> <img src='G_6.jpg' height='90'> <img src='G_8.jpg' height='90'> <img src='G_5.jpg' height='90'> <img src='G_1.jpg' height='90'> <img src='G_2.jpg' height='90'>","null","Animation1","",""
"","","","","","html-keyboard-response","89","237959","0.0-58.0","45","1","2025-02-02 04:50:15","bc01a2b6f61d06f6604adb8657495020","68.161.162.68","Mozilla/5.0 (Windows NT 10.0; Win64; x64) AppleWebKit/537.36 (KHTML, like Gecko) Chrome/132.0.0.0 Safari/537.36","WebKit","Chrome","132.0.0.0","Windows","10.0","https://app.prolific.com/","en-US,en;q=0.9","5aa806e7777df200016088c5","679edb085803f58d6bbd31ca","679ef93acf36ed17eee64d2d","","null","<img   src='G_3.jpg' height='90'> <img   src='G_4.jpg' height='90'> <img   src='G_7.jpg' height='90'> <img src='G_6.jpg' height='90'> <img src='G_8.jpg' height='90'> <img src='G_5.jpg' height='90'> <img src='G_1.jpg' height='90'> <img src='G_2.jpg' height='90'>","null","Animation1","",""
"","","","","","html-keyboard-response","90","238469","0.0-59.0","45","1","2025-02-02 04:50:15","bc01a2b6f61d06f6604adb8657495020","68.161.162.68","Mozilla/5.0 (Windows NT 10.0; Win64; x64) AppleWebKit/537.36 (KHTML, like Gecko) Chrome/132.0.0.0 Safari/537.36","WebKit","Chrome","132.0.0.0","Windows","10.0","https://app.prolific.com/","en-US,en;q=0.9","5aa806e7777df200016088c5","679edb085803f58d6bbd31ca","679ef93acf36ed17eee64d2d","","null","<img   src='G_3.jpg' height='90'> <img   src='G_4.jpg' height='90'> <img id='selected'   src='G_7.jpg' height='90'> <img src='G_6.jpg' height='90'> <img src='G_8.jpg' height='90'> <img src='G_5.jpg' height='90'> <img src='G_1.jpg' height='90'> <img src='G_2.jpg' height='90'>","null","Animation1","",""
"","","","","","html-keyboard-response","91","238980","0.0-60.0","45","1","2025-02-02 04:50:15","bc01a2b6f61d06f6604adb8657495020","68.161.162.68","Mozilla/5.0 (Windows NT 10.0; Win64; x64) AppleWebKit/537.36 (KHTML, like Gecko) Chrome/132.0.0.0 Safari/537.36","WebKit","Chrome","132.0.0.0","Windows","10.0","https://app.prolific.com/","en-US,en;q=0.9","5aa806e7777df200016088c5","679edb085803f58d6bbd31ca","679ef93acf36ed17eee64d2d","","null","<img   src='G_3.jpg' height='90'> <img   src='G_4.jpg' height='90'> <img id='selected'   src='G_7.jpg' height='90'> <img id='selected' src='G_6.jpg' height='90'> <img src='G_8.jpg' height='90'> <img src='G_5.jpg' height='90'> <img src='G_1.jpg' height='90'> <img src='G_2.jpg' height='90'>","null","Animation1","",""
"","","","","","html-keyboard-response","92","239490","0.0-61.0","45","1","2025-02-02 04:50:15","bc01a2b6f61d06f6604adb8657495020","68.161.162.68","Mozilla/5.0 (Windows NT 10.0; Win64; x64) AppleWebKit/537.36 (KHTML, like Gecko) Chrome/132.0.0.0 Safari/537.36","WebKit","Chrome","132.0.0.0","Windows","10.0","https://app.prolific.com/","en-US,en;q=0.9","5aa806e7777df200016088c5","679edb085803f58d6bbd31ca","679ef93acf36ed17eee64d2d","","null","<img   src='G_3.jpg' height='90'> <img   src='G_4.jpg' height='90'> <img id='swapped' src='G_6.jpg' height='90'> <img id='swapped'   src='G_7.jpg' height='90'> <img src='G_8.jpg' height='90'> <img src='G_5.jpg' height='90'> <img src='G_1.jpg' height='90'> <img src='G_2.jpg' height='90'>","null","Animation1","",""
"","","","","","html-keyboard-response","93","239810","0.0-62.0","45","1","2025-02-02 04:50:15","bc01a2b6f61d06f6604adb8657495020","68.161.162.68","Mozilla/5.0 (Windows NT 10.0; Win64; x64) AppleWebKit/537.36 (KHTML, like Gecko) Chrome/132.0.0.0 Safari/537.36","WebKit","Chrome","132.0.0.0","Windows","10.0","https://app.prolific.com/","en-US,en;q=0.9","5aa806e7777df200016088c5","679edb085803f58d6bbd31ca","679ef93acf36ed17eee64d2d","","null","<img   src='G_3.jpg' height='90'> <img   src='G_4.jpg' height='90'> <img  src='G_6.jpg' height='90'> <img    src='G_7.jpg' height='90'> <img src='G_8.jpg' height='90'> <img src='G_5.jpg' height='90'> <img src='G_1.jpg' height='90'> <img src='G_2.jpg' height='90'>","null","Animation1","",""
"","","","","","html-keyboard-response","94","240319","0.0-63.0","45","1","2025-02-02 04:50:15","bc01a2b6f61d06f6604adb8657495020","68.161.162.68","Mozilla/5.0 (Windows NT 10.0; Win64; x64) AppleWebKit/537.36 (KHTML, like Gecko) Chrome/132.0.0.0 Safari/537.36","WebKit","Chrome","132.0.0.0","Windows","10.0","https://app.prolific.com/","en-US,en;q=0.9","5aa806e7777df200016088c5","679edb085803f58d6bbd31ca","679ef93acf36ed17eee64d2d","","null","<img   src='G_3.jpg' height='90'> <img id='selected'   src='G_4.jpg' height='90'> <img  src='G_6.jpg' height='90'> <img    src='G_7.jpg' height='90'> <img src='G_8.jpg' height='90'> <img src='G_5.jpg' height='90'> <img src='G_1.jpg' height='90'> <img src='G_2.jpg' height='90'>","null","Animation1","",""
"","","","","","html-keyboard-response","95","240831","0.0-64.0","45","1","2025-02-02 04:50:15","bc01a2b6f61d06f6604adb8657495020","68.161.162.68","Mozilla/5.0 (Windows NT 10.0; Win64; x64) AppleWebKit/537.36 (KHTML, like Gecko) Chrome/132.0.0.0 Safari/537.36","WebKit","Chrome","132.0.0.0","Windows","10.0","https://app.prolific.com/","en-US,en;q=0.9","5aa806e7777df200016088c5","679edb085803f58d6bbd31ca","679ef93acf36ed17eee64d2d","","null","<img   src='G_3.jpg' height='90'> <img id='selected'   src='G_4.jpg' height='90'> <img id='selected'  src='G_6.jpg' height='90'> <img    src='G_7.jpg' height='90'> <img src='G_8.jpg' height='90'> <img src='G_5.jpg' height='90'> <img src='G_1.jpg' height='90'> <img src='G_2.jpg' height='90'>","null","Animation1","",""
"","","","","","html-keyboard-response","96","241342","0.0-65.0","45","1","2025-02-02 04:50:15","bc01a2b6f61d06f6604adb8657495020","68.161.162.68","Mozilla/5.0 (Windows NT 10.0; Win64; x64) AppleWebKit/537.36 (KHTML, like Gecko) Chrome/132.0.0.0 Safari/537.36","WebKit","Chrome","132.0.0.0","Windows","10.0","https://app.prolific.com/","en-US,en;q=0.9","5aa806e7777df200016088c5","679edb085803f58d6bbd31ca","679ef93acf36ed17eee64d2d","","null","<img   src='G_3.jpg' height='90'> <img id='swapped'  src='G_6.jpg' height='90'> <img id='swapped'   src='G_4.jpg' height='90'> <img    src='G_7.jpg' height='90'> <img src='G_8.jpg' height='90'> <img src='G_5.jpg' height='90'> <img src='G_1.jpg' height='90'> <img src='G_2.jpg' height='90'>","null","Animation1","",""
"","","","","","html-keyboard-response","97","241661","0.0-66.0","45","1","2025-02-02 04:50:15","bc01a2b6f61d06f6604adb8657495020","68.161.162.68","Mozilla/5.0 (Windows NT 10.0; Win64; x64) AppleWebKit/537.36 (KHTML, like Gecko) Chrome/132.0.0.0 Safari/537.36","WebKit","Chrome","132.0.0.0","Windows","10.0","https://app.prolific.com/","en-US,en;q=0.9","5aa806e7777df200016088c5","679edb085803f58d6bbd31ca","679ef93acf36ed17eee64d2d","","null","<img   src='G_3.jpg' height='90'> <img   src='G_6.jpg' height='90'> <img    src='G_4.jpg' height='90'> <img    src='G_7.jpg' height='90'> <img src='G_8.jpg' height='90'> <img src='G_5.jpg' height='90'> <img src='G_1.jpg' height='90'> <img src='G_2.jpg' height='90'>","null","Animation1","",""
"","","","","","html-keyboard-response","98","242167","0.0-67.0","45","1","2025-02-02 04:50:15","bc01a2b6f61d06f6604adb8657495020","68.161.162.68","Mozilla/5.0 (Windows NT 10.0; Win64; x64) AppleWebKit/537.36 (KHTML, like Gecko) Chrome/132.0.0.0 Safari/537.36","WebKit","Chrome","132.0.0.0","Windows","10.0","https://app.prolific.com/","en-US,en;q=0.9","5aa806e7777df200016088c5","679edb085803f58d6bbd31ca","679ef93acf36ed17eee64d2d","","null","<img id='selected'   src='G_3.jpg' height='90'> <img   src='G_6.jpg' height='90'> <img    src='G_4.jpg' height='90'> <img    src='G_7.jpg' height='90'> <img src='G_8.jpg' height='90'> <img src='G_5.jpg' height='90'> <img src='G_1.jpg' height='90'> <img src='G_2.jpg' height='90'>","null","Animation1","",""
"","","","","","html-keyboard-response","99","242675","0.0-68.0","45","1","2025-02-02 04:50:15","bc01a2b6f61d06f6604adb8657495020","68.161.162.68","Mozilla/5.0 (Windows NT 10.0; Win64; x64) AppleWebKit/537.36 (KHTML, like Gecko) Chrome/132.0.0.0 Safari/537.36","WebKit","Chrome","132.0.0.0","Windows","10.0","https://app.prolific.com/","en-US,en;q=0.9","5aa806e7777df200016088c5","679edb085803f58d6bbd31ca","679ef93acf36ed17eee64d2d","","null","<img id='selected'   src='G_3.jpg' height='90'> <img id='selected'   src='G_6.jpg' height='90'> <img    src='G_4.jpg' height='90'> <img    src='G_7.jpg' height='90'> <img src='G_8.jpg' height='90'> <img src='G_5.jpg' height='90'> <img src='G_1.jpg' height='90'> <img src='G_2.jpg' height='90'>","null","Animation1","",""
"","","","","","html-keyboard-response","100","243183","0.0-69.0","45","1","2025-02-02 04:50:15","bc01a2b6f61d06f6604adb8657495020","68.161.162.68","Mozilla/5.0 (Windows NT 10.0; Win64; x64) AppleWebKit/537.36 (KHTML, like Gecko) Chrome/132.0.0.0 Safari/537.36","WebKit","Chrome","132.0.0.0","Windows","10.0","https://app.prolific.com/","en-US,en;q=0.9","5aa806e7777df200016088c5","679edb085803f58d6bbd31ca","679ef93acf36ed17eee64d2d","","null","<img id='swapped'   src='G_6.jpg' height='90'> <img id='swapped'   src='G_3.jpg' height='90'> <img    src='G_4.jpg' height='90'> <img    src='G_7.jpg' height='90'> <img src='G_8.jpg' height='90'> <img src='G_5.jpg' height='90'> <img src='G_1.jpg' height='90'> <img src='G_2.jpg' height='90'>","null","Animation1","",""
"","","","","","html-keyboard-response","101","243500","0.0-70.0","45","1","2025-02-02 04:50:15","bc01a2b6f61d06f6604adb8657495020","68.161.162.68","Mozilla/5.0 (Windows NT 10.0; Win64; x64) AppleWebKit/537.36 (KHTML, like Gecko) Chrome/132.0.0.0 Safari/537.36","WebKit","Chrome","132.0.0.0","Windows","10.0","https://app.prolific.com/","en-US,en;q=0.9","5aa806e7777df200016088c5","679edb085803f58d6bbd31ca","679ef93acf36ed17eee64d2d","","null","<img    src='G_6.jpg' height='90'> <img    src='G_3.jpg' height='90'> <img    src='G_4.jpg' height='90'> <img    src='G_7.jpg' height='90'> <img src='G_8.jpg' height='90'> <img src='G_5.jpg' height='90'> <img src='G_1.jpg' height='90'> <img src='G_2.jpg' height='90'>","null","Animation1","",""
"","","","","","html-keyboard-response","102","244007","0.0-71.0","45","1","2025-02-02 04:50:15","bc01a2b6f61d06f6604adb8657495020","68.161.162.68","Mozilla/5.0 (Windows NT 10.0; Win64; x64) AppleWebKit/537.36 (KHTML, like Gecko) Chrome/132.0.0.0 Safari/537.36","WebKit","Chrome","132.0.0.0","Windows","10.0","https://app.prolific.com/","en-US,en;q=0.9","5aa806e7777df200016088c5","679edb085803f58d6bbd31ca","679ef93acf36ed17eee64d2d","","null","<img    src='G_6.jpg' height='90'> <img    src='G_3.jpg' height='90'> <img    src='G_4.jpg' height='90'> <img id='selected'    src='G_7.jpg' height='90'> <img src='G_8.jpg' height='90'> <img src='G_5.jpg' height='90'> <img src='G_1.jpg' height='90'> <img src='G_2.jpg' height='90'>","null","Animation1","",""
"","","","","","html-keyboard-response","103","244514","0.0-72.0","45","1","2025-02-02 04:50:15","bc01a2b6f61d06f6604adb8657495020","68.161.162.68","Mozilla/5.0 (Windows NT 10.0; Win64; x64) AppleWebKit/537.36 (KHTML, like Gecko) Chrome/132.0.0.0 Safari/537.36","WebKit","Chrome","132.0.0.0","Windows","10.0","https://app.prolific.com/","en-US,en;q=0.9","5aa806e7777df200016088c5","679edb085803f58d6bbd31ca","679ef93acf36ed17eee64d2d","","null","<img    src='G_6.jpg' height='90'> <img    src='G_3.jpg' height='90'> <img    src='G_4.jpg' height='90'> <img id='selected'    src='G_7.jpg' height='90'> <img id='selected' src='G_8.jpg' height='90'> <img src='G_5.jpg' height='90'> <img src='G_1.jpg' height='90'> <img src='G_2.jpg' height='90'>","null","Animation1","",""
"","","","","","html-keyboard-response","104","245022","0.0-73.0","45","1","2025-02-02 04:50:15","bc01a2b6f61d06f6604adb8657495020","68.161.162.68","Mozilla/5.0 (Windows NT 10.0; Win64; x64) AppleWebKit/537.36 (KHTML, like Gecko) Chrome/132.0.0.0 Safari/537.36","WebKit","Chrome","132.0.0.0","Windows","10.0","https://app.prolific.com/","en-US,en;q=0.9","5aa806e7777df200016088c5","679edb085803f58d6bbd31ca","679ef93acf36ed17eee64d2d","","null","<img    src='G_6.jpg' height='90'> <img    src='G_3.jpg' height='90'> <img    src='G_4.jpg' height='90'> <img id='swapped' src='G_8.jpg' height='90'> <img id='swapped'    src='G_7.jpg' height='90'> <img src='G_5.jpg' height='90'> <img src='G_1.jpg' height='90'> <img src='G_2.jpg' height='90'>","null","Animation1","",""
"","","","","","html-keyboard-response","105","245340","0.0-74.0","45","1","2025-02-02 04:50:15","bc01a2b6f61d06f6604adb8657495020","68.161.162.68","Mozilla/5.0 (Windows NT 10.0; Win64; x64) AppleWebKit/537.36 (KHTML, like Gecko) Chrome/132.0.0.0 Safari/537.36","WebKit","Chrome","132.0.0.0","Windows","10.0","https://app.prolific.com/","en-US,en;q=0.9","5aa806e7777df200016088c5","679edb085803f58d6bbd31ca","679ef93acf36ed17eee64d2d","","null","<img    src='G_6.jpg' height='90'> <img    src='G_3.jpg' height='90'> <img    src='G_4.jpg' height='90'> <img  src='G_8.jpg' height='90'> <img     src='G_7.jpg' height='90'> <img src='G_5.jpg' height='90'> <img src='G_1.jpg' height='90'> <img src='G_2.jpg' height='90'>","null","Animation1","",""
"","","","","","html-keyboard-response","106","245850","0.0-75.0","45","1","2025-02-02 04:50:15","bc01a2b6f61d06f6604adb8657495020","68.161.162.68","Mozilla/5.0 (Windows NT 10.0; Win64; x64) AppleWebKit/537.36 (KHTML, like Gecko) Chrome/132.0.0.0 Safari/537.36","WebKit","Chrome","132.0.0.0","Windows","10.0","https://app.prolific.com/","en-US,en;q=0.9","5aa806e7777df200016088c5","679edb085803f58d6bbd31ca","679ef93acf36ed17eee64d2d","","null","<img    src='G_6.jpg' height='90'> <img    src='G_3.jpg' height='90'> <img id='selected'    src='G_4.jpg' height='90'> <img  src='G_8.jpg' height='90'> <img     src='G_7.jpg' height='90'> <img src='G_5.jpg' height='90'> <img src='G_1.jpg' height='90'> <img src='G_2.jpg' height='90'>","null","Animation1","",""
"","","","","","html-keyboard-response","107","246357","0.0-76.0","45","1","2025-02-02 04:50:15","bc01a2b6f61d06f6604adb8657495020","68.161.162.68","Mozilla/5.0 (Windows NT 10.0; Win64; x64) AppleWebKit/537.36 (KHTML, like Gecko) Chrome/132.0.0.0 Safari/537.36","WebKit","Chrome","132.0.0.0","Windows","10.0","https://app.prolific.com/","en-US,en;q=0.9","5aa806e7777df200016088c5","679edb085803f58d6bbd31ca","679ef93acf36ed17eee64d2d","","null","<img    src='G_6.jpg' height='90'> <img    src='G_3.jpg' height='90'> <img id='selected'    src='G_4.jpg' height='90'> <img id='selected'  src='G_8.jpg' height='90'> <img     src='G_7.jpg' height='90'> <img src='G_5.jpg' height='90'> <img src='G_1.jpg' height='90'> <img src='G_2.jpg' height='90'>","null","Animation1","",""
"","","","","","html-keyboard-response","108","246869","0.0-77.0","45","1","2025-02-02 04:50:15","bc01a2b6f61d06f6604adb8657495020","68.161.162.68","Mozilla/5.0 (Windows NT 10.0; Win64; x64) AppleWebKit/537.36 (KHTML, like Gecko) Chrome/132.0.0.0 Safari/537.36","WebKit","Chrome","132.0.0.0","Windows","10.0","https://app.prolific.com/","en-US,en;q=0.9","5aa806e7777df200016088c5","679edb085803f58d6bbd31ca","679ef93acf36ed17eee64d2d","","null","<img    src='G_6.jpg' height='90'> <img    src='G_3.jpg' height='90'> <img id='swapped'  src='G_8.jpg' height='90'> <img id='swapped'    src='G_4.jpg' height='90'> <img     src='G_7.jpg' height='90'> <img src='G_5.jpg' height='90'> <img src='G_1.jpg' height='90'> <img src='G_2.jpg' height='90'>","null","Animation1","",""
"","","","","","html-keyboard-response","109","247186","0.0-78.0","45","1","2025-02-02 04:50:15","bc01a2b6f61d06f6604adb8657495020","68.161.162.68","Mozilla/5.0 (Windows NT 10.0; Win64; x64) AppleWebKit/537.36 (KHTML, like Gecko) Chrome/132.0.0.0 Safari/537.36","WebKit","Chrome","132.0.0.0","Windows","10.0","https://app.prolific.com/","en-US,en;q=0.9","5aa806e7777df200016088c5","679edb085803f58d6bbd31ca","679ef93acf36ed17eee64d2d","","null","<img    src='G_6.jpg' height='90'> <img    src='G_3.jpg' height='90'> <img   src='G_8.jpg' height='90'> <img     src='G_4.jpg' height='90'> <img     src='G_7.jpg' height='90'> <img src='G_5.jpg' height='90'> <img src='G_1.jpg' height='90'> <img src='G_2.jpg' height='90'>","null","Animation1","",""
"","","","","","html-keyboard-response","110","247695","0.0-79.0","45","1","2025-02-02 04:50:15","bc01a2b6f61d06f6604adb8657495020","68.161.162.68","Mozilla/5.0 (Windows NT 10.0; Win64; x64) AppleWebKit/537.36 (KHTML, like Gecko) Chrome/132.0.0.0 Safari/537.36","WebKit","Chrome","132.0.0.0","Windows","10.0","https://app.prolific.com/","en-US,en;q=0.9","5aa806e7777df200016088c5","679edb085803f58d6bbd31ca","679ef93acf36ed17eee64d2d","","null","<img    src='G_6.jpg' height='90'> <img id='selected'    src='G_3.jpg' height='90'> <img   src='G_8.jpg' height='90'> <img     src='G_4.jpg' height='90'> <img     src='G_7.jpg' height='90'> <img src='G_5.jpg' height='90'> <img src='G_1.jpg' height='90'> <img src='G_2.jpg' height='90'>","null","Animation1","",""
"","","","","","html-keyboard-response","111","248206","0.0-80.0","45","1","2025-02-02 04:50:15","bc01a2b6f61d06f6604adb8657495020","68.161.162.68","Mozilla/5.0 (Windows NT 10.0; Win64; x64) AppleWebKit/537.36 (KHTML, like Gecko) Chrome/132.0.0.0 Safari/537.36","WebKit","Chrome","132.0.0.0","Windows","10.0","https://app.prolific.com/","en-US,en;q=0.9","5aa806e7777df200016088c5","679edb085803f58d6bbd31ca","679ef93acf36ed17eee64d2d","","null","<img    src='G_6.jpg' height='90'> <img id='selected'    src='G_3.jpg' height='90'> <img id='selected'   src='G_8.jpg' height='90'> <img     src='G_4.jpg' height='90'> <img     src='G_7.jpg' height='90'> <img src='G_5.jpg' height='90'> <img src='G_1.jpg' height='90'> <img src='G_2.jpg' height='90'>","null","Animation1","",""
"","","","","","html-keyboard-response","112","248716","0.0-81.0","45","1","2025-02-02 04:50:15","bc01a2b6f61d06f6604adb8657495020","68.161.162.68","Mozilla/5.0 (Windows NT 10.0; Win64; x64) AppleWebKit/537.36 (KHTML, like Gecko) Chrome/132.0.0.0 Safari/537.36","WebKit","Chrome","132.0.0.0","Windows","10.0","https://app.prolific.com/","en-US,en;q=0.9","5aa806e7777df200016088c5","679edb085803f58d6bbd31ca","679ef93acf36ed17eee64d2d","","null","<img    src='G_6.jpg' height='90'> <img id='swapped'   src='G_8.jpg' height='90'> <img id='swapped'    src='G_3.jpg' height='90'> <img     src='G_4.jpg' height='90'> <img     src='G_7.jpg' height='90'> <img src='G_5.jpg' height='90'> <img src='G_1.jpg' height='90'> <img src='G_2.jpg' height='90'>","null","Animation1","",""
"","","","","","html-keyboard-response","113","249032","0.0-82.0","45","1","2025-02-02 04:50:15","bc01a2b6f61d06f6604adb8657495020","68.161.162.68","Mozilla/5.0 (Windows NT 10.0; Win64; x64) AppleWebKit/537.36 (KHTML, like Gecko) Chrome/132.0.0.0 Safari/537.36","WebKit","Chrome","132.0.0.0","Windows","10.0","https://app.prolific.com/","en-US,en;q=0.9","5aa806e7777df200016088c5","679edb085803f58d6bbd31ca","679ef93acf36ed17eee64d2d","","null","<img    src='G_6.jpg' height='90'> <img    src='G_8.jpg' height='90'> <img     src='G_3.jpg' height='90'> <img     src='G_4.jpg' height='90'> <img     src='G_7.jpg' height='90'> <img src='G_5.jpg' height='90'> <img src='G_1.jpg' height='90'> <img src='G_2.jpg' height='90'>","null","Animation1","",""
"","","","","","html-keyboard-response","114","249556","0.0-83.0","45","1","2025-02-02 04:50:15","bc01a2b6f61d06f6604adb8657495020","68.161.162.68","Mozilla/5.0 (Windows NT 10.0; Win64; x64) AppleWebKit/537.36 (KHTML, like Gecko) Chrome/132.0.0.0 Safari/537.36","WebKit","Chrome","132.0.0.0","Windows","10.0","https://app.prolific.com/","en-US,en;q=0.9","5aa806e7777df200016088c5","679edb085803f58d6bbd31ca","679ef93acf36ed17eee64d2d","","null","<img id='selected'    src='G_6.jpg' height='90'> <img    src='G_8.jpg' height='90'> <img     src='G_3.jpg' height='90'> <img     src='G_4.jpg' height='90'> <img     src='G_7.jpg' height='90'> <img src='G_5.jpg' height='90'> <img src='G_1.jpg' height='90'> <img src='G_2.jpg' height='90'>","null","Animation1","",""
"","","","","","html-keyboard-response","115","250062","0.0-84.0","45","1","2025-02-02 04:50:15","bc01a2b6f61d06f6604adb8657495020","68.161.162.68","Mozilla/5.0 (Windows NT 10.0; Win64; x64) AppleWebKit/537.36 (KHTML, like Gecko) Chrome/132.0.0.0 Safari/537.36","WebKit","Chrome","132.0.0.0","Windows","10.0","https://app.prolific.com/","en-US,en;q=0.9","5aa806e7777df200016088c5","679edb085803f58d6bbd31ca","679ef93acf36ed17eee64d2d","","null","<img id='selected'    src='G_6.jpg' height='90'> <img id='selected'    src='G_8.jpg' height='90'> <img     src='G_3.jpg' height='90'> <img     src='G_4.jpg' height='90'> <img     src='G_7.jpg' height='90'> <img src='G_5.jpg' height='90'> <img src='G_1.jpg' height='90'> <img src='G_2.jpg' height='90'>","null","Animation1","",""
"","","","","","html-keyboard-response","116","250571","0.0-85.0","45","1","2025-02-02 04:50:15","bc01a2b6f61d06f6604adb8657495020","68.161.162.68","Mozilla/5.0 (Windows NT 10.0; Win64; x64) AppleWebKit/537.36 (KHTML, like Gecko) Chrome/132.0.0.0 Safari/537.36","WebKit","Chrome","132.0.0.0","Windows","10.0","https://app.prolific.com/","en-US,en;q=0.9","5aa806e7777df200016088c5","679edb085803f58d6bbd31ca","679ef93acf36ed17eee64d2d","","null","<img id='selected'    src='G_6.jpg' height='90'> <img id='selected'    src='G_8.jpg' height='90'> <img     src='G_3.jpg' height='90'> <img     src='G_4.jpg' height='90'> <img     src='G_7.jpg' height='90'> <img src='G_5.jpg' height='90'> <img src='G_1.jpg' height='90'> <img src='G_2.jpg' height='90'>","null","Animation1","",""
"","","","","","html-keyboard-response","117","250888","0.0-86.0","45","1","2025-02-02 04:50:15","bc01a2b6f61d06f6604adb8657495020","68.161.162.68","Mozilla/5.0 (Windows NT 10.0; Win64; x64) AppleWebKit/537.36 (KHTML, like Gecko) Chrome/132.0.0.0 Safari/537.36","WebKit","Chrome","132.0.0.0","Windows","10.0","https://app.prolific.com/","en-US,en;q=0.9","5aa806e7777df200016088c5","679edb085803f58d6bbd31ca","679ef93acf36ed17eee64d2d","","null","<img     src='G_6.jpg' height='90'> <img     src='G_8.jpg' height='90'> <img     src='G_3.jpg' height='90'> <img     src='G_4.jpg' height='90'> <img     src='G_7.jpg' height='90'> <img src='G_5.jpg' height='90'> <img src='G_1.jpg' height='90'> <img src='G_2.jpg' height='90'>","null","Animation1","",""
"","","","","","html-keyboard-response","118","251400","0.0-87.0","45","1","2025-02-02 04:50:15","bc01a2b6f61d06f6604adb8657495020","68.161.162.68","Mozilla/5.0 (Windows NT 10.0; Win64; x64) AppleWebKit/537.36 (KHTML, like Gecko) Chrome/132.0.0.0 Safari/537.36","WebKit","Chrome","132.0.0.0","Windows","10.0","https://app.prolific.com/","en-US,en;q=0.9","5aa806e7777df200016088c5","679edb085803f58d6bbd31ca","679ef93acf36ed17eee64d2d","","null","<img     src='G_6.jpg' height='90'> <img     src='G_8.jpg' height='90'> <img     src='G_3.jpg' height='90'> <img     src='G_4.jpg' height='90'> <img id='selected'     src='G_7.jpg' height='90'> <img src='G_5.jpg' height='90'> <img src='G_1.jpg' height='90'> <img src='G_2.jpg' height='90'>","null","Animation1","",""
"","","","","","html-keyboard-response","119","251924","0.0-88.0","45","1","2025-02-02 04:50:15","bc01a2b6f61d06f6604adb8657495020","68.161.162.68","Mozilla/5.0 (Windows NT 10.0; Win64; x64) AppleWebKit/537.36 (KHTML, like Gecko) Chrome/132.0.0.0 Safari/537.36","WebKit","Chrome","132.0.0.0","Windows","10.0","https://app.prolific.com/","en-US,en;q=0.9","5aa806e7777df200016088c5","679edb085803f58d6bbd31ca","679ef93acf36ed17eee64d2d","","null","<img     src='G_6.jpg' height='90'> <img     src='G_8.jpg' height='90'> <img     src='G_3.jpg' height='90'> <img     src='G_4.jpg' height='90'> <img id='selected'     src='G_7.jpg' height='90'> <img id='selected' src='G_5.jpg' height='90'> <img src='G_1.jpg' height='90'> <img src='G_2.jpg' height='90'>","null","Animation1","",""
"","","","","","html-keyboard-response","120","252432","0.0-89.0","45","1","2025-02-02 04:50:15","bc01a2b6f61d06f6604adb8657495020","68.161.162.68","Mozilla/5.0 (Windows NT 10.0; Win64; x64) AppleWebKit/537.36 (KHTML, like Gecko) Chrome/132.0.0.0 Safari/537.36","WebKit","Chrome","132.0.0.0","Windows","10.0","https://app.prolific.com/","en-US,en;q=0.9","5aa806e7777df200016088c5","679edb085803f58d6bbd31ca","679ef93acf36ed17eee64d2d","","null","<img     src='G_6.jpg' height='90'> <img     src='G_8.jpg' height='90'> <img     src='G_3.jpg' height='90'> <img     src='G_4.jpg' height='90'> <img id='swapped' src='G_5.jpg' height='90'> <img id='swapped'     src='G_7.jpg' height='90'> <img src='G_1.jpg' height='90'> <img src='G_2.jpg' height='90'>","null","Animation1","",""
"","","","","","html-keyboard-response","121","252748","0.0-90.0","45","1","2025-02-02 04:50:15","bc01a2b6f61d06f6604adb8657495020","68.161.162.68","Mozilla/5.0 (Windows NT 10.0; Win64; x64) AppleWebKit/537.36 (KHTML, like Gecko) Chrome/132.0.0.0 Safari/537.36","WebKit","Chrome","132.0.0.0","Windows","10.0","https://app.prolific.com/","en-US,en;q=0.9","5aa806e7777df200016088c5","679edb085803f58d6bbd31ca","679ef93acf36ed17eee64d2d","","null","<img     src='G_6.jpg' height='90'> <img     src='G_8.jpg' height='90'> <img     src='G_3.jpg' height='90'> <img     src='G_4.jpg' height='90'> <img  src='G_5.jpg' height='90'> <img      src='G_7.jpg' height='90'> <img src='G_1.jpg' height='90'> <img src='G_2.jpg' height='90'>","null","Animation1","",""
"","","","","","html-keyboard-response","122","253258","0.0-91.0","45","1","2025-02-02 04:50:15","bc01a2b6f61d06f6604adb8657495020","68.161.162.68","Mozilla/5.0 (Windows NT 10.0; Win64; x64) AppleWebKit/537.36 (KHTML, like Gecko) Chrome/132.0.0.0 Safari/537.36","WebKit","Chrome","132.0.0.0","Windows","10.0","https://app.prolific.com/","en-US,en;q=0.9","5aa806e7777df200016088c5","679edb085803f58d6bbd31ca","679ef93acf36ed17eee64d2d","","null","<img     src='G_6.jpg' height='90'> <img     src='G_8.jpg' height='90'> <img     src='G_3.jpg' height='90'> <img id='selected'     src='G_4.jpg' height='90'> <img  src='G_5.jpg' height='90'> <img      src='G_7.jpg' height='90'> <img src='G_1.jpg' height='90'> <img src='G_2.jpg' height='90'>","null","Animation1","",""
"","","","","","html-keyboard-response","123","253767","0.0-92.0","45","1","2025-02-02 04:50:15","bc01a2b6f61d06f6604adb8657495020","68.161.162.68","Mozilla/5.0 (Windows NT 10.0; Win64; x64) AppleWebKit/537.36 (KHTML, like Gecko) Chrome/132.0.0.0 Safari/537.36","WebKit","Chrome","132.0.0.0","Windows","10.0","https://app.prolific.com/","en-US,en;q=0.9","5aa806e7777df200016088c5","679edb085803f58d6bbd31ca","679ef93acf36ed17eee64d2d","","null","<img     src='G_6.jpg' height='90'> <img     src='G_8.jpg' height='90'> <img     src='G_3.jpg' height='90'> <img id='selected'     src='G_4.jpg' height='90'> <img id='selected'  src='G_5.jpg' height='90'> <img      src='G_7.jpg' height='90'> <img src='G_1.jpg' height='90'> <img src='G_2.jpg' height='90'>","null","Animation1","",""
"","","","","","html-keyboard-response","124","254276","0.0-93.0","45","1","2025-02-02 04:50:15","bc01a2b6f61d06f6604adb8657495020","68.161.162.68","Mozilla/5.0 (Windows NT 10.0; Win64; x64) AppleWebKit/537.36 (KHTML, like Gecko) Chrome/132.0.0.0 Safari/537.36","WebKit","Chrome","132.0.0.0","Windows","10.0","https://app.prolific.com/","en-US,en;q=0.9","5aa806e7777df200016088c5","679edb085803f58d6bbd31ca","679ef93acf36ed17eee64d2d","","null","<img     src='G_6.jpg' height='90'> <img     src='G_8.jpg' height='90'> <img     src='G_3.jpg' height='90'> <img id='selected'     src='G_4.jpg' height='90'> <img id='selected'  src='G_5.jpg' height='90'> <img      src='G_7.jpg' height='90'> <img src='G_1.jpg' height='90'> <img src='G_2.jpg' height='90'>","null","Animation1","",""
"","","","","","html-keyboard-response","125","254591","0.0-94.0","45","1","2025-02-02 04:50:15","bc01a2b6f61d06f6604adb8657495020","68.161.162.68","Mozilla/5.0 (Windows NT 10.0; Win64; x64) AppleWebKit/537.36 (KHTML, like Gecko) Chrome/132.0.0.0 Safari/537.36","WebKit","Chrome","132.0.0.0","Windows","10.0","https://app.prolific.com/","en-US,en;q=0.9","5aa806e7777df200016088c5","679edb085803f58d6bbd31ca","679ef93acf36ed17eee64d2d","","null","<img     src='G_6.jpg' height='90'> <img     src='G_8.jpg' height='90'> <img     src='G_3.jpg' height='90'> <img      src='G_4.jpg' height='90'> <img   src='G_5.jpg' height='90'> <img      src='G_7.jpg' height='90'> <img src='G_1.jpg' height='90'> <img src='G_2.jpg' height='90'>","null","Animation1","",""
"","","","","","html-keyboard-response","126","255100","0.0-95.0","45","1","2025-02-02 04:50:15","bc01a2b6f61d06f6604adb8657495020","68.161.162.68","Mozilla/5.0 (Windows NT 10.0; Win64; x64) AppleWebKit/537.36 (KHTML, like Gecko) Chrome/132.0.0.0 Safari/537.36","WebKit","Chrome","132.0.0.0","Windows","10.0","https://app.prolific.com/","en-US,en;q=0.9","5aa806e7777df200016088c5","679edb085803f58d6bbd31ca","679ef93acf36ed17eee64d2d","","null","<img     src='G_6.jpg' height='90'> <img     src='G_8.jpg' height='90'> <img     src='G_3.jpg' height='90'> <img      src='G_4.jpg' height='90'> <img   src='G_5.jpg' height='90'> <img id='selected'      src='G_7.jpg' height='90'> <img src='G_1.jpg' height='90'> <img src='G_2.jpg' height='90'>","null","Animation1","",""
"","","","","","html-keyboard-response","127","255611","0.0-96.0","45","1","2025-02-02 04:50:15","bc01a2b6f61d06f6604adb8657495020","68.161.162.68","Mozilla/5.0 (Windows NT 10.0; Win64; x64) AppleWebKit/537.36 (KHTML, like Gecko) Chrome/132.0.0.0 Safari/537.36","WebKit","Chrome","132.0.0.0","Windows","10.0","https://app.prolific.com/","en-US,en;q=0.9","5aa806e7777df200016088c5","679edb085803f58d6bbd31ca","679ef93acf36ed17eee64d2d","","null","<img     src='G_6.jpg' height='90'> <img     src='G_8.jpg' height='90'> <img     src='G_3.jpg' height='90'> <img      src='G_4.jpg' height='90'> <img   src='G_5.jpg' height='90'> <img id='selected'      src='G_7.jpg' height='90'> <img id='selected' src='G_1.jpg' height='90'> <img src='G_2.jpg' height='90'>","null","Animation1","",""
"","","","","","html-keyboard-response","128","256120","0.0-97.0","45","1","2025-02-02 04:50:15","bc01a2b6f61d06f6604adb8657495020","68.161.162.68","Mozilla/5.0 (Windows NT 10.0; Win64; x64) AppleWebKit/537.36 (KHTML, like Gecko) Chrome/132.0.0.0 Safari/537.36","WebKit","Chrome","132.0.0.0","Windows","10.0","https://app.prolific.com/","en-US,en;q=0.9","5aa806e7777df200016088c5","679edb085803f58d6bbd31ca","679ef93acf36ed17eee64d2d","","null","<img     src='G_6.jpg' height='90'> <img     src='G_8.jpg' height='90'> <img     src='G_3.jpg' height='90'> <img      src='G_4.jpg' height='90'> <img   src='G_5.jpg' height='90'> <img id='selected'      src='G_7.jpg' height='90'> <img id='selected' src='G_1.jpg' height='90'> <img src='G_2.jpg' height='90'>","null","Animation1","",""
"","","","","","html-keyboard-response","129","256437","0.0-98.0","45","1","2025-02-02 04:50:15","bc01a2b6f61d06f6604adb8657495020","68.161.162.68","Mozilla/5.0 (Windows NT 10.0; Win64; x64) AppleWebKit/537.36 (KHTML, like Gecko) Chrome/132.0.0.0 Safari/537.36","WebKit","Chrome","132.0.0.0","Windows","10.0","https://app.prolific.com/","en-US,en;q=0.9","5aa806e7777df200016088c5","679edb085803f58d6bbd31ca","679ef93acf36ed17eee64d2d","","null","<img     src='G_6.jpg' height='90'> <img     src='G_8.jpg' height='90'> <img     src='G_3.jpg' height='90'> <img      src='G_4.jpg' height='90'> <img   src='G_5.jpg' height='90'> <img       src='G_7.jpg' height='90'> <img  src='G_1.jpg' height='90'> <img src='G_2.jpg' height='90'>","null","Animation1","",""
"","","","","","html-keyboard-response","130","256960","0.0-99.0","45","1","2025-02-02 04:50:15","bc01a2b6f61d06f6604adb8657495020","68.161.162.68","Mozilla/5.0 (Windows NT 10.0; Win64; x64) AppleWebKit/537.36 (KHTML, like Gecko) Chrome/132.0.0.0 Safari/537.36","WebKit","Chrome","132.0.0.0","Windows","10.0","https://app.prolific.com/","en-US,en;q=0.9","5aa806e7777df200016088c5","679edb085803f58d6bbd31ca","679ef93acf36ed17eee64d2d","","null","<img     src='G_6.jpg' height='90'> <img     src='G_8.jpg' height='90'> <img     src='G_3.jpg' height='90'> <img      src='G_4.jpg' height='90'> <img   src='G_5.jpg' height='90'> <img       src='G_7.jpg' height='90'> <img id='selected'  src='G_1.jpg' height='90'> <img src='G_2.jpg' height='90'>","null","Animation1","",""
"","","","","","html-keyboard-response","131","257468","0.0-100.0","45","1","2025-02-02 04:50:15","bc01a2b6f61d06f6604adb8657495020","68.161.162.68","Mozilla/5.0 (Windows NT 10.0; Win64; x64) AppleWebKit/537.36 (KHTML, like Gecko) Chrome/132.0.0.0 Safari/537.36","WebKit","Chrome","132.0.0.0","Windows","10.0","https://app.prolific.com/","en-US,en;q=0.9","5aa806e7777df200016088c5","679edb085803f58d6bbd31ca","679ef93acf36ed17eee64d2d","","null","<img     src='G_6.jpg' height='90'> <img     src='G_8.jpg' height='90'> <img     src='G_3.jpg' height='90'> <img      src='G_4.jpg' height='90'> <img   src='G_5.jpg' height='90'> <img       src='G_7.jpg' height='90'> <img id='selected'  src='G_1.jpg' height='90'> <img id='selected' src='G_2.jpg' height='90'>","null","Animation1","",""
"","","","","","html-keyboard-response","132","257990","0.0-101.0","45","1","2025-02-02 04:50:15","bc01a2b6f61d06f6604adb8657495020","68.161.162.68","Mozilla/5.0 (Windows NT 10.0; Win64; x64) AppleWebKit/537.36 (KHTML, like Gecko) Chrome/132.0.0.0 Safari/537.36","WebKit","Chrome","132.0.0.0","Windows","10.0","https://app.prolific.com/","en-US,en;q=0.9","5aa806e7777df200016088c5","679edb085803f58d6bbd31ca","679ef93acf36ed17eee64d2d","","null","<img     src='G_6.jpg' height='90'> <img     src='G_8.jpg' height='90'> <img     src='G_3.jpg' height='90'> <img      src='G_4.jpg' height='90'> <img   src='G_5.jpg' height='90'> <img       src='G_7.jpg' height='90'> <img id='swapped' src='G_2.jpg' height='90'> <img id='swapped'  src='G_1.jpg' height='90'>","null","Animation1","",""
"","","","","","html-keyboard-response","133","258308","0.0-102.0","45","1","2025-02-02 04:50:15","bc01a2b6f61d06f6604adb8657495020","68.161.162.68","Mozilla/5.0 (Windows NT 10.0; Win64; x64) AppleWebKit/537.36 (KHTML, like Gecko) Chrome/132.0.0.0 Safari/537.36","WebKit","Chrome","132.0.0.0","Windows","10.0","https://app.prolific.com/","en-US,en;q=0.9","5aa806e7777df200016088c5","679edb085803f58d6bbd31ca","679ef93acf36ed17eee64d2d","","null","<img     src='G_6.jpg' height='90'> <img     src='G_8.jpg' height='90'> <img     src='G_3.jpg' height='90'> <img      src='G_4.jpg' height='90'> <img   src='G_5.jpg' height='90'> <img       src='G_7.jpg' height='90'> <img  src='G_2.jpg' height='90'> <img   src='G_1.jpg' height='90'>","null","Animation1","",""
"","","","","","html-keyboard-response","134","258819","0.0-103.0","45","1","2025-02-02 04:50:15","bc01a2b6f61d06f6604adb8657495020","68.161.162.68","Mozilla/5.0 (Windows NT 10.0; Win64; x64) AppleWebKit/537.36 (KHTML, like Gecko) Chrome/132.0.0.0 Safari/537.36","WebKit","Chrome","132.0.0.0","Windows","10.0","https://app.prolific.com/","en-US,en;q=0.9","5aa806e7777df200016088c5","679edb085803f58d6bbd31ca","679ef93acf36ed17eee64d2d","","null","<img     src='G_6.jpg' height='90'> <img     src='G_8.jpg' height='90'> <img     src='G_3.jpg' height='90'> <img      src='G_4.jpg' height='90'> <img   src='G_5.jpg' height='90'> <img id='selected'       src='G_7.jpg' height='90'> <img  src='G_2.jpg' height='90'> <img   src='G_1.jpg' height='90'>","null","Animation1","",""
"","","","","","html-keyboard-response","135","259328","0.0-104.0","45","1","2025-02-02 04:50:15","bc01a2b6f61d06f6604adb8657495020","68.161.162.68","Mozilla/5.0 (Windows NT 10.0; Win64; x64) AppleWebKit/537.36 (KHTML, like Gecko) Chrome/132.0.0.0 Safari/537.36","WebKit","Chrome","132.0.0.0","Windows","10.0","https://app.prolific.com/","en-US,en;q=0.9","5aa806e7777df200016088c5","679edb085803f58d6bbd31ca","679ef93acf36ed17eee64d2d","","null","<img     src='G_6.jpg' height='90'> <img     src='G_8.jpg' height='90'> <img     src='G_3.jpg' height='90'> <img      src='G_4.jpg' height='90'> <img   src='G_5.jpg' height='90'> <img id='selected'       src='G_7.jpg' height='90'> <img id='selected'  src='G_2.jpg' height='90'> <img   src='G_1.jpg' height='90'>","null","Animation1","",""
"","","","","","html-keyboard-response","136","259851","0.0-105.0","45","1","2025-02-02 04:50:15","bc01a2b6f61d06f6604adb8657495020","68.161.162.68","Mozilla/5.0 (Windows NT 10.0; Win64; x64) AppleWebKit/537.36 (KHTML, like Gecko) Chrome/132.0.0.0 Safari/537.36","WebKit","Chrome","132.0.0.0","Windows","10.0","https://app.prolific.com/","en-US,en;q=0.9","5aa806e7777df200016088c5","679edb085803f58d6bbd31ca","679ef93acf36ed17eee64d2d","","null","<img     src='G_6.jpg' height='90'> <img     src='G_8.jpg' height='90'> <img     src='G_3.jpg' height='90'> <img      src='G_4.jpg' height='90'> <img   src='G_5.jpg' height='90'> <img id='selected'       src='G_7.jpg' height='90'> <img id='selected'  src='G_2.jpg' height='90'> <img   src='G_1.jpg' height='90'>","null","Animation1","",""
"","","","","","html-keyboard-response","137","260168","0.0-106.0","45","1","2025-02-02 04:50:15","bc01a2b6f61d06f6604adb8657495020","68.161.162.68","Mozilla/5.0 (Windows NT 10.0; Win64; x64) AppleWebKit/537.36 (KHTML, like Gecko) Chrome/132.0.0.0 Safari/537.36","WebKit","Chrome","132.0.0.0","Windows","10.0","https://app.prolific.com/","en-US,en;q=0.9","5aa806e7777df200016088c5","679edb085803f58d6bbd31ca","679ef93acf36ed17eee64d2d","","null","<img     src='G_6.jpg' height='90'> <img     src='G_8.jpg' height='90'> <img     src='G_3.jpg' height='90'> <img      src='G_4.jpg' height='90'> <img   src='G_5.jpg' height='90'> <img        src='G_7.jpg' height='90'> <img   src='G_2.jpg' height='90'> <img   src='G_1.jpg' height='90'>","null","Animation1","",""
"","","","","","html-keyboard-response","138","262696","0.0-107.0","45","1","2025-02-02 04:50:15","bc01a2b6f61d06f6604adb8657495020","68.161.162.68","Mozilla/5.0 (Windows NT 10.0; Win64; x64) AppleWebKit/537.36 (KHTML, like Gecko) Chrome/132.0.0.0 Safari/537.36","WebKit","Chrome","132.0.0.0","Windows","10.0","https://app.prolific.com/","en-US,en;q=0.9","5aa806e7777df200016088c5","679edb085803f58d6bbd31ca","679ef93acf36ed17eee64d2d","","2522","[""Did you notice any patterns? <br><br>Press Enter to watch that example again and follow the steps of Omgne Sort.""]","enter","","",""
"","","","","","html-button-response","139","263109","0.0-108.0","45","1","2025-02-02 04:50:15","bc01a2b6f61d06f6604adb8657495020","68.161.162.68","Mozilla/5.0 (Windows NT 10.0; Win64; x64) AppleWebKit/537.36 (KHTML, like Gecko) Chrome/132.0.0.0 Safari/537.36","WebKit","Chrome","132.0.0.0","Windows","10.0","https://app.prolific.com/","en-US,en;q=0.9","5aa806e7777df200016088c5","679edb085803f58d6bbd31ca","679ef93acf36ed17eee64d2d","","null","<img id='selected' src='G_4.jpg' height='90'> <img src='G_7.jpg' height='90'> <img src='G_3.jpg' height='90'> <img src='G_6.jpg' height='90'> <img src='G_8.jpg' height='90'> <img src='G_5.jpg' height='90'> <img src='G_1.jpg' height='90'> <img src='G_2.jpg' height='90'>","null","Learning example 1","",""
"","","","","","html-button-response","140","263425","0.0-109.0","45","1","2025-02-02 04:50:15","bc01a2b6f61d06f6604adb8657495020","68.161.162.68","Mozilla/5.0 (Windows NT 10.0; Win64; x64) AppleWebKit/537.36 (KHTML, like Gecko) Chrome/132.0.0.0 Safari/537.36","WebKit","Chrome","132.0.0.0","Windows","10.0","https://app.prolific.com/","en-US,en;q=0.9","5aa806e7777df200016088c5","679edb085803f58d6bbd31ca","679ef93acf36ed17eee64d2d","","null","<img id='selected' src='G_4.jpg' height='90'> <img id='selected' src='G_7.jpg' height='90'> <img src='G_3.jpg' height='90'> <img src='G_6.jpg' height='90'> <img src='G_8.jpg' height='90'> <img src='G_5.jpg' height='90'> <img src='G_1.jpg' height='90'> <img src='G_2.jpg' height='90'>","null","Learning example 1","",""
"","","","","","html-button-response","141","263743","0.0-110.0","45","1","2025-02-02 04:50:15","bc01a2b6f61d06f6604adb8657495020","68.161.162.68","Mozilla/5.0 (Windows NT 10.0; Win64; x64) AppleWebKit/537.36 (KHTML, like Gecko) Chrome/132.0.0.0 Safari/537.36","WebKit","Chrome","132.0.0.0","Windows","10.0","https://app.prolific.com/","en-US,en;q=0.9","5aa806e7777df200016088c5","679edb085803f58d6bbd31ca","679ef93acf36ed17eee64d2d","","null","<img id='selected' src='G_4.jpg' height='90'> <img id='selected' src='G_7.jpg' height='90'> <img src='G_3.jpg' height='90'> <img src='G_6.jpg' height='90'> <img src='G_8.jpg' height='90'> <img src='G_5.jpg' height='90'> <img src='G_1.jpg' height='90'> <img src='G_2.jpg' height='90'>","null","Learning example 1","",""
"","","","","","html-button-response","142","270597","0.0-111.0-0.0-0.0","45","1","2025-02-02 04:50:15","bc01a2b6f61d06f6604adb8657495020","68.161.162.68","Mozilla/5.0 (Windows NT 10.0; Win64; x64) AppleWebKit/537.36 (KHTML, like Gecko) Chrome/132.0.0.0 Safari/537.36","WebKit","Chrome","132.0.0.0","Windows","10.0","https://app.prolific.com/","en-US,en;q=0.9","5aa806e7777df200016088c5","679edb085803f58d6bbd31ca","679ef93acf36ed17eee64d2d","","6846","<img id='selected' src='G_4.jpg' height='90'> <img id='selected' src='G_7.jpg' height='90'> <img src='G_3.jpg' height='90'> <img src='G_6.jpg' height='90'> <img src='G_8.jpg' height='90'> <img src='G_5.jpg' height='90'> <img src='G_1.jpg' height='90'> <img src='G_2.jpg' height='90'>","1","Learning example 1","",""
"","","","","","html-button-response","143","271491","0.0-111.1-0.1-0.1","45","1","2025-02-02 04:50:15","bc01a2b6f61d06f6604adb8657495020","68.161.162.68","Mozilla/5.0 (Windows NT 10.0; Win64; x64) AppleWebKit/537.36 (KHTML, like Gecko) Chrome/132.0.0.0 Safari/537.36","WebKit","Chrome","132.0.0.0","Windows","10.0","https://app.prolific.com/","en-US,en;q=0.9","5aa806e7777df200016088c5","679edb085803f58d6bbd31ca","679ef93acf36ed17eee64d2d","","884","<img id='selected' src='G_4.jpg' height='90'> <img id='selected' src='G_7.jpg' height='90'> <img src='G_3.jpg' height='90'> <img src='G_6.jpg' height='90'> <img src='G_8.jpg' height='90'> <img src='G_5.jpg' height='90'> <img src='G_1.jpg' height='90'> <img src='G_2.jpg' height='90'>","0","Learning example 1","",""
"","","","","","html-button-response","144","271712","0.0-112.0","45","1","2025-02-02 04:50:15","bc01a2b6f61d06f6604adb8657495020","68.161.162.68","Mozilla/5.0 (Windows NT 10.0; Win64; x64) AppleWebKit/537.36 (KHTML, like Gecko) Chrome/132.0.0.0 Safari/537.36","WebKit","Chrome","132.0.0.0","Windows","10.0","https://app.prolific.com/","en-US,en;q=0.9","5aa806e7777df200016088c5","679edb085803f58d6bbd31ca","679ef93acf36ed17eee64d2d","","null","<img  src='G_4.jpg' height='90'> <img  src='G_7.jpg' height='90'> <img src='G_3.jpg' height='90'> <img src='G_6.jpg' height='90'> <img src='G_8.jpg' height='90'> <img src='G_5.jpg' height='90'> <img src='G_1.jpg' height='90'> <img src='G_2.jpg' height='90'>","null","Learning example 1","",""
"","","","","","html-button-response","145","272125","0.0-113.0","45","1","2025-02-02 04:50:15","bc01a2b6f61d06f6604adb8657495020","68.161.162.68","Mozilla/5.0 (Windows NT 10.0; Win64; x64) AppleWebKit/537.36 (KHTML, like Gecko) Chrome/132.0.0.0 Safari/537.36","WebKit","Chrome","132.0.0.0","Windows","10.0","https://app.prolific.com/","en-US,en;q=0.9","5aa806e7777df200016088c5","679edb085803f58d6bbd31ca","679ef93acf36ed17eee64d2d","","null","<img  src='G_4.jpg' height='90'> <img id='selected'  src='G_7.jpg' height='90'> <img src='G_3.jpg' height='90'> <img src='G_6.jpg' height='90'> <img src='G_8.jpg' height='90'> <img src='G_5.jpg' height='90'> <img src='G_1.jpg' height='90'> <img src='G_2.jpg' height='90'>","null","Learning example 1","",""
"","","","","","html-button-response","146","272443","0.0-114.0","45","1","2025-02-02 04:50:15","bc01a2b6f61d06f6604adb8657495020","68.161.162.68","Mozilla/5.0 (Windows NT 10.0; Win64; x64) AppleWebKit/537.36 (KHTML, like Gecko) Chrome/132.0.0.0 Safari/537.36","WebKit","Chrome","132.0.0.0","Windows","10.0","https://app.prolific.com/","en-US,en;q=0.9","5aa806e7777df200016088c5","679edb085803f58d6bbd31ca","679ef93acf36ed17eee64d2d","","null","<img  src='G_4.jpg' height='90'> <img id='selected'  src='G_7.jpg' height='90'> <img id='selected' src='G_3.jpg' height='90'> <img src='G_6.jpg' height='90'> <img src='G_8.jpg' height='90'> <img src='G_5.jpg' height='90'> <img src='G_1.jpg' height='90'> <img src='G_2.jpg' height='90'>","null","Learning example 1","",""
