"success","timeout","failed_images","failed_audio","failed_video","trial_type","trial_index","time_elapsed","internal_node_id","run_id","condition","recorded_at","source_code_version","ip","user_agent","device","browser","browser_version","platform","platform_version","referer","accept_language","PROLIFIC_PID","STUDY_ID","SESSION_ID","view_history","rt","stimulus","response","phase","question_order","presented_choices"
"true","false","[]","[]","[]","preload","0","175","0.0-0.0","46","1","2025-02-02 05:12:52","bc01a2b6f61d06f6604adb8657495020","76.142.12.90","Mozilla/5.0 (Windows NT 10.0; Win64; x64) AppleWebKit/537.36 (KHTML, like Gecko) Chrome/131.0.0.0 Safari/537.36","WebKit","Chrome","131.0.0.0","Windows","10.0","https://app.prolific.com/","en-US,en;q=0.9","6444b1e677ebe8b4e2c23abd","679edb085803f58d6bbd31ca","679efec6cb2971aebd9c6565","","","","","","",""
"","","","","","instructions","1","183443","0.0-1.0","46","1","2025-02-02 05:12:52","bc01a2b6f61d06f6604adb8657495020","76.142.12.90","Mozilla/5.0 (Windows NT 10.0; Win64; x64) AppleWebKit/537.36 (KHTML, like Gecko) Chrome/131.0.0.0 Safari/537.36","WebKit","Chrome","131.0.0.0","Windows","10.0","https://app.prolific.com/","en-US,en;q=0.9","6444b1e677ebe8b4e2c23abd","679edb085803f58d6bbd31ca","679efec6cb2971aebd9c6565","[{""page_index"":0,""viewing_time"":183266}]","183267","","","","",""
"","","","","","html-keyboard-response","2","183958","0.0-2.0","46","1","2025-02-02 05:12:52","bc01a2b6f61d06f6604adb8657495020","76.142.12.90","Mozilla/5.0 (Windows NT 10.0; Win64; x64) AppleWebKit/537.36 (KHTML, like Gecko) Chrome/131.0.0.0 Safari/537.36","WebKit","Chrome","131.0.0.0","Windows","10.0","https://app.prolific.com/","en-US,en;q=0.9","6444b1e677ebe8b4e2c23abd","679edb085803f58d6bbd31ca","679efec6cb2971aebd9c6565","","null","<p> + <p/>","null","","",""
"","","","","","instructions","3","302970","0.0-3.0","46","1","2025-02-02 05:12:52","bc01a2b6f61d06f6604adb8657495020","76.142.12.90","Mozilla/5.0 (Windows NT 10.0; Win64; x64) AppleWebKit/537.36 (KHTML, like Gecko) Chrome/131.0.0.0 Safari/537.36","WebKit","Chrome","131.0.0.0","Windows","10.0","https://app.prolific.com/","en-US,en;q=0.9","6444b1e677ebe8b4e2c23abd","679edb085803f58d6bbd31ca","679efec6cb2971aebd9c6565","[{""page_index"":0,""viewing_time"":10723},{""page_index"":1,""viewing_time"":38072},{""page_index"":2,""viewing_time"":23120},{""page_index"":3,""viewing_time"":4248},{""page_index"":4,""viewing_time"":42848}]","119012","","","","",""
"","","","","","html-button-response","4","319723","0.0-4.0-0.0-0.0","46","1","2025-02-02 05:12:52","bc01a2b6f61d06f6604adb8657495020","76.142.12.90","Mozilla/5.0 (Windows NT 10.0; Win64; x64) AppleWebKit/537.36 (KHTML, like Gecko) Chrome/131.0.0.0 Safari/537.36","WebKit","Chrome","131.0.0.0","Windows","10.0","https://app.prolific.com/","en-US,en;q=0.9","6444b1e677ebe8b4e2c23abd","679edb085803f58d6bbd31ca","679efec6cb2971aebd9c6565","","16751","","0","Intro Trial","",""
"","","","","","html-button-response","5","323442","0.0-4.1-0.1-0.1","46","1","2025-02-02 05:12:52","bc01a2b6f61d06f6604adb8657495020","76.142.12.90","Mozilla/5.0 (Windows NT 10.0; Win64; x64) AppleWebKit/537.36 (KHTML, like Gecko) Chrome/131.0.0.0 Safari/537.36","WebKit","Chrome","131.0.0.0","Windows","10.0","https://app.prolific.com/","en-US,en;q=0.9","6444b1e677ebe8b4e2c23abd","679edb085803f58d6bbd31ca","679efec6cb2971aebd9c6565","","3718","","3","Intro Trial","",""
"","","","","","html-button-response","6","329275","0.0-4.2-0.2-0.2","46","1","2025-02-02 05:12:52","bc01a2b6f61d06f6604adb8657495020","76.142.12.90","Mozilla/5.0 (Windows NT 10.0; Win64; x64) AppleWebKit/537.36 (KHTML, like Gecko) Chrome/131.0.0.0 Safari/537.36","WebKit","Chrome","131.0.0.0","Windows","10.0","https://app.prolific.com/","en-US,en;q=0.9","6444b1e677ebe8b4e2c23abd","679edb085803f58d6bbd31ca","679efec6cb2971aebd9c6565","","5831","","5","Intro Trial","",""
"","","","","","html-keyboard-response","7","358331","0.0-5.0","46","1","2025-02-02 05:12:52","bc01a2b6f61d06f6604adb8657495020","76.142.12.90","Mozilla/5.0 (Windows NT 10.0; Win64; x64) AppleWebKit/537.36 (KHTML, like Gecko) Chrome/131.0.0.0 Safari/537.36","WebKit","Chrome","131.0.0.0","Windows","10.0","https://app.prolific.com/","en-US,en;q=0.9","6444b1e677ebe8b4e2c23abd","679edb085803f58d6bbd31ca","679efec6cb2971aebd9c6565","","29054","[""You sorted incorrectly by using the balance 1 times. <br><br> <img src='G_1.jpg' height='90'><img src='G_2.jpg' height='90'><img src='G_3.jpg' height='90'><img src='G_4.jpg' height='90'><img src='G_5.jpg' height='90'><br><br> Your final order is 4,2,3,5,1<br><br><br>Omgne Sort in this game will allow you to sort correctly by using the balance 8 times. Press Enter to learn it!""]","enter","","",""
"","","","","","html-keyboard-response","8","467131","0.0-6.0","46","1","2025-02-02 05:12:52","bc01a2b6f61d06f6604adb8657495020","76.142.12.90","Mozilla/5.0 (Windows NT 10.0; Win64; x64) AppleWebKit/537.36 (KHTML, like Gecko) Chrome/131.0.0.0 Safari/537.36","WebKit","Chrome","131.0.0.0","Windows","10.0","https://app.prolific.com/","en-US,en;q=0.9","6444b1e677ebe8b4e2c23abd","679edb085803f58d6bbd31ca","679efec6cb2971aebd9c6565","","108799","<p>Welcome to the learning phase! <br><br> You will learn by six examples. The following learning trials will not be used to calculate your performance. <br><br> Press Enter to continue.<p/>","enter","","",""
"","","","","","html-keyboard-response","9","472650","0.0-7.0","46","1","2025-02-02 05:12:52","bc01a2b6f61d06f6604adb8657495020","76.142.12.90","Mozilla/5.0 (Windows NT 10.0; Win64; x64) AppleWebKit/537.36 (KHTML, like Gecko) Chrome/131.0.0.0 Safari/537.36","WebKit","Chrome","131.0.0.0","Windows","10.0","https://app.prolific.com/","en-US,en;q=0.9","6444b1e677ebe8b4e2c23abd","679edb085803f58d6bbd31ca","679efec6cb2971aebd9c6565","","5518","[""Example 1<br><br>You will watch Omnge Sort in action. Try to identify any patterns in the comparisons made by this method. <br><br>Press Enter to continue.""]","enter","","",""
"","","","","","html-keyboard-response","10","473153","0.0-8.0","46","1","2025-02-02 05:12:52","bc01a2b6f61d06f6604adb8657495020","76.142.12.90","Mozilla/5.0 (Windows NT 10.0; Win64; x64) AppleWebKit/537.36 (KHTML, like Gecko) Chrome/131.0.0.0 Safari/537.36","WebKit","Chrome","131.0.0.0","Windows","10.0","https://app.prolific.com/","en-US,en;q=0.9","6444b1e677ebe8b4e2c23abd","679edb085803f58d6bbd31ca","679efec6cb2971aebd9c6565","","null","<img id='selected' src='G_7.jpg' height='90'> <img src='G_9.jpg' height='90'> <img src='G_1.jpg' height='90'> <img src='G_5.jpg' height='90'> <img src='G_3.jpg' height='90'>","null","Animation0","",""
"","","","","","html-keyboard-response","11","473663","0.0-9.0","46","1","2025-02-02 05:12:52","bc01a2b6f61d06f6604adb8657495020","76.142.12.90","Mozilla/5.0 (Windows NT 10.0; Win64; x64) AppleWebKit/537.36 (KHTML, like Gecko) Chrome/131.0.0.0 Safari/537.36","WebKit","Chrome","131.0.0.0","Windows","10.0","https://app.prolific.com/","en-US,en;q=0.9","6444b1e677ebe8b4e2c23abd","679edb085803f58d6bbd31ca","679efec6cb2971aebd9c6565","","null","<img id='selected' src='G_7.jpg' height='90'> <img id='selected' src='G_9.jpg' height='90'> <img src='G_1.jpg' height='90'> <img src='G_5.jpg' height='90'> <img src='G_3.jpg' height='90'>","null","Animation0","",""
"","","","","","html-keyboard-response","12","474170","0.0-10.0","46","1","2025-02-02 05:12:52","bc01a2b6f61d06f6604adb8657495020","76.142.12.90","Mozilla/5.0 (Windows NT 10.0; Win64; x64) AppleWebKit/537.36 (KHTML, like Gecko) Chrome/131.0.0.0 Safari/537.36","WebKit","Chrome","131.0.0.0","Windows","10.0","https://app.prolific.com/","en-US,en;q=0.9","6444b1e677ebe8b4e2c23abd","679edb085803f58d6bbd31ca","679efec6cb2971aebd9c6565","","null","<img id='swapped' src='G_9.jpg' height='90'> <img id='swapped' src='G_7.jpg' height='90'> <img src='G_1.jpg' height='90'> <img src='G_5.jpg' height='90'> <img src='G_3.jpg' height='90'>","null","Animation0","",""
"","","","","","html-keyboard-response","13","474471","0.0-11.0","46","1","2025-02-02 05:12:52","bc01a2b6f61d06f6604adb8657495020","76.142.12.90","Mozilla/5.0 (Windows NT 10.0; Win64; x64) AppleWebKit/537.36 (KHTML, like Gecko) Chrome/131.0.0.0 Safari/537.36","WebKit","Chrome","131.0.0.0","Windows","10.0","https://app.prolific.com/","en-US,en;q=0.9","6444b1e677ebe8b4e2c23abd","679edb085803f58d6bbd31ca","679efec6cb2971aebd9c6565","","null","<img  src='G_9.jpg' height='90'> <img  src='G_7.jpg' height='90'> <img src='G_1.jpg' height='90'> <img src='G_5.jpg' height='90'> <img src='G_3.jpg' height='90'>","null","Animation0","",""
"","","","","","html-keyboard-response","14","474987","0.0-12.0","46","1","2025-02-02 05:12:52","bc01a2b6f61d06f6604adb8657495020","76.142.12.90","Mozilla/5.0 (Windows NT 10.0; Win64; x64) AppleWebKit/537.36 (KHTML, like Gecko) Chrome/131.0.0.0 Safari/537.36","WebKit","Chrome","131.0.0.0","Windows","10.0","https://app.prolific.com/","en-US,en;q=0.9","6444b1e677ebe8b4e2c23abd","679edb085803f58d6bbd31ca","679efec6cb2971aebd9c6565","","null","<img  src='G_9.jpg' height='90'> <img id='selected'  src='G_7.jpg' height='90'> <img src='G_1.jpg' height='90'> <img src='G_5.jpg' height='90'> <img src='G_3.jpg' height='90'>","null","Animation0","",""
"","","","","","html-keyboard-response","15","475489","0.0-13.0","46","1","2025-02-02 05:12:52","bc01a2b6f61d06f6604adb8657495020","76.142.12.90","Mozilla/5.0 (Windows NT 10.0; Win64; x64) AppleWebKit/537.36 (KHTML, like Gecko) Chrome/131.0.0.0 Safari/537.36","WebKit","Chrome","131.0.0.0","Windows","10.0","https://app.prolific.com/","en-US,en;q=0.9","6444b1e677ebe8b4e2c23abd","679edb085803f58d6bbd31ca","679efec6cb2971aebd9c6565","","null","<img  src='G_9.jpg' height='90'> <img id='selected'  src='G_7.jpg' height='90'> <img id='selected' src='G_1.jpg' height='90'> <img src='G_5.jpg' height='90'> <img src='G_3.jpg' height='90'>","null","Animation0","",""
"","","","","","html-keyboard-response","16","476003","0.0-14.0","46","1","2025-02-02 05:12:52","bc01a2b6f61d06f6604adb8657495020","76.142.12.90","Mozilla/5.0 (Windows NT 10.0; Win64; x64) AppleWebKit/537.36 (KHTML, like Gecko) Chrome/131.0.0.0 Safari/537.36","WebKit","Chrome","131.0.0.0","Windows","10.0","https://app.prolific.com/","en-US,en;q=0.9","6444b1e677ebe8b4e2c23abd","679edb085803f58d6bbd31ca","679efec6cb2971aebd9c6565","","null","<img  src='G_9.jpg' height='90'> <img id='selected'  src='G_7.jpg' height='90'> <img id='selected' src='G_1.jpg' height='90'> <img src='G_5.jpg' height='90'> <img src='G_3.jpg' height='90'>","null","Animation0","",""
"","","","","","html-keyboard-response","17","476312","0.0-15.0","46","1","2025-02-02 05:12:52","bc01a2b6f61d06f6604adb8657495020","76.142.12.90","Mozilla/5.0 (Windows NT 10.0; Win64; x64) AppleWebKit/537.36 (KHTML, like Gecko) Chrome/131.0.0.0 Safari/537.36","WebKit","Chrome","131.0.0.0","Windows","10.0","https://app.prolific.com/","en-US,en;q=0.9","6444b1e677ebe8b4e2c23abd","679edb085803f58d6bbd31ca","679efec6cb2971aebd9c6565","","null","<img  src='G_9.jpg' height='90'> <img   src='G_7.jpg' height='90'> <img  src='G_1.jpg' height='90'> <img src='G_5.jpg' height='90'> <img src='G_3.jpg' height='90'>","null","Animation0","",""
"","","","","","html-keyboard-response","18","476823","0.0-16.0","46","1","2025-02-02 05:12:52","bc01a2b6f61d06f6604adb8657495020","76.142.12.90","Mozilla/5.0 (Windows NT 10.0; Win64; x64) AppleWebKit/537.36 (KHTML, like Gecko) Chrome/131.0.0.0 Safari/537.36","WebKit","Chrome","131.0.0.0","Windows","10.0","https://app.prolific.com/","en-US,en;q=0.9","6444b1e677ebe8b4e2c23abd","679edb085803f58d6bbd31ca","679efec6cb2971aebd9c6565","","null","<img  src='G_9.jpg' height='90'> <img   src='G_7.jpg' height='90'> <img id='selected'  src='G_1.jpg' height='90'> <img src='G_5.jpg' height='90'> <img src='G_3.jpg' height='90'>","null","Animation0","",""
"","","","","","html-keyboard-response","19","477330","0.0-17.0","46","1","2025-02-02 05:12:52","bc01a2b6f61d06f6604adb8657495020","76.142.12.90","Mozilla/5.0 (Windows NT 10.0; Win64; x64) AppleWebKit/537.36 (KHTML, like Gecko) Chrome/131.0.0.0 Safari/537.36","WebKit","Chrome","131.0.0.0","Windows","10.0","https://app.prolific.com/","en-US,en;q=0.9","6444b1e677ebe8b4e2c23abd","679edb085803f58d6bbd31ca","679efec6cb2971aebd9c6565","","null","<img  src='G_9.jpg' height='90'> <img   src='G_7.jpg' height='90'> <img id='selected'  src='G_1.jpg' height='90'> <img id='selected' src='G_5.jpg' height='90'> <img src='G_3.jpg' height='90'>","null","Animation0","",""
"","","","","","html-keyboard-response","20","477839","0.0-18.0","46","1","2025-02-02 05:12:52","bc01a2b6f61d06f6604adb8657495020","76.142.12.90","Mozilla/5.0 (Windows NT 10.0; Win64; x64) AppleWebKit/537.36 (KHTML, like Gecko) Chrome/131.0.0.0 Safari/537.36","WebKit","Chrome","131.0.0.0","Windows","10.0","https://app.prolific.com/","en-US,en;q=0.9","6444b1e677ebe8b4e2c23abd","679edb085803f58d6bbd31ca","679efec6cb2971aebd9c6565","","null","<img  src='G_9.jpg' height='90'> <img   src='G_7.jpg' height='90'> <img id='selected'  src='G_1.jpg' height='90'> <img id='selected' src='G_5.jpg' height='90'> <img src='G_3.jpg' height='90'>","null","Animation0","",""
"","","","","","html-keyboard-response","21","478147","0.0-19.0","46","1","2025-02-02 05:12:52","bc01a2b6f61d06f6604adb8657495020","76.142.12.90","Mozilla/5.0 (Windows NT 10.0; Win64; x64) AppleWebKit/537.36 (KHTML, like Gecko) Chrome/131.0.0.0 Safari/537.36","WebKit","Chrome","131.0.0.0","Windows","10.0","https://app.prolific.com/","en-US,en;q=0.9","6444b1e677ebe8b4e2c23abd","679edb085803f58d6bbd31ca","679efec6cb2971aebd9c6565","","null","<img  src='G_9.jpg' height='90'> <img   src='G_7.jpg' height='90'> <img   src='G_1.jpg' height='90'> <img  src='G_5.jpg' height='90'> <img src='G_3.jpg' height='90'>","null","Animation0","",""
"","","","","","html-keyboard-response","22","478654","0.0-20.0","46","1","2025-02-02 05:12:52","bc01a2b6f61d06f6604adb8657495020","76.142.12.90","Mozilla/5.0 (Windows NT 10.0; Win64; x64) AppleWebKit/537.36 (KHTML, like Gecko) Chrome/131.0.0.0 Safari/537.36","WebKit","Chrome","131.0.0.0","Windows","10.0","https://app.prolific.com/","en-US,en;q=0.9","6444b1e677ebe8b4e2c23abd","679edb085803f58d6bbd31ca","679efec6cb2971aebd9c6565","","null","<img  src='G_9.jpg' height='90'> <img   src='G_7.jpg' height='90'> <img   src='G_1.jpg' height='90'> <img id='selected'  src='G_5.jpg' height='90'> <img src='G_3.jpg' height='90'>","null","Animation0","",""
"","","","","","html-keyboard-response","23","479165","0.0-21.0","46","1","2025-02-02 05:12:52","bc01a2b6f61d06f6604adb8657495020","76.142.12.90","Mozilla/5.0 (Windows NT 10.0; Win64; x64) AppleWebKit/537.36 (KHTML, like Gecko) Chrome/131.0.0.0 Safari/537.36","WebKit","Chrome","131.0.0.0","Windows","10.0","https://app.prolific.com/","en-US,en;q=0.9","6444b1e677ebe8b4e2c23abd","679edb085803f58d6bbd31ca","679efec6cb2971aebd9c6565","","null","<img  src='G_9.jpg' height='90'> <img   src='G_7.jpg' height='90'> <img   src='G_1.jpg' height='90'> <img id='selected'  src='G_5.jpg' height='90'> <img id='selected' src='G_3.jpg' height='90'>","null","Animation0","",""
"","","","","","html-keyboard-response","24","479670","0.0-22.0","46","1","2025-02-02 05:12:52","bc01a2b6f61d06f6604adb8657495020","76.142.12.90","Mozilla/5.0 (Windows NT 10.0; Win64; x64) AppleWebKit/537.36 (KHTML, like Gecko) Chrome/131.0.0.0 Safari/537.36","WebKit","Chrome","131.0.0.0","Windows","10.0","https://app.prolific.com/","en-US,en;q=0.9","6444b1e677ebe8b4e2c23abd","679edb085803f58d6bbd31ca","679efec6cb2971aebd9c6565","","null","<img  src='G_9.jpg' height='90'> <img   src='G_7.jpg' height='90'> <img   src='G_1.jpg' height='90'> <img id='selected'  src='G_5.jpg' height='90'> <img id='selected' src='G_3.jpg' height='90'>","null","Animation0","",""
"","","","","","html-keyboard-response","25","479981","0.0-23.0","46","1","2025-02-02 05:12:52","bc01a2b6f61d06f6604adb8657495020","76.142.12.90","Mozilla/5.0 (Windows NT 10.0; Win64; x64) AppleWebKit/537.36 (KHTML, like Gecko) Chrome/131.0.0.0 Safari/537.36","WebKit","Chrome","131.0.0.0","Windows","10.0","https://app.prolific.com/","en-US,en;q=0.9","6444b1e677ebe8b4e2c23abd","679edb085803f58d6bbd31ca","679efec6cb2971aebd9c6565","","null","<img  src='G_9.jpg' height='90'> <img   src='G_7.jpg' height='90'> <img   src='G_1.jpg' height='90'> <img   src='G_5.jpg' height='90'> <img  src='G_3.jpg' height='90'>","null","Animation0","",""
"","","","","","html-keyboard-response","26","483034","0.0-24.0","46","1","2025-02-02 05:12:52","bc01a2b6f61d06f6604adb8657495020","76.142.12.90","Mozilla/5.0 (Windows NT 10.0; Win64; x64) AppleWebKit/537.36 (KHTML, like Gecko) Chrome/131.0.0.0 Safari/537.36","WebKit","Chrome","131.0.0.0","Windows","10.0","https://app.prolific.com/","en-US,en;q=0.9","6444b1e677ebe8b4e2c23abd","679edb085803f58d6bbd31ca","679efec6cb2971aebd9c6565","","3052","[""Did you notice any patterns? <br><br>Press Enter to watch that example again and follow the steps of Omgne Sort.""]","enter","","",""
"","","","","","html-button-response","27","483440","0.0-25.0","46","1","2025-02-02 05:12:52","bc01a2b6f61d06f6604adb8657495020","76.142.12.90","Mozilla/5.0 (Windows NT 10.0; Win64; x64) AppleWebKit/537.36 (KHTML, like Gecko) Chrome/131.0.0.0 Safari/537.36","WebKit","Chrome","131.0.0.0","Windows","10.0","https://app.prolific.com/","en-US,en;q=0.9","6444b1e677ebe8b4e2c23abd","679edb085803f58d6bbd31ca","679efec6cb2971aebd9c6565","","null","<img id='selected' src='G_7.jpg' height='90'> <img src='G_9.jpg' height='90'> <img src='G_1.jpg' height='90'> <img src='G_5.jpg' height='90'> <img src='G_3.jpg' height='90'>","null","Learning example 0","",""
"","","","","","html-button-response","28","483748","0.0-26.0","46","1","2025-02-02 05:12:52","bc01a2b6f61d06f6604adb8657495020","76.142.12.90","Mozilla/5.0 (Windows NT 10.0; Win64; x64) AppleWebKit/537.36 (KHTML, like Gecko) Chrome/131.0.0.0 Safari/537.36","WebKit","Chrome","131.0.0.0","Windows","10.0","https://app.prolific.com/","en-US,en;q=0.9","6444b1e677ebe8b4e2c23abd","679edb085803f58d6bbd31ca","679efec6cb2971aebd9c6565","","null","<img id='selected' src='G_7.jpg' height='90'> <img id='selected' src='G_9.jpg' height='90'> <img src='G_1.jpg' height='90'> <img src='G_5.jpg' height='90'> <img src='G_3.jpg' height='90'>","null","Learning example 0","",""
"","","","","","html-button-response","29","484055","0.0-27.0","46","1","2025-02-02 05:12:52","bc01a2b6f61d06f6604adb8657495020","76.142.12.90","Mozilla/5.0 (Windows NT 10.0; Win64; x64) AppleWebKit/537.36 (KHTML, like Gecko) Chrome/131.0.0.0 Safari/537.36","WebKit","Chrome","131.0.0.0","Windows","10.0","https://app.prolific.com/","en-US,en;q=0.9","6444b1e677ebe8b4e2c23abd","679edb085803f58d6bbd31ca","679efec6cb2971aebd9c6565","","null","<img id='swapped' src='G_9.jpg' height='90'> <img id='swapped' src='G_7.jpg' height='90'> <img src='G_1.jpg' height='90'> <img src='G_5.jpg' height='90'> <img src='G_3.jpg' height='90'>","null","Learning example 0","",""
"","","","","","html-button-response","30","504090","0.0-28.0-0.0-0.0","46","1","2025-02-02 05:12:52","bc01a2b6f61d06f6604adb8657495020","76.142.12.90","Mozilla/5.0 (Windows NT 10.0; Win64; x64) AppleWebKit/537.36 (KHTML, like Gecko) Chrome/131.0.0.0 Safari/537.36","WebKit","Chrome","131.0.0.0","Windows","10.0","https://app.prolific.com/","en-US,en;q=0.9","6444b1e677ebe8b4e2c23abd","679edb085803f58d6bbd31ca","679efec6cb2971aebd9c6565","","20033","<img id='swapped' src='G_9.jpg' height='90'> <img id='swapped' src='G_7.jpg' height='90'> <img src='G_1.jpg' height='90'> <img src='G_5.jpg' height='90'> <img src='G_3.jpg' height='90'>","1","Learning example 0","",""
"","","","","","html-button-response","31","504970","0.0-28.1-0.1-0.1","46","1","2025-02-02 05:12:52","bc01a2b6f61d06f6604adb8657495020","76.142.12.90","Mozilla/5.0 (Windows NT 10.0; Win64; x64) AppleWebKit/537.36 (KHTML, like Gecko) Chrome/131.0.0.0 Safari/537.36","WebKit","Chrome","131.0.0.0","Windows","10.0","https://app.prolific.com/","en-US,en;q=0.9","6444b1e677ebe8b4e2c23abd","679edb085803f58d6bbd31ca","679efec6cb2971aebd9c6565","","878","<img id='swapped' src='G_9.jpg' height='90'> <img id='swapped' src='G_7.jpg' height='90'> <img src='G_1.jpg' height='90'> <img src='G_5.jpg' height='90'> <img src='G_3.jpg' height='90'>","0","Learning example 0","",""
"","","","","","html-button-response","32","505176","0.0-29.0","46","1","2025-02-02 05:12:52","bc01a2b6f61d06f6604adb8657495020","76.142.12.90","Mozilla/5.0 (Windows NT 10.0; Win64; x64) AppleWebKit/537.36 (KHTML, like Gecko) Chrome/131.0.0.0 Safari/537.36","WebKit","Chrome","131.0.0.0","Windows","10.0","https://app.prolific.com/","en-US,en;q=0.9","6444b1e677ebe8b4e2c23abd","679edb085803f58d6bbd31ca","679efec6cb2971aebd9c6565","","null","<img  src='G_9.jpg' height='90'> <img  src='G_7.jpg' height='90'> <img src='G_1.jpg' height='90'> <img src='G_5.jpg' height='90'> <img src='G_3.jpg' height='90'>","null","Learning example 0","",""
"","","","","","html-button-response","33","505583","0.0-30.0","46","1","2025-02-02 05:12:52","bc01a2b6f61d06f6604adb8657495020","76.142.12.90","Mozilla/5.0 (Windows NT 10.0; Win64; x64) AppleWebKit/537.36 (KHTML, like Gecko) Chrome/131.0.0.0 Safari/537.36","WebKit","Chrome","131.0.0.0","Windows","10.0","https://app.prolific.com/","en-US,en;q=0.9","6444b1e677ebe8b4e2c23abd","679edb085803f58d6bbd31ca","679efec6cb2971aebd9c6565","","null","<img  src='G_9.jpg' height='90'> <img id='selected'  src='G_7.jpg' height='90'> <img src='G_1.jpg' height='90'> <img src='G_5.jpg' height='90'> <img src='G_3.jpg' height='90'>","null","Learning example 0","",""
"","","","","","html-button-response","34","505897","0.0-31.0","46","1","2025-02-02 05:12:52","bc01a2b6f61d06f6604adb8657495020","76.142.12.90","Mozilla/5.0 (Windows NT 10.0; Win64; x64) AppleWebKit/537.36 (KHTML, like Gecko) Chrome/131.0.0.0 Safari/537.36","WebKit","Chrome","131.0.0.0","Windows","10.0","https://app.prolific.com/","en-US,en;q=0.9","6444b1e677ebe8b4e2c23abd","679edb085803f58d6bbd31ca","679efec6cb2971aebd9c6565","","null","<img  src='G_9.jpg' height='90'> <img id='selected'  src='G_7.jpg' height='90'> <img id='selected' src='G_1.jpg' height='90'> <img src='G_5.jpg' height='90'> <img src='G_3.jpg' height='90'>","null","Learning example 0","",""
"","","","","","html-button-response","35","506199","0.0-32.0","46","1","2025-02-02 05:12:52","bc01a2b6f61d06f6604adb8657495020","76.142.12.90","Mozilla/5.0 (Windows NT 10.0; Win64; x64) AppleWebKit/537.36 (KHTML, like Gecko) Chrome/131.0.0.0 Safari/537.36","WebKit","Chrome","131.0.0.0","Windows","10.0","https://app.prolific.com/","en-US,en;q=0.9","6444b1e677ebe8b4e2c23abd","679edb085803f58d6bbd31ca","679efec6cb2971aebd9c6565","","null","<img  src='G_9.jpg' height='90'> <img id='selected'  src='G_7.jpg' height='90'> <img id='selected' src='G_1.jpg' height='90'> <img src='G_5.jpg' height='90'> <img src='G_3.jpg' height='90'>","null","Learning example 0","",""
"","","","","","html-button-response","36","508194","0.0-33.0-0.0-0.0","46","1","2025-02-02 05:12:52","bc01a2b6f61d06f6604adb8657495020","76.142.12.90","Mozilla/5.0 (Windows NT 10.0; Win64; x64) AppleWebKit/537.36 (KHTML, like Gecko) Chrome/131.0.0.0 Safari/537.36","WebKit","Chrome","131.0.0.0","Windows","10.0","https://app.prolific.com/","en-US,en;q=0.9","6444b1e677ebe8b4e2c23abd","679edb085803f58d6bbd31ca","679efec6cb2971aebd9c6565","","1994","<img  src='G_9.jpg' height='90'> <img id='selected'  src='G_7.jpg' height='90'> <img id='selected' src='G_1.jpg' height='90'> <img src='G_5.jpg' height='90'> <img src='G_3.jpg' height='90'>","1","Learning example 0","",""
"","","","","","html-button-response","37","508946","0.0-33.1-0.1-0.1","46","1","2025-02-02 05:12:52","bc01a2b6f61d06f6604adb8657495020","76.142.12.90","Mozilla/5.0 (Windows NT 10.0; Win64; x64) AppleWebKit/537.36 (KHTML, like Gecko) Chrome/131.0.0.0 Safari/537.36","WebKit","Chrome","131.0.0.0","Windows","10.0","https://app.prolific.com/","en-US,en;q=0.9","6444b1e677ebe8b4e2c23abd","679edb085803f58d6bbd31ca","679efec6cb2971aebd9c6565","","750","<img  src='G_9.jpg' height='90'> <img id='selected'  src='G_7.jpg' height='90'> <img id='selected' src='G_1.jpg' height='90'> <img src='G_5.jpg' height='90'> <img src='G_3.jpg' height='90'>","2","Learning example 0","",""
"","","","","","html-button-response","38","509148","0.0-34.0","46","1","2025-02-02 05:12:52","bc01a2b6f61d06f6604adb8657495020","76.142.12.90","Mozilla/5.0 (Windows NT 10.0; Win64; x64) AppleWebKit/537.36 (KHTML, like Gecko) Chrome/131.0.0.0 Safari/537.36","WebKit","Chrome","131.0.0.0","Windows","10.0","https://app.prolific.com/","en-US,en;q=0.9","6444b1e677ebe8b4e2c23abd","679edb085803f58d6bbd31ca","679efec6cb2971aebd9c6565","","null","<img  src='G_9.jpg' height='90'> <img   src='G_7.jpg' height='90'> <img  src='G_1.jpg' height='90'> <img src='G_5.jpg' height='90'> <img src='G_3.jpg' height='90'>","null","Learning example 0","",""
"","","","","","html-button-response","39","509549","0.0-35.0","46","1","2025-02-02 05:12:52","bc01a2b6f61d06f6604adb8657495020","76.142.12.90","Mozilla/5.0 (Windows NT 10.0; Win64; x64) AppleWebKit/537.36 (KHTML, like Gecko) Chrome/131.0.0.0 Safari/537.36","WebKit","Chrome","131.0.0.0","Windows","10.0","https://app.prolific.com/","en-US,en;q=0.9","6444b1e677ebe8b4e2c23abd","679edb085803f58d6bbd31ca","679efec6cb2971aebd9c6565","","null","<img  src='G_9.jpg' height='90'> <img   src='G_7.jpg' height='90'> <img id='selected'  src='G_1.jpg' height='90'> <img src='G_5.jpg' height='90'> <img src='G_3.jpg' height='90'>","null","Learning example 0","",""
"","","","","","html-button-response","40","509866","0.0-36.0","46","1","2025-02-02 05:12:52","bc01a2b6f61d06f6604adb8657495020","76.142.12.90","Mozilla/5.0 (Windows NT 10.0; Win64; x64) AppleWebKit/537.36 (KHTML, like Gecko) Chrome/131.0.0.0 Safari/537.36","WebKit","Chrome","131.0.0.0","Windows","10.0","https://app.prolific.com/","en-US,en;q=0.9","6444b1e677ebe8b4e2c23abd","679edb085803f58d6bbd31ca","679efec6cb2971aebd9c6565","","null","<img  src='G_9.jpg' height='90'> <img   src='G_7.jpg' height='90'> <img id='selected'  src='G_1.jpg' height='90'> <img id='selected' src='G_5.jpg' height='90'> <img src='G_3.jpg' height='90'>","null","Learning example 0","",""
"","","","","","html-button-response","41","510169","0.0-37.0","46","1","2025-02-02 05:12:52","bc01a2b6f61d06f6604adb8657495020","76.142.12.90","Mozilla/5.0 (Windows NT 10.0; Win64; x64) AppleWebKit/537.36 (KHTML, like Gecko) Chrome/131.0.0.0 Safari/537.36","WebKit","Chrome","131.0.0.0","Windows","10.0","https://app.prolific.com/","en-US,en;q=0.9","6444b1e677ebe8b4e2c23abd","679edb085803f58d6bbd31ca","679efec6cb2971aebd9c6565","","null","<img  src='G_9.jpg' height='90'> <img   src='G_7.jpg' height='90'> <img id='selected'  src='G_1.jpg' height='90'> <img id='selected' src='G_5.jpg' height='90'> <img src='G_3.jpg' height='90'>","null","Learning example 0","",""
"","","","","","html-button-response","42","510978","0.0-38.0-0.0-0.0","46","1","2025-02-02 05:12:52","bc01a2b6f61d06f6604adb8657495020","76.142.12.90","Mozilla/5.0 (Windows NT 10.0; Win64; x64) AppleWebKit/537.36 (KHTML, like Gecko) Chrome/131.0.0.0 Safari/537.36","WebKit","Chrome","131.0.0.0","Windows","10.0","https://app.prolific.com/","en-US,en;q=0.9","6444b1e677ebe8b4e2c23abd","679edb085803f58d6bbd31ca","679efec6cb2971aebd9c6565","","808","<img  src='G_9.jpg' height='90'> <img   src='G_7.jpg' height='90'> <img id='selected'  src='G_1.jpg' height='90'> <img id='selected' src='G_5.jpg' height='90'> <img src='G_3.jpg' height='90'>","2","Learning example 0","",""
"","","","","","html-button-response","43","511898","0.0-38.1-0.1-0.1","46","1","2025-02-02 05:12:52","bc01a2b6f61d06f6604adb8657495020","76.142.12.90","Mozilla/5.0 (Windows NT 10.0; Win64; x64) AppleWebKit/537.36 (KHTML, like Gecko) Chrome/131.0.0.0 Safari/537.36","WebKit","Chrome","131.0.0.0","Windows","10.0","https://app.prolific.com/","en-US,en;q=0.9","6444b1e677ebe8b4e2c23abd","679edb085803f58d6bbd31ca","679efec6cb2971aebd9c6565","","918","<img  src='G_9.jpg' height='90'> <img   src='G_7.jpg' height='90'> <img id='selected'  src='G_1.jpg' height='90'> <img id='selected' src='G_5.jpg' height='90'> <img src='G_3.jpg' height='90'>","3","Learning example 0","",""
"","","","","","html-button-response","44","512106","0.0-39.0","46","1","2025-02-02 05:12:52","bc01a2b6f61d06f6604adb8657495020","76.142.12.90","Mozilla/5.0 (Windows NT 10.0; Win64; x64) AppleWebKit/537.36 (KHTML, like Gecko) Chrome/131.0.0.0 Safari/537.36","WebKit","Chrome","131.0.0.0","Windows","10.0","https://app.prolific.com/","en-US,en;q=0.9","6444b1e677ebe8b4e2c23abd","679edb085803f58d6bbd31ca","679efec6cb2971aebd9c6565","","null","<img  src='G_9.jpg' height='90'> <img   src='G_7.jpg' height='90'> <img   src='G_1.jpg' height='90'> <img  src='G_5.jpg' height='90'> <img src='G_3.jpg' height='90'>","null","Learning example 0","",""
"","","","","","html-button-response","45","512509","0.0-40.0","46","1","2025-02-02 05:12:52","bc01a2b6f61d06f6604adb8657495020","76.142.12.90","Mozilla/5.0 (Windows NT 10.0; Win64; x64) AppleWebKit/537.36 (KHTML, like Gecko) Chrome/131.0.0.0 Safari/537.36","WebKit","Chrome","131.0.0.0","Windows","10.0","https://app.prolific.com/","en-US,en;q=0.9","6444b1e677ebe8b4e2c23abd","679edb085803f58d6bbd31ca","679efec6cb2971aebd9c6565","","null","<img  src='G_9.jpg' height='90'> <img   src='G_7.jpg' height='90'> <img   src='G_1.jpg' height='90'> <img id='selected'  src='G_5.jpg' height='90'> <img src='G_3.jpg' height='90'>","null","Learning example 0","",""
"","","","","","html-button-response","46","512817","0.0-41.0","46","1","2025-02-02 05:12:52","bc01a2b6f61d06f6604adb8657495020","76.142.12.90","Mozilla/5.0 (Windows NT 10.0; Win64; x64) AppleWebKit/537.36 (KHTML, like Gecko) Chrome/131.0.0.0 Safari/537.36","WebKit","Chrome","131.0.0.0","Windows","10.0","https://app.prolific.com/","en-US,en;q=0.9","6444b1e677ebe8b4e2c23abd","679edb085803f58d6bbd31ca","679efec6cb2971aebd9c6565","","null","<img  src='G_9.jpg' height='90'> <img   src='G_7.jpg' height='90'> <img   src='G_1.jpg' height='90'> <img id='selected'  src='G_5.jpg' height='90'> <img id='selected' src='G_3.jpg' height='90'>","null","Learning example 0","",""
"","","","","","html-button-response","47","513126","0.0-42.0","46","1","2025-02-02 05:12:52","bc01a2b6f61d06f6604adb8657495020","76.142.12.90","Mozilla/5.0 (Windows NT 10.0; Win64; x64) AppleWebKit/537.36 (KHTML, like Gecko) Chrome/131.0.0.0 Safari/537.36","WebKit","Chrome","131.0.0.0","Windows","10.0","https://app.prolific.com/","en-US,en;q=0.9","6444b1e677ebe8b4e2c23abd","679edb085803f58d6bbd31ca","679efec6cb2971aebd9c6565","","null","<img  src='G_9.jpg' height='90'> <img   src='G_7.jpg' height='90'> <img   src='G_1.jpg' height='90'> <img id='selected'  src='G_5.jpg' height='90'> <img id='selected' src='G_3.jpg' height='90'>","null","Learning example 0","",""
"","","","","","html-button-response","48","514202","0.0-43.0-0.0-0.0","46","1","2025-02-02 05:12:52","bc01a2b6f61d06f6604adb8657495020","76.142.12.90","Mozilla/5.0 (Windows NT 10.0; Win64; x64) AppleWebKit/537.36 (KHTML, like Gecko) Chrome/131.0.0.0 Safari/537.36","WebKit","Chrome","131.0.0.0","Windows","10.0","https://app.prolific.com/","en-US,en;q=0.9","6444b1e677ebe8b4e2c23abd","679edb085803f58d6bbd31ca","679efec6cb2971aebd9c6565","","1075","<img  src='G_9.jpg' height='90'> <img   src='G_7.jpg' height='90'> <img   src='G_1.jpg' height='90'> <img id='selected'  src='G_5.jpg' height='90'> <img id='selected' src='G_3.jpg' height='90'>","3","Learning example 0","",""
"","","","","","html-button-response","49","519538","0.0-43.1-0.1-0.1","46","1","2025-02-02 05:12:52","bc01a2b6f61d06f6604adb8657495020","76.142.12.90","Mozilla/5.0 (Windows NT 10.0; Win64; x64) AppleWebKit/537.36 (KHTML, like Gecko) Chrome/131.0.0.0 Safari/537.36","WebKit","Chrome","131.0.0.0","Windows","10.0","https://app.prolific.com/","en-US,en;q=0.9","6444b1e677ebe8b4e2c23abd","679edb085803f58d6bbd31ca","679efec6cb2971aebd9c6565","","5334","<img  src='G_9.jpg' height='90'> <img   src='G_7.jpg' height='90'> <img   src='G_1.jpg' height='90'> <img id='selected'  src='G_5.jpg' height='90'> <img id='selected' src='G_3.jpg' height='90'>","4","Learning example 0","",""
"","","","","","html-button-response","50","519753","0.0-44.0","46","1","2025-02-02 05:12:52","bc01a2b6f61d06f6604adb8657495020","76.142.12.90","Mozilla/5.0 (Windows NT 10.0; Win64; x64) AppleWebKit/537.36 (KHTML, like Gecko) Chrome/131.0.0.0 Safari/537.36","WebKit","Chrome","131.0.0.0","Windows","10.0","https://app.prolific.com/","en-US,en;q=0.9","6444b1e677ebe8b4e2c23abd","679edb085803f58d6bbd31ca","679efec6cb2971aebd9c6565","","null","<img  src='G_9.jpg' height='90'> <img   src='G_7.jpg' height='90'> <img   src='G_1.jpg' height='90'> <img   src='G_5.jpg' height='90'> <img  src='G_3.jpg' height='90'>","null","Learning example 0","",""
"","","","","","html-keyboard-response","51","596394","0.0-45.0","46","1","2025-02-02 05:12:52","bc01a2b6f61d06f6604adb8657495020","76.142.12.90","Mozilla/5.0 (Windows NT 10.0; Win64; x64) AppleWebKit/537.36 (KHTML, like Gecko) Chrome/131.0.0.0 Safari/537.36","WebKit","Chrome","131.0.0.0","Windows","10.0","https://app.prolific.com/","en-US,en;q=0.9","6444b1e677ebe8b4e2c23abd","679edb085803f58d6bbd31ca","679efec6cb2971aebd9c6565","","76640","[""Final order was 1,2,3,4,5. The initial order was 2,1,3,4,5.<br>It took 1 swaps to sort it correctly with Omgne Sort. <br><br>Press Enter to continue.""]","enter","","",""
"","","","","","html-keyboard-response","52","600218","0.0-46.0","46","1","2025-02-02 05:12:52","bc01a2b6f61d06f6604adb8657495020","76.142.12.90","Mozilla/5.0 (Windows NT 10.0; Win64; x64) AppleWebKit/537.36 (KHTML, like Gecko) Chrome/131.0.0.0 Safari/537.36","WebKit","Chrome","131.0.0.0","Windows","10.0","https://app.prolific.com/","en-US,en;q=0.9","6444b1e677ebe8b4e2c23abd","679edb085803f58d6bbd31ca","679efec6cb2971aebd9c6565","","3822","[""Example 2<br><br>You will watch Omnge Sort in action. Try to identify any patterns in the comparisons made by this method. <br><br>Press Enter to continue.""]","enter","","",""
"","","","","","html-keyboard-response","53","600733","0.0-47.0","46","1","2025-02-02 05:12:52","bc01a2b6f61d06f6604adb8657495020","76.142.12.90","Mozilla/5.0 (Windows NT 10.0; Win64; x64) AppleWebKit/537.36 (KHTML, like Gecko) Chrome/131.0.0.0 Safari/537.36","WebKit","Chrome","131.0.0.0","Windows","10.0","https://app.prolific.com/","en-US,en;q=0.9","6444b1e677ebe8b4e2c23abd","679edb085803f58d6bbd31ca","679efec6cb2971aebd9c6565","","null","<img id='selected' src='G_4.jpg' height='90'> <img src='G_8.jpg' height='90'> <img src='G_3.jpg' height='90'> <img src='G_1.jpg' height='90'> <img src='G_5.jpg' height='90'> <img src='G_7.jpg' height='90'> <img src='G_6.jpg' height='90'> <img src='G_2.jpg' height='90'>","null","Animation1","",""
"","","","","","html-keyboard-response","54","601243","0.0-48.0","46","1","2025-02-02 05:12:52","bc01a2b6f61d06f6604adb8657495020","76.142.12.90","Mozilla/5.0 (Windows NT 10.0; Win64; x64) AppleWebKit/537.36 (KHTML, like Gecko) Chrome/131.0.0.0 Safari/537.36","WebKit","Chrome","131.0.0.0","Windows","10.0","https://app.prolific.com/","en-US,en;q=0.9","6444b1e677ebe8b4e2c23abd","679edb085803f58d6bbd31ca","679efec6cb2971aebd9c6565","","null","<img id='selected' src='G_4.jpg' height='90'> <img id='selected' src='G_8.jpg' height='90'> <img src='G_3.jpg' height='90'> <img src='G_1.jpg' height='90'> <img src='G_5.jpg' height='90'> <img src='G_7.jpg' height='90'> <img src='G_6.jpg' height='90'> <img src='G_2.jpg' height='90'>","null","Animation1","",""
"","","","","","html-keyboard-response","55","601755","0.0-49.0","46","1","2025-02-02 05:12:52","bc01a2b6f61d06f6604adb8657495020","76.142.12.90","Mozilla/5.0 (Windows NT 10.0; Win64; x64) AppleWebKit/537.36 (KHTML, like Gecko) Chrome/131.0.0.0 Safari/537.36","WebKit","Chrome","131.0.0.0","Windows","10.0","https://app.prolific.com/","en-US,en;q=0.9","6444b1e677ebe8b4e2c23abd","679edb085803f58d6bbd31ca","679efec6cb2971aebd9c6565","","null","<img id='selected' src='G_4.jpg' height='90'> <img id='selected' src='G_8.jpg' height='90'> <img src='G_3.jpg' height='90'> <img src='G_1.jpg' height='90'> <img src='G_5.jpg' height='90'> <img src='G_7.jpg' height='90'> <img src='G_6.jpg' height='90'> <img src='G_2.jpg' height='90'>","null","Animation1","",""
"","","","","","html-keyboard-response","56","602056","0.0-50.0","46","1","2025-02-02 05:12:52","bc01a2b6f61d06f6604adb8657495020","76.142.12.90","Mozilla/5.0 (Windows NT 10.0; Win64; x64) AppleWebKit/537.36 (KHTML, like Gecko) Chrome/131.0.0.0 Safari/537.36","WebKit","Chrome","131.0.0.0","Windows","10.0","https://app.prolific.com/","en-US,en;q=0.9","6444b1e677ebe8b4e2c23abd","679edb085803f58d6bbd31ca","679efec6cb2971aebd9c6565","","null","<img  src='G_4.jpg' height='90'> <img  src='G_8.jpg' height='90'> <img src='G_3.jpg' height='90'> <img src='G_1.jpg' height='90'> <img src='G_5.jpg' height='90'> <img src='G_7.jpg' height='90'> <img src='G_6.jpg' height='90'> <img src='G_2.jpg' height='90'>","null","Animation1","",""
"","","","","","html-keyboard-response","57","602559","0.0-51.0","46","1","2025-02-02 05:12:52","bc01a2b6f61d06f6604adb8657495020","76.142.12.90","Mozilla/5.0 (Windows NT 10.0; Win64; x64) AppleWebKit/537.36 (KHTML, like Gecko) Chrome/131.0.0.0 Safari/537.36","WebKit","Chrome","131.0.0.0","Windows","10.0","https://app.prolific.com/","en-US,en;q=0.9","6444b1e677ebe8b4e2c23abd","679edb085803f58d6bbd31ca","679efec6cb2971aebd9c6565","","null","<img  src='G_4.jpg' height='90'> <img id='selected'  src='G_8.jpg' height='90'> <img src='G_3.jpg' height='90'> <img src='G_1.jpg' height='90'> <img src='G_5.jpg' height='90'> <img src='G_7.jpg' height='90'> <img src='G_6.jpg' height='90'> <img src='G_2.jpg' height='90'>","null","Animation1","",""
"","","","","","html-keyboard-response","58","603061","0.0-52.0","46","1","2025-02-02 05:12:52","bc01a2b6f61d06f6604adb8657495020","76.142.12.90","Mozilla/5.0 (Windows NT 10.0; Win64; x64) AppleWebKit/537.36 (KHTML, like Gecko) Chrome/131.0.0.0 Safari/537.36","WebKit","Chrome","131.0.0.0","Windows","10.0","https://app.prolific.com/","en-US,en;q=0.9","6444b1e677ebe8b4e2c23abd","679edb085803f58d6bbd31ca","679efec6cb2971aebd9c6565","","null","<img  src='G_4.jpg' height='90'> <img id='selected'  src='G_8.jpg' height='90'> <img id='selected' src='G_3.jpg' height='90'> <img src='G_1.jpg' height='90'> <img src='G_5.jpg' height='90'> <img src='G_7.jpg' height='90'> <img src='G_6.jpg' height='90'> <img src='G_2.jpg' height='90'>","null","Animation1","",""
"","","","","","html-keyboard-response","59","603569","0.0-53.0","46","1","2025-02-02 05:12:52","bc01a2b6f61d06f6604adb8657495020","76.142.12.90","Mozilla/5.0 (Windows NT 10.0; Win64; x64) AppleWebKit/537.36 (KHTML, like Gecko) Chrome/131.0.0.0 Safari/537.36","WebKit","Chrome","131.0.0.0","Windows","10.0","https://app.prolific.com/","en-US,en;q=0.9","6444b1e677ebe8b4e2c23abd","679edb085803f58d6bbd31ca","679efec6cb2971aebd9c6565","","null","<img  src='G_4.jpg' height='90'> <img id='swapped' src='G_3.jpg' height='90'> <img id='swapped'  src='G_8.jpg' height='90'> <img src='G_1.jpg' height='90'> <img src='G_5.jpg' height='90'> <img src='G_7.jpg' height='90'> <img src='G_6.jpg' height='90'> <img src='G_2.jpg' height='90'>","null","Animation1","",""
"","","","","","html-keyboard-response","60","603878","0.0-54.0","46","1","2025-02-02 05:12:52","bc01a2b6f61d06f6604adb8657495020","76.142.12.90","Mozilla/5.0 (Windows NT 10.0; Win64; x64) AppleWebKit/537.36 (KHTML, like Gecko) Chrome/131.0.0.0 Safari/537.36","WebKit","Chrome","131.0.0.0","Windows","10.0","https://app.prolific.com/","en-US,en;q=0.9","6444b1e677ebe8b4e2c23abd","679edb085803f58d6bbd31ca","679efec6cb2971aebd9c6565","","null","<img  src='G_4.jpg' height='90'> <img  src='G_3.jpg' height='90'> <img   src='G_8.jpg' height='90'> <img src='G_1.jpg' height='90'> <img src='G_5.jpg' height='90'> <img src='G_7.jpg' height='90'> <img src='G_6.jpg' height='90'> <img src='G_2.jpg' height='90'>","null","Animation1","",""
"","","","","","html-keyboard-response","61","604387","0.0-55.0","46","1","2025-02-02 05:12:52","bc01a2b6f61d06f6604adb8657495020","76.142.12.90","Mozilla/5.0 (Windows NT 10.0; Win64; x64) AppleWebKit/537.36 (KHTML, like Gecko) Chrome/131.0.0.0 Safari/537.36","WebKit","Chrome","131.0.0.0","Windows","10.0","https://app.prolific.com/","en-US,en;q=0.9","6444b1e677ebe8b4e2c23abd","679edb085803f58d6bbd31ca","679efec6cb2971aebd9c6565","","null","<img id='selected'  src='G_4.jpg' height='90'> <img  src='G_3.jpg' height='90'> <img   src='G_8.jpg' height='90'> <img src='G_1.jpg' height='90'> <img src='G_5.jpg' height='90'> <img src='G_7.jpg' height='90'> <img src='G_6.jpg' height='90'> <img src='G_2.jpg' height='90'>","null","Animation1","",""
"","","","","","html-keyboard-response","62","604896","0.0-56.0","46","1","2025-02-02 05:12:52","bc01a2b6f61d06f6604adb8657495020","76.142.12.90","Mozilla/5.0 (Windows NT 10.0; Win64; x64) AppleWebKit/537.36 (KHTML, like Gecko) Chrome/131.0.0.0 Safari/537.36","WebKit","Chrome","131.0.0.0","Windows","10.0","https://app.prolific.com/","en-US,en;q=0.9","6444b1e677ebe8b4e2c23abd","679edb085803f58d6bbd31ca","679efec6cb2971aebd9c6565","","null","<img id='selected'  src='G_4.jpg' height='90'> <img id='selected'  src='G_3.jpg' height='90'> <img   src='G_8.jpg' height='90'> <img src='G_1.jpg' height='90'> <img src='G_5.jpg' height='90'> <img src='G_7.jpg' height='90'> <img src='G_6.jpg' height='90'> <img src='G_2.jpg' height='90'>","null","Animation1","",""
"","","","","","html-keyboard-response","63","605405","0.0-57.0","46","1","2025-02-02 05:12:52","bc01a2b6f61d06f6604adb8657495020","76.142.12.90","Mozilla/5.0 (Windows NT 10.0; Win64; x64) AppleWebKit/537.36 (KHTML, like Gecko) Chrome/131.0.0.0 Safari/537.36","WebKit","Chrome","131.0.0.0","Windows","10.0","https://app.prolific.com/","en-US,en;q=0.9","6444b1e677ebe8b4e2c23abd","679edb085803f58d6bbd31ca","679efec6cb2971aebd9c6565","","null","<img id='swapped'  src='G_3.jpg' height='90'> <img id='swapped'  src='G_4.jpg' height='90'> <img   src='G_8.jpg' height='90'> <img src='G_1.jpg' height='90'> <img src='G_5.jpg' height='90'> <img src='G_7.jpg' height='90'> <img src='G_6.jpg' height='90'> <img src='G_2.jpg' height='90'>","null","Animation1","",""
"","","","","","html-keyboard-response","64","605715","0.0-58.0","46","1","2025-02-02 05:12:52","bc01a2b6f61d06f6604adb8657495020","76.142.12.90","Mozilla/5.0 (Windows NT 10.0; Win64; x64) AppleWebKit/537.36 (KHTML, like Gecko) Chrome/131.0.0.0 Safari/537.36","WebKit","Chrome","131.0.0.0","Windows","10.0","https://app.prolific.com/","en-US,en;q=0.9","6444b1e677ebe8b4e2c23abd","679edb085803f58d6bbd31ca","679efec6cb2971aebd9c6565","","null","<img   src='G_3.jpg' height='90'> <img   src='G_4.jpg' height='90'> <img   src='G_8.jpg' height='90'> <img src='G_1.jpg' height='90'> <img src='G_5.jpg' height='90'> <img src='G_7.jpg' height='90'> <img src='G_6.jpg' height='90'> <img src='G_2.jpg' height='90'>","null","Animation1","",""
"","","","","","html-keyboard-response","65","606224","0.0-59.0","46","1","2025-02-02 05:12:52","bc01a2b6f61d06f6604adb8657495020","76.142.12.90","Mozilla/5.0 (Windows NT 10.0; Win64; x64) AppleWebKit/537.36 (KHTML, like Gecko) Chrome/131.0.0.0 Safari/537.36","WebKit","Chrome","131.0.0.0","Windows","10.0","https://app.prolific.com/","en-US,en;q=0.9","6444b1e677ebe8b4e2c23abd","679edb085803f58d6bbd31ca","679efec6cb2971aebd9c6565","","null","<img   src='G_3.jpg' height='90'> <img   src='G_4.jpg' height='90'> <img id='selected'   src='G_8.jpg' height='90'> <img src='G_1.jpg' height='90'> <img src='G_5.jpg' height='90'> <img src='G_7.jpg' height='90'> <img src='G_6.jpg' height='90'> <img src='G_2.jpg' height='90'>","null","Animation1","",""
"","","","","","html-keyboard-response","66","606734","0.0-60.0","46","1","2025-02-02 05:12:52","bc01a2b6f61d06f6604adb8657495020","76.142.12.90","Mozilla/5.0 (Windows NT 10.0; Win64; x64) AppleWebKit/537.36 (KHTML, like Gecko) Chrome/131.0.0.0 Safari/537.36","WebKit","Chrome","131.0.0.0","Windows","10.0","https://app.prolific.com/","en-US,en;q=0.9","6444b1e677ebe8b4e2c23abd","679edb085803f58d6bbd31ca","679efec6cb2971aebd9c6565","","null","<img   src='G_3.jpg' height='90'> <img   src='G_4.jpg' height='90'> <img id='selected'   src='G_8.jpg' height='90'> <img id='selected' src='G_1.jpg' height='90'> <img src='G_5.jpg' height='90'> <img src='G_7.jpg' height='90'> <img src='G_6.jpg' height='90'> <img src='G_2.jpg' height='90'>","null","Animation1","",""
"","","","","","html-keyboard-response","67","607249","0.0-61.0","46","1","2025-02-02 05:12:52","bc01a2b6f61d06f6604adb8657495020","76.142.12.90","Mozilla/5.0 (Windows NT 10.0; Win64; x64) AppleWebKit/537.36 (KHTML, like Gecko) Chrome/131.0.0.0 Safari/537.36","WebKit","Chrome","131.0.0.0","Windows","10.0","https://app.prolific.com/","en-US,en;q=0.9","6444b1e677ebe8b4e2c23abd","679edb085803f58d6bbd31ca","679efec6cb2971aebd9c6565","","null","<img   src='G_3.jpg' height='90'> <img   src='G_4.jpg' height='90'> <img id='swapped' src='G_1.jpg' height='90'> <img id='swapped'   src='G_8.jpg' height='90'> <img src='G_5.jpg' height='90'> <img src='G_7.jpg' height='90'> <img src='G_6.jpg' height='90'> <img src='G_2.jpg' height='90'>","null","Animation1","",""
"","","","","","html-keyboard-response","68","607560","0.0-62.0","46","1","2025-02-02 05:12:52","bc01a2b6f61d06f6604adb8657495020","76.142.12.90","Mozilla/5.0 (Windows NT 10.0; Win64; x64) AppleWebKit/537.36 (KHTML, like Gecko) Chrome/131.0.0.0 Safari/537.36","WebKit","Chrome","131.0.0.0","Windows","10.0","https://app.prolific.com/","en-US,en;q=0.9","6444b1e677ebe8b4e2c23abd","679edb085803f58d6bbd31ca","679efec6cb2971aebd9c6565","","null","<img   src='G_3.jpg' height='90'> <img   src='G_4.jpg' height='90'> <img  src='G_1.jpg' height='90'> <img    src='G_8.jpg' height='90'> <img src='G_5.jpg' height='90'> <img src='G_7.jpg' height='90'> <img src='G_6.jpg' height='90'> <img src='G_2.jpg' height='90'>","null","Animation1","",""
"","","","","","html-keyboard-response","69","608067","0.0-63.0","46","1","2025-02-02 05:12:52","bc01a2b6f61d06f6604adb8657495020","76.142.12.90","Mozilla/5.0 (Windows NT 10.0; Win64; x64) AppleWebKit/537.36 (KHTML, like Gecko) Chrome/131.0.0.0 Safari/537.36","WebKit","Chrome","131.0.0.0","Windows","10.0","https://app.prolific.com/","en-US,en;q=0.9","6444b1e677ebe8b4e2c23abd","679edb085803f58d6bbd31ca","679efec6cb2971aebd9c6565","","null","<img   src='G_3.jpg' height='90'> <img id='selected'   src='G_4.jpg' height='90'> <img  src='G_1.jpg' height='90'> <img    src='G_8.jpg' height='90'> <img src='G_5.jpg' height='90'> <img src='G_7.jpg' height='90'> <img src='G_6.jpg' height='90'> <img src='G_2.jpg' height='90'>","null","Animation1","",""
"","","","","","html-keyboard-response","70","608578","0.0-64.0","46","1","2025-02-02 05:12:52","bc01a2b6f61d06f6604adb8657495020","76.142.12.90","Mozilla/5.0 (Windows NT 10.0; Win64; x64) AppleWebKit/537.36 (KHTML, like Gecko) Chrome/131.0.0.0 Safari/537.36","WebKit","Chrome","131.0.0.0","Windows","10.0","https://app.prolific.com/","en-US,en;q=0.9","6444b1e677ebe8b4e2c23abd","679edb085803f58d6bbd31ca","679efec6cb2971aebd9c6565","","null","<img   src='G_3.jpg' height='90'> <img id='selected'   src='G_4.jpg' height='90'> <img id='selected'  src='G_1.jpg' height='90'> <img    src='G_8.jpg' height='90'> <img src='G_5.jpg' height='90'> <img src='G_7.jpg' height='90'> <img src='G_6.jpg' height='90'> <img src='G_2.jpg' height='90'>","null","Animation1","",""
"","","","","","html-keyboard-response","71","609090","0.0-65.0","46","1","2025-02-02 05:12:52","bc01a2b6f61d06f6604adb8657495020","76.142.12.90","Mozilla/5.0 (Windows NT 10.0; Win64; x64) AppleWebKit/537.36 (KHTML, like Gecko) Chrome/131.0.0.0 Safari/537.36","WebKit","Chrome","131.0.0.0","Windows","10.0","https://app.prolific.com/","en-US,en;q=0.9","6444b1e677ebe8b4e2c23abd","679edb085803f58d6bbd31ca","679efec6cb2971aebd9c6565","","null","<img   src='G_3.jpg' height='90'> <img id='swapped'  src='G_1.jpg' height='90'> <img id='swapped'   src='G_4.jpg' height='90'> <img    src='G_8.jpg' height='90'> <img src='G_5.jpg' height='90'> <img src='G_7.jpg' height='90'> <img src='G_6.jpg' height='90'> <img src='G_2.jpg' height='90'>","null","Animation1","",""
"","","","","","html-keyboard-response","72","609400","0.0-66.0","46","1","2025-02-02 05:12:52","bc01a2b6f61d06f6604adb8657495020","76.142.12.90","Mozilla/5.0 (Windows NT 10.0; Win64; x64) AppleWebKit/537.36 (KHTML, like Gecko) Chrome/131.0.0.0 Safari/537.36","WebKit","Chrome","131.0.0.0","Windows","10.0","https://app.prolific.com/","en-US,en;q=0.9","6444b1e677ebe8b4e2c23abd","679edb085803f58d6bbd31ca","679efec6cb2971aebd9c6565","","null","<img   src='G_3.jpg' height='90'> <img   src='G_1.jpg' height='90'> <img    src='G_4.jpg' height='90'> <img    src='G_8.jpg' height='90'> <img src='G_5.jpg' height='90'> <img src='G_7.jpg' height='90'> <img src='G_6.jpg' height='90'> <img src='G_2.jpg' height='90'>","null","Animation1","",""
"","","","","","html-keyboard-response","73","609909","0.0-67.0","46","1","2025-02-02 05:12:52","bc01a2b6f61d06f6604adb8657495020","76.142.12.90","Mozilla/5.0 (Windows NT 10.0; Win64; x64) AppleWebKit/537.36 (KHTML, like Gecko) Chrome/131.0.0.0 Safari/537.36","WebKit","Chrome","131.0.0.0","Windows","10.0","https://app.prolific.com/","en-US,en;q=0.9","6444b1e677ebe8b4e2c23abd","679edb085803f58d6bbd31ca","679efec6cb2971aebd9c6565","","null","<img id='selected'   src='G_3.jpg' height='90'> <img   src='G_1.jpg' height='90'> <img    src='G_4.jpg' height='90'> <img    src='G_8.jpg' height='90'> <img src='G_5.jpg' height='90'> <img src='G_7.jpg' height='90'> <img src='G_6.jpg' height='90'> <img src='G_2.jpg' height='90'>","null","Animation1","",""
"","","","","","html-keyboard-response","74","610417","0.0-68.0","46","1","2025-02-02 05:12:52","bc01a2b6f61d06f6604adb8657495020","76.142.12.90","Mozilla/5.0 (Windows NT 10.0; Win64; x64) AppleWebKit/537.36 (KHTML, like Gecko) Chrome/131.0.0.0 Safari/537.36","WebKit","Chrome","131.0.0.0","Windows","10.0","https://app.prolific.com/","en-US,en;q=0.9","6444b1e677ebe8b4e2c23abd","679edb085803f58d6bbd31ca","679efec6cb2971aebd9c6565","","null","<img id='selected'   src='G_3.jpg' height='90'> <img id='selected'   src='G_1.jpg' height='90'> <img    src='G_4.jpg' height='90'> <img    src='G_8.jpg' height='90'> <img src='G_5.jpg' height='90'> <img src='G_7.jpg' height='90'> <img src='G_6.jpg' height='90'> <img src='G_2.jpg' height='90'>","null","Animation1","",""
"","","","","","html-keyboard-response","75","610924","0.0-69.0","46","1","2025-02-02 05:12:52","bc01a2b6f61d06f6604adb8657495020","76.142.12.90","Mozilla/5.0 (Windows NT 10.0; Win64; x64) AppleWebKit/537.36 (KHTML, like Gecko) Chrome/131.0.0.0 Safari/537.36","WebKit","Chrome","131.0.0.0","Windows","10.0","https://app.prolific.com/","en-US,en;q=0.9","6444b1e677ebe8b4e2c23abd","679edb085803f58d6bbd31ca","679efec6cb2971aebd9c6565","","null","<img id='swapped'   src='G_1.jpg' height='90'> <img id='swapped'   src='G_3.jpg' height='90'> <img    src='G_4.jpg' height='90'> <img    src='G_8.jpg' height='90'> <img src='G_5.jpg' height='90'> <img src='G_7.jpg' height='90'> <img src='G_6.jpg' height='90'> <img src='G_2.jpg' height='90'>","null","Animation1","",""
"","","","","","html-keyboard-response","76","611230","0.0-70.0","46","1","2025-02-02 05:12:52","bc01a2b6f61d06f6604adb8657495020","76.142.12.90","Mozilla/5.0 (Windows NT 10.0; Win64; x64) AppleWebKit/537.36 (KHTML, like Gecko) Chrome/131.0.0.0 Safari/537.36","WebKit","Chrome","131.0.0.0","Windows","10.0","https://app.prolific.com/","en-US,en;q=0.9","6444b1e677ebe8b4e2c23abd","679edb085803f58d6bbd31ca","679efec6cb2971aebd9c6565","","null","<img    src='G_1.jpg' height='90'> <img    src='G_3.jpg' height='90'> <img    src='G_4.jpg' height='90'> <img    src='G_8.jpg' height='90'> <img src='G_5.jpg' height='90'> <img src='G_7.jpg' height='90'> <img src='G_6.jpg' height='90'> <img src='G_2.jpg' height='90'>","null","Animation1","",""
"","","","","","html-keyboard-response","77","611741","0.0-71.0","46","1","2025-02-02 05:12:52","bc01a2b6f61d06f6604adb8657495020","76.142.12.90","Mozilla/5.0 (Windows NT 10.0; Win64; x64) AppleWebKit/537.36 (KHTML, like Gecko) Chrome/131.0.0.0 Safari/537.36","WebKit","Chrome","131.0.0.0","Windows","10.0","https://app.prolific.com/","en-US,en;q=0.9","6444b1e677ebe8b4e2c23abd","679edb085803f58d6bbd31ca","679efec6cb2971aebd9c6565","","null","<img    src='G_1.jpg' height='90'> <img    src='G_3.jpg' height='90'> <img    src='G_4.jpg' height='90'> <img id='selected'    src='G_8.jpg' height='90'> <img src='G_5.jpg' height='90'> <img src='G_7.jpg' height='90'> <img src='G_6.jpg' height='90'> <img src='G_2.jpg' height='90'>","null","Animation1","",""
"","","","","","html-keyboard-response","78","612251","0.0-72.0","46","1","2025-02-02 05:12:52","bc01a2b6f61d06f6604adb8657495020","76.142.12.90","Mozilla/5.0 (Windows NT 10.0; Win64; x64) AppleWebKit/537.36 (KHTML, like Gecko) Chrome/131.0.0.0 Safari/537.36","WebKit","Chrome","131.0.0.0","Windows","10.0","https://app.prolific.com/","en-US,en;q=0.9","6444b1e677ebe8b4e2c23abd","679edb085803f58d6bbd31ca","679efec6cb2971aebd9c6565","","null","<img    src='G_1.jpg' height='90'> <img    src='G_3.jpg' height='90'> <img    src='G_4.jpg' height='90'> <img id='selected'    src='G_8.jpg' height='90'> <img id='selected' src='G_5.jpg' height='90'> <img src='G_7.jpg' height='90'> <img src='G_6.jpg' height='90'> <img src='G_2.jpg' height='90'>","null","Animation1","",""
"","","","","","html-keyboard-response","79","612761","0.0-73.0","46","1","2025-02-02 05:12:52","bc01a2b6f61d06f6604adb8657495020","76.142.12.90","Mozilla/5.0 (Windows NT 10.0; Win64; x64) AppleWebKit/537.36 (KHTML, like Gecko) Chrome/131.0.0.0 Safari/537.36","WebKit","Chrome","131.0.0.0","Windows","10.0","https://app.prolific.com/","en-US,en;q=0.9","6444b1e677ebe8b4e2c23abd","679edb085803f58d6bbd31ca","679efec6cb2971aebd9c6565","","null","<img    src='G_1.jpg' height='90'> <img    src='G_3.jpg' height='90'> <img    src='G_4.jpg' height='90'> <img id='swapped' src='G_5.jpg' height='90'> <img id='swapped'    src='G_8.jpg' height='90'> <img src='G_7.jpg' height='90'> <img src='G_6.jpg' height='90'> <img src='G_2.jpg' height='90'>","null","Animation1","",""
"","","","","","html-keyboard-response","80","613069","0.0-74.0","46","1","2025-02-02 05:12:52","bc01a2b6f61d06f6604adb8657495020","76.142.12.90","Mozilla/5.0 (Windows NT 10.0; Win64; x64) AppleWebKit/537.36 (KHTML, like Gecko) Chrome/131.0.0.0 Safari/537.36","WebKit","Chrome","131.0.0.0","Windows","10.0","https://app.prolific.com/","en-US,en;q=0.9","6444b1e677ebe8b4e2c23abd","679edb085803f58d6bbd31ca","679efec6cb2971aebd9c6565","","null","<img    src='G_1.jpg' height='90'> <img    src='G_3.jpg' height='90'> <img    src='G_4.jpg' height='90'> <img  src='G_5.jpg' height='90'> <img     src='G_8.jpg' height='90'> <img src='G_7.jpg' height='90'> <img src='G_6.jpg' height='90'> <img src='G_2.jpg' height='90'>","null","Animation1","",""
"","","","","","html-keyboard-response","81","613579","0.0-75.0","46","1","2025-02-02 05:12:52","bc01a2b6f61d06f6604adb8657495020","76.142.12.90","Mozilla/5.0 (Windows NT 10.0; Win64; x64) AppleWebKit/537.36 (KHTML, like Gecko) Chrome/131.0.0.0 Safari/537.36","WebKit","Chrome","131.0.0.0","Windows","10.0","https://app.prolific.com/","en-US,en;q=0.9","6444b1e677ebe8b4e2c23abd","679edb085803f58d6bbd31ca","679efec6cb2971aebd9c6565","","null","<img    src='G_1.jpg' height='90'> <img    src='G_3.jpg' height='90'> <img id='selected'    src='G_4.jpg' height='90'> <img  src='G_5.jpg' height='90'> <img     src='G_8.jpg' height='90'> <img src='G_7.jpg' height='90'> <img src='G_6.jpg' height='90'> <img src='G_2.jpg' height='90'>","null","Animation1","",""
"","","","","","html-keyboard-response","82","614088","0.0-76.0","46","1","2025-02-02 05:12:52","bc01a2b6f61d06f6604adb8657495020","76.142.12.90","Mozilla/5.0 (Windows NT 10.0; Win64; x64) AppleWebKit/537.36 (KHTML, like Gecko) Chrome/131.0.0.0 Safari/537.36","WebKit","Chrome","131.0.0.0","Windows","10.0","https://app.prolific.com/","en-US,en;q=0.9","6444b1e677ebe8b4e2c23abd","679edb085803f58d6bbd31ca","679efec6cb2971aebd9c6565","","null","<img    src='G_1.jpg' height='90'> <img    src='G_3.jpg' height='90'> <img id='selected'    src='G_4.jpg' height='90'> <img id='selected'  src='G_5.jpg' height='90'> <img     src='G_8.jpg' height='90'> <img src='G_7.jpg' height='90'> <img src='G_6.jpg' height='90'> <img src='G_2.jpg' height='90'>","null","Animation1","",""
"","","","","","html-keyboard-response","83","614596","0.0-77.0","46","1","2025-02-02 05:12:52","bc01a2b6f61d06f6604adb8657495020","76.142.12.90","Mozilla/5.0 (Windows NT 10.0; Win64; x64) AppleWebKit/537.36 (KHTML, like Gecko) Chrome/131.0.0.0 Safari/537.36","WebKit","Chrome","131.0.0.0","Windows","10.0","https://app.prolific.com/","en-US,en;q=0.9","6444b1e677ebe8b4e2c23abd","679edb085803f58d6bbd31ca","679efec6cb2971aebd9c6565","","null","<img    src='G_1.jpg' height='90'> <img    src='G_3.jpg' height='90'> <img id='swapped'  src='G_5.jpg' height='90'> <img id='swapped'    src='G_4.jpg' height='90'> <img     src='G_8.jpg' height='90'> <img src='G_7.jpg' height='90'> <img src='G_6.jpg' height='90'> <img src='G_2.jpg' height='90'>","null","Animation1","",""
"","","","","","html-keyboard-response","84","614903","0.0-78.0","46","1","2025-02-02 05:12:52","bc01a2b6f61d06f6604adb8657495020","76.142.12.90","Mozilla/5.0 (Windows NT 10.0; Win64; x64) AppleWebKit/537.36 (KHTML, like Gecko) Chrome/131.0.0.0 Safari/537.36","WebKit","Chrome","131.0.0.0","Windows","10.0","https://app.prolific.com/","en-US,en;q=0.9","6444b1e677ebe8b4e2c23abd","679edb085803f58d6bbd31ca","679efec6cb2971aebd9c6565","","null","<img    src='G_1.jpg' height='90'> <img    src='G_3.jpg' height='90'> <img   src='G_5.jpg' height='90'> <img     src='G_4.jpg' height='90'> <img     src='G_8.jpg' height='90'> <img src='G_7.jpg' height='90'> <img src='G_6.jpg' height='90'> <img src='G_2.jpg' height='90'>","null","Animation1","",""
"","","","","","html-keyboard-response","85","615414","0.0-79.0","46","1","2025-02-02 05:12:52","bc01a2b6f61d06f6604adb8657495020","76.142.12.90","Mozilla/5.0 (Windows NT 10.0; Win64; x64) AppleWebKit/537.36 (KHTML, like Gecko) Chrome/131.0.0.0 Safari/537.36","WebKit","Chrome","131.0.0.0","Windows","10.0","https://app.prolific.com/","en-US,en;q=0.9","6444b1e677ebe8b4e2c23abd","679edb085803f58d6bbd31ca","679efec6cb2971aebd9c6565","","null","<img    src='G_1.jpg' height='90'> <img id='selected'    src='G_3.jpg' height='90'> <img   src='G_5.jpg' height='90'> <img     src='G_4.jpg' height='90'> <img     src='G_8.jpg' height='90'> <img src='G_7.jpg' height='90'> <img src='G_6.jpg' height='90'> <img src='G_2.jpg' height='90'>","null","Animation1","",""
"","","","","","html-keyboard-response","86","615924","0.0-80.0","46","1","2025-02-02 05:12:52","bc01a2b6f61d06f6604adb8657495020","76.142.12.90","Mozilla/5.0 (Windows NT 10.0; Win64; x64) AppleWebKit/537.36 (KHTML, like Gecko) Chrome/131.0.0.0 Safari/537.36","WebKit","Chrome","131.0.0.0","Windows","10.0","https://app.prolific.com/","en-US,en;q=0.9","6444b1e677ebe8b4e2c23abd","679edb085803f58d6bbd31ca","679efec6cb2971aebd9c6565","","null","<img    src='G_1.jpg' height='90'> <img id='selected'    src='G_3.jpg' height='90'> <img id='selected'   src='G_5.jpg' height='90'> <img     src='G_4.jpg' height='90'> <img     src='G_8.jpg' height='90'> <img src='G_7.jpg' height='90'> <img src='G_6.jpg' height='90'> <img src='G_2.jpg' height='90'>","null","Animation1","",""
"","","","","","html-keyboard-response","87","616432","0.0-81.0","46","1","2025-02-02 05:12:52","bc01a2b6f61d06f6604adb8657495020","76.142.12.90","Mozilla/5.0 (Windows NT 10.0; Win64; x64) AppleWebKit/537.36 (KHTML, like Gecko) Chrome/131.0.0.0 Safari/537.36","WebKit","Chrome","131.0.0.0","Windows","10.0","https://app.prolific.com/","en-US,en;q=0.9","6444b1e677ebe8b4e2c23abd","679edb085803f58d6bbd31ca","679efec6cb2971aebd9c6565","","null","<img    src='G_1.jpg' height='90'> <img id='swapped'   src='G_5.jpg' height='90'> <img id='swapped'    src='G_3.jpg' height='90'> <img     src='G_4.jpg' height='90'> <img     src='G_8.jpg' height='90'> <img src='G_7.jpg' height='90'> <img src='G_6.jpg' height='90'> <img src='G_2.jpg' height='90'>","null","Animation1","",""
"","","","","","html-keyboard-response","88","616741","0.0-82.0","46","1","2025-02-02 05:12:52","bc01a2b6f61d06f6604adb8657495020","76.142.12.90","Mozilla/5.0 (Windows NT 10.0; Win64; x64) AppleWebKit/537.36 (KHTML, like Gecko) Chrome/131.0.0.0 Safari/537.36","WebKit","Chrome","131.0.0.0","Windows","10.0","https://app.prolific.com/","en-US,en;q=0.9","6444b1e677ebe8b4e2c23abd","679edb085803f58d6bbd31ca","679efec6cb2971aebd9c6565","","null","<img    src='G_1.jpg' height='90'> <img    src='G_5.jpg' height='90'> <img     src='G_3.jpg' height='90'> <img     src='G_4.jpg' height='90'> <img     src='G_8.jpg' height='90'> <img src='G_7.jpg' height='90'> <img src='G_6.jpg' height='90'> <img src='G_2.jpg' height='90'>","null","Animation1","",""
"","","","","","html-keyboard-response","89","617252","0.0-83.0","46","1","2025-02-02 05:12:52","bc01a2b6f61d06f6604adb8657495020","76.142.12.90","Mozilla/5.0 (Windows NT 10.0; Win64; x64) AppleWebKit/537.36 (KHTML, like Gecko) Chrome/131.0.0.0 Safari/537.36","WebKit","Chrome","131.0.0.0","Windows","10.0","https://app.prolific.com/","en-US,en;q=0.9","6444b1e677ebe8b4e2c23abd","679edb085803f58d6bbd31ca","679efec6cb2971aebd9c6565","","null","<img id='selected'    src='G_1.jpg' height='90'> <img    src='G_5.jpg' height='90'> <img     src='G_3.jpg' height='90'> <img     src='G_4.jpg' height='90'> <img     src='G_8.jpg' height='90'> <img src='G_7.jpg' height='90'> <img src='G_6.jpg' height='90'> <img src='G_2.jpg' height='90'>","null","Animation1","",""
"","","","","","html-keyboard-response","90","617762","0.0-84.0","46","1","2025-02-02 05:12:52","bc01a2b6f61d06f6604adb8657495020","76.142.12.90","Mozilla/5.0 (Windows NT 10.0; Win64; x64) AppleWebKit/537.36 (KHTML, like Gecko) Chrome/131.0.0.0 Safari/537.36","WebKit","Chrome","131.0.0.0","Windows","10.0","https://app.prolific.com/","en-US,en;q=0.9","6444b1e677ebe8b4e2c23abd","679edb085803f58d6bbd31ca","679efec6cb2971aebd9c6565","","null","<img id='selected'    src='G_1.jpg' height='90'> <img id='selected'    src='G_5.jpg' height='90'> <img     src='G_3.jpg' height='90'> <img     src='G_4.jpg' height='90'> <img     src='G_8.jpg' height='90'> <img src='G_7.jpg' height='90'> <img src='G_6.jpg' height='90'> <img src='G_2.jpg' height='90'>","null","Animation1","",""
"","","","","","html-keyboard-response","91","618269","0.0-85.0","46","1","2025-02-02 05:12:52","bc01a2b6f61d06f6604adb8657495020","76.142.12.90","Mozilla/5.0 (Windows NT 10.0; Win64; x64) AppleWebKit/537.36 (KHTML, like Gecko) Chrome/131.0.0.0 Safari/537.36","WebKit","Chrome","131.0.0.0","Windows","10.0","https://app.prolific.com/","en-US,en;q=0.9","6444b1e677ebe8b4e2c23abd","679edb085803f58d6bbd31ca","679efec6cb2971aebd9c6565","","null","<img id='selected'    src='G_1.jpg' height='90'> <img id='selected'    src='G_5.jpg' height='90'> <img     src='G_3.jpg' height='90'> <img     src='G_4.jpg' height='90'> <img     src='G_8.jpg' height='90'> <img src='G_7.jpg' height='90'> <img src='G_6.jpg' height='90'> <img src='G_2.jpg' height='90'>","null","Animation1","",""
"","","","","","html-keyboard-response","92","618577","0.0-86.0","46","1","2025-02-02 05:12:52","bc01a2b6f61d06f6604adb8657495020","76.142.12.90","Mozilla/5.0 (Windows NT 10.0; Win64; x64) AppleWebKit/537.36 (KHTML, like Gecko) Chrome/131.0.0.0 Safari/537.36","WebKit","Chrome","131.0.0.0","Windows","10.0","https://app.prolific.com/","en-US,en;q=0.9","6444b1e677ebe8b4e2c23abd","679edb085803f58d6bbd31ca","679efec6cb2971aebd9c6565","","null","<img     src='G_1.jpg' height='90'> <img     src='G_5.jpg' height='90'> <img     src='G_3.jpg' height='90'> <img     src='G_4.jpg' height='90'> <img     src='G_8.jpg' height='90'> <img src='G_7.jpg' height='90'> <img src='G_6.jpg' height='90'> <img src='G_2.jpg' height='90'>","null","Animation1","",""
"","","","","","html-keyboard-response","93","619086","0.0-87.0","46","1","2025-02-02 05:12:52","bc01a2b6f61d06f6604adb8657495020","76.142.12.90","Mozilla/5.0 (Windows NT 10.0; Win64; x64) AppleWebKit/537.36 (KHTML, like Gecko) Chrome/131.0.0.0 Safari/537.36","WebKit","Chrome","131.0.0.0","Windows","10.0","https://app.prolific.com/","en-US,en;q=0.9","6444b1e677ebe8b4e2c23abd","679edb085803f58d6bbd31ca","679efec6cb2971aebd9c6565","","null","<img     src='G_1.jpg' height='90'> <img     src='G_5.jpg' height='90'> <img     src='G_3.jpg' height='90'> <img     src='G_4.jpg' height='90'> <img id='selected'     src='G_8.jpg' height='90'> <img src='G_7.jpg' height='90'> <img src='G_6.jpg' height='90'> <img src='G_2.jpg' height='90'>","null","Animation1","",""
"","","","","","html-keyboard-response","94","619598","0.0-88.0","46","1","2025-02-02 05:12:52","bc01a2b6f61d06f6604adb8657495020","76.142.12.90","Mozilla/5.0 (Windows NT 10.0; Win64; x64) AppleWebKit/537.36 (KHTML, like Gecko) Chrome/131.0.0.0 Safari/537.36","WebKit","Chrome","131.0.0.0","Windows","10.0","https://app.prolific.com/","en-US,en;q=0.9","6444b1e677ebe8b4e2c23abd","679edb085803f58d6bbd31ca","679efec6cb2971aebd9c6565","","null","<img     src='G_1.jpg' height='90'> <img     src='G_5.jpg' height='90'> <img     src='G_3.jpg' height='90'> <img     src='G_4.jpg' height='90'> <img id='selected'     src='G_8.jpg' height='90'> <img id='selected' src='G_7.jpg' height='90'> <img src='G_6.jpg' height='90'> <img src='G_2.jpg' height='90'>","null","Animation1","",""
"","","","","","html-keyboard-response","95","620108","0.0-89.0","46","1","2025-02-02 05:12:52","bc01a2b6f61d06f6604adb8657495020","76.142.12.90","Mozilla/5.0 (Windows NT 10.0; Win64; x64) AppleWebKit/537.36 (KHTML, like Gecko) Chrome/131.0.0.0 Safari/537.36","WebKit","Chrome","131.0.0.0","Windows","10.0","https://app.prolific.com/","en-US,en;q=0.9","6444b1e677ebe8b4e2c23abd","679edb085803f58d6bbd31ca","679efec6cb2971aebd9c6565","","null","<img     src='G_1.jpg' height='90'> <img     src='G_5.jpg' height='90'> <img     src='G_3.jpg' height='90'> <img     src='G_4.jpg' height='90'> <img id='swapped' src='G_7.jpg' height='90'> <img id='swapped'     src='G_8.jpg' height='90'> <img src='G_6.jpg' height='90'> <img src='G_2.jpg' height='90'>","null","Animation1","",""
"","","","","","html-keyboard-response","96","620419","0.0-90.0","46","1","2025-02-02 05:12:52","bc01a2b6f61d06f6604adb8657495020","76.142.12.90","Mozilla/5.0 (Windows NT 10.0; Win64; x64) AppleWebKit/537.36 (KHTML, like Gecko) Chrome/131.0.0.0 Safari/537.36","WebKit","Chrome","131.0.0.0","Windows","10.0","https://app.prolific.com/","en-US,en;q=0.9","6444b1e677ebe8b4e2c23abd","679edb085803f58d6bbd31ca","679efec6cb2971aebd9c6565","","null","<img     src='G_1.jpg' height='90'> <img     src='G_5.jpg' height='90'> <img     src='G_3.jpg' height='90'> <img     src='G_4.jpg' height='90'> <img  src='G_7.jpg' height='90'> <img      src='G_8.jpg' height='90'> <img src='G_6.jpg' height='90'> <img src='G_2.jpg' height='90'>","null","Animation1","",""
"","","","","","html-keyboard-response","97","620926","0.0-91.0","46","1","2025-02-02 05:12:52","bc01a2b6f61d06f6604adb8657495020","76.142.12.90","Mozilla/5.0 (Windows NT 10.0; Win64; x64) AppleWebKit/537.36 (KHTML, like Gecko) Chrome/131.0.0.0 Safari/537.36","WebKit","Chrome","131.0.0.0","Windows","10.0","https://app.prolific.com/","en-US,en;q=0.9","6444b1e677ebe8b4e2c23abd","679edb085803f58d6bbd31ca","679efec6cb2971aebd9c6565","","null","<img     src='G_1.jpg' height='90'> <img     src='G_5.jpg' height='90'> <img     src='G_3.jpg' height='90'> <img id='selected'     src='G_4.jpg' height='90'> <img  src='G_7.jpg' height='90'> <img      src='G_8.jpg' height='90'> <img src='G_6.jpg' height='90'> <img src='G_2.jpg' height='90'>","null","Animation1","",""
"","","","","","html-keyboard-response","98","621436","0.0-92.0","46","1","2025-02-02 05:12:52","bc01a2b6f61d06f6604adb8657495020","76.142.12.90","Mozilla/5.0 (Windows NT 10.0; Win64; x64) AppleWebKit/537.36 (KHTML, like Gecko) Chrome/131.0.0.0 Safari/537.36","WebKit","Chrome","131.0.0.0","Windows","10.0","https://app.prolific.com/","en-US,en;q=0.9","6444b1e677ebe8b4e2c23abd","679edb085803f58d6bbd31ca","679efec6cb2971aebd9c6565","","null","<img     src='G_1.jpg' height='90'> <img     src='G_5.jpg' height='90'> <img     src='G_3.jpg' height='90'> <img id='selected'     src='G_4.jpg' height='90'> <img id='selected'  src='G_7.jpg' height='90'> <img      src='G_8.jpg' height='90'> <img src='G_6.jpg' height='90'> <img src='G_2.jpg' height='90'>","null","Animation1","",""
"","","","","","html-keyboard-response","99","621950","0.0-93.0","46","1","2025-02-02 05:12:52","bc01a2b6f61d06f6604adb8657495020","76.142.12.90","Mozilla/5.0 (Windows NT 10.0; Win64; x64) AppleWebKit/537.36 (KHTML, like Gecko) Chrome/131.0.0.0 Safari/537.36","WebKit","Chrome","131.0.0.0","Windows","10.0","https://app.prolific.com/","en-US,en;q=0.9","6444b1e677ebe8b4e2c23abd","679edb085803f58d6bbd31ca","679efec6cb2971aebd9c6565","","null","<img     src='G_1.jpg' height='90'> <img     src='G_5.jpg' height='90'> <img     src='G_3.jpg' height='90'> <img id='selected'     src='G_4.jpg' height='90'> <img id='selected'  src='G_7.jpg' height='90'> <img      src='G_8.jpg' height='90'> <img src='G_6.jpg' height='90'> <img src='G_2.jpg' height='90'>","null","Animation1","",""
"","","","","","html-keyboard-response","100","622259","0.0-94.0","46","1","2025-02-02 05:12:52","bc01a2b6f61d06f6604adb8657495020","76.142.12.90","Mozilla/5.0 (Windows NT 10.0; Win64; x64) AppleWebKit/537.36 (KHTML, like Gecko) Chrome/131.0.0.0 Safari/537.36","WebKit","Chrome","131.0.0.0","Windows","10.0","https://app.prolific.com/","en-US,en;q=0.9","6444b1e677ebe8b4e2c23abd","679edb085803f58d6bbd31ca","679efec6cb2971aebd9c6565","","null","<img     src='G_1.jpg' height='90'> <img     src='G_5.jpg' height='90'> <img     src='G_3.jpg' height='90'> <img      src='G_4.jpg' height='90'> <img   src='G_7.jpg' height='90'> <img      src='G_8.jpg' height='90'> <img src='G_6.jpg' height='90'> <img src='G_2.jpg' height='90'>","null","Animation1","",""
"","","","","","html-keyboard-response","101","622772","0.0-95.0","46","1","2025-02-02 05:12:52","bc01a2b6f61d06f6604adb8657495020","76.142.12.90","Mozilla/5.0 (Windows NT 10.0; Win64; x64) AppleWebKit/537.36 (KHTML, like Gecko) Chrome/131.0.0.0 Safari/537.36","WebKit","Chrome","131.0.0.0","Windows","10.0","https://app.prolific.com/","en-US,en;q=0.9","6444b1e677ebe8b4e2c23abd","679edb085803f58d6bbd31ca","679efec6cb2971aebd9c6565","","null","<img     src='G_1.jpg' height='90'> <img     src='G_5.jpg' height='90'> <img     src='G_3.jpg' height='90'> <img      src='G_4.jpg' height='90'> <img   src='G_7.jpg' height='90'> <img id='selected'      src='G_8.jpg' height='90'> <img src='G_6.jpg' height='90'> <img src='G_2.jpg' height='90'>","null","Animation1","",""
"","","","","","html-keyboard-response","102","623283","0.0-96.0","46","1","2025-02-02 05:12:52","bc01a2b6f61d06f6604adb8657495020","76.142.12.90","Mozilla/5.0 (Windows NT 10.0; Win64; x64) AppleWebKit/537.36 (KHTML, like Gecko) Chrome/131.0.0.0 Safari/537.36","WebKit","Chrome","131.0.0.0","Windows","10.0","https://app.prolific.com/","en-US,en;q=0.9","6444b1e677ebe8b4e2c23abd","679edb085803f58d6bbd31ca","679efec6cb2971aebd9c6565","","null","<img     src='G_1.jpg' height='90'> <img     src='G_5.jpg' height='90'> <img     src='G_3.jpg' height='90'> <img      src='G_4.jpg' height='90'> <img   src='G_7.jpg' height='90'> <img id='selected'      src='G_8.jpg' height='90'> <img id='selected' src='G_6.jpg' height='90'> <img src='G_2.jpg' height='90'>","null","Animation1","",""
"","","","","","html-keyboard-response","103","623794","0.0-97.0","46","1","2025-02-02 05:12:52","bc01a2b6f61d06f6604adb8657495020","76.142.12.90","Mozilla/5.0 (Windows NT 10.0; Win64; x64) AppleWebKit/537.36 (KHTML, like Gecko) Chrome/131.0.0.0 Safari/537.36","WebKit","Chrome","131.0.0.0","Windows","10.0","https://app.prolific.com/","en-US,en;q=0.9","6444b1e677ebe8b4e2c23abd","679edb085803f58d6bbd31ca","679efec6cb2971aebd9c6565","","null","<img     src='G_1.jpg' height='90'> <img     src='G_5.jpg' height='90'> <img     src='G_3.jpg' height='90'> <img      src='G_4.jpg' height='90'> <img   src='G_7.jpg' height='90'> <img id='selected'      src='G_8.jpg' height='90'> <img id='selected' src='G_6.jpg' height='90'> <img src='G_2.jpg' height='90'>","null","Animation1","",""
"","","","","","html-keyboard-response","104","624104","0.0-98.0","46","1","2025-02-02 05:12:52","bc01a2b6f61d06f6604adb8657495020","76.142.12.90","Mozilla/5.0 (Windows NT 10.0; Win64; x64) AppleWebKit/537.36 (KHTML, like Gecko) Chrome/131.0.0.0 Safari/537.36","WebKit","Chrome","131.0.0.0","Windows","10.0","https://app.prolific.com/","en-US,en;q=0.9","6444b1e677ebe8b4e2c23abd","679edb085803f58d6bbd31ca","679efec6cb2971aebd9c6565","","null","<img     src='G_1.jpg' height='90'> <img     src='G_5.jpg' height='90'> <img     src='G_3.jpg' height='90'> <img      src='G_4.jpg' height='90'> <img   src='G_7.jpg' height='90'> <img       src='G_8.jpg' height='90'> <img  src='G_6.jpg' height='90'> <img src='G_2.jpg' height='90'>","null","Animation1","",""
"","","","","","html-keyboard-response","105","624613","0.0-99.0","46","1","2025-02-02 05:12:52","bc01a2b6f61d06f6604adb8657495020","76.142.12.90","Mozilla/5.0 (Windows NT 10.0; Win64; x64) AppleWebKit/537.36 (KHTML, like Gecko) Chrome/131.0.0.0 Safari/537.36","WebKit","Chrome","131.0.0.0","Windows","10.0","https://app.prolific.com/","en-US,en;q=0.9","6444b1e677ebe8b4e2c23abd","679edb085803f58d6bbd31ca","679efec6cb2971aebd9c6565","","null","<img     src='G_1.jpg' height='90'> <img     src='G_5.jpg' height='90'> <img     src='G_3.jpg' height='90'> <img      src='G_4.jpg' height='90'> <img   src='G_7.jpg' height='90'> <img       src='G_8.jpg' height='90'> <img id='selected'  src='G_6.jpg' height='90'> <img src='G_2.jpg' height='90'>","null","Animation1","",""
"","","","","","html-keyboard-response","106","625124","0.0-100.0","46","1","2025-02-02 05:12:52","bc01a2b6f61d06f6604adb8657495020","76.142.12.90","Mozilla/5.0 (Windows NT 10.0; Win64; x64) AppleWebKit/537.36 (KHTML, like Gecko) Chrome/131.0.0.0 Safari/537.36","WebKit","Chrome","131.0.0.0","Windows","10.0","https://app.prolific.com/","en-US,en;q=0.9","6444b1e677ebe8b4e2c23abd","679edb085803f58d6bbd31ca","679efec6cb2971aebd9c6565","","null","<img     src='G_1.jpg' height='90'> <img     src='G_5.jpg' height='90'> <img     src='G_3.jpg' height='90'> <img      src='G_4.jpg' height='90'> <img   src='G_7.jpg' height='90'> <img       src='G_8.jpg' height='90'> <img id='selected'  src='G_6.jpg' height='90'> <img id='selected' src='G_2.jpg' height='90'>","null","Animation1","",""
"","","","","","html-keyboard-response","107","625638","0.0-101.0","46","1","2025-02-02 05:12:52","bc01a2b6f61d06f6604adb8657495020","76.142.12.90","Mozilla/5.0 (Windows NT 10.0; Win64; x64) AppleWebKit/537.36 (KHTML, like Gecko) Chrome/131.0.0.0 Safari/537.36","WebKit","Chrome","131.0.0.0","Windows","10.0","https://app.prolific.com/","en-US,en;q=0.9","6444b1e677ebe8b4e2c23abd","679edb085803f58d6bbd31ca","679efec6cb2971aebd9c6565","","null","<img     src='G_1.jpg' height='90'> <img     src='G_5.jpg' height='90'> <img     src='G_3.jpg' height='90'> <img      src='G_4.jpg' height='90'> <img   src='G_7.jpg' height='90'> <img       src='G_8.jpg' height='90'> <img id='swapped' src='G_2.jpg' height='90'> <img id='swapped'  src='G_6.jpg' height='90'>","null","Animation1","",""
"","","","","","html-keyboard-response","108","625947","0.0-102.0","46","1","2025-02-02 05:12:52","bc01a2b6f61d06f6604adb8657495020","76.142.12.90","Mozilla/5.0 (Windows NT 10.0; Win64; x64) AppleWebKit/537.36 (KHTML, like Gecko) Chrome/131.0.0.0 Safari/537.36","WebKit","Chrome","131.0.0.0","Windows","10.0","https://app.prolific.com/","en-US,en;q=0.9","6444b1e677ebe8b4e2c23abd","679edb085803f58d6bbd31ca","679efec6cb2971aebd9c6565","","null","<img     src='G_1.jpg' height='90'> <img     src='G_5.jpg' height='90'> <img     src='G_3.jpg' height='90'> <img      src='G_4.jpg' height='90'> <img   src='G_7.jpg' height='90'> <img       src='G_8.jpg' height='90'> <img  src='G_2.jpg' height='90'> <img   src='G_6.jpg' height='90'>","null","Animation1","",""
"","","","","","html-keyboard-response","109","626456","0.0-103.0","46","1","2025-02-02 05:12:52","bc01a2b6f61d06f6604adb8657495020","76.142.12.90","Mozilla/5.0 (Windows NT 10.0; Win64; x64) AppleWebKit/537.36 (KHTML, like Gecko) Chrome/131.0.0.0 Safari/537.36","WebKit","Chrome","131.0.0.0","Windows","10.0","https://app.prolific.com/","en-US,en;q=0.9","6444b1e677ebe8b4e2c23abd","679edb085803f58d6bbd31ca","679efec6cb2971aebd9c6565","","null","<img     src='G_1.jpg' height='90'> <img     src='G_5.jpg' height='90'> <img     src='G_3.jpg' height='90'> <img      src='G_4.jpg' height='90'> <img   src='G_7.jpg' height='90'> <img id='selected'       src='G_8.jpg' height='90'> <img  src='G_2.jpg' height='90'> <img   src='G_6.jpg' height='90'>","null","Animation1","",""
"","","","","","html-keyboard-response","110","626963","0.0-104.0","46","1","2025-02-02 05:12:52","bc01a2b6f61d06f6604adb8657495020","76.142.12.90","Mozilla/5.0 (Windows NT 10.0; Win64; x64) AppleWebKit/537.36 (KHTML, like Gecko) Chrome/131.0.0.0 Safari/537.36","WebKit","Chrome","131.0.0.0","Windows","10.0","https://app.prolific.com/","en-US,en;q=0.9","6444b1e677ebe8b4e2c23abd","679edb085803f58d6bbd31ca","679efec6cb2971aebd9c6565","","null","<img     src='G_1.jpg' height='90'> <img     src='G_5.jpg' height='90'> <img     src='G_3.jpg' height='90'> <img      src='G_4.jpg' height='90'> <img   src='G_7.jpg' height='90'> <img id='selected'       src='G_8.jpg' height='90'> <img id='selected'  src='G_2.jpg' height='90'> <img   src='G_6.jpg' height='90'>","null","Animation1","",""
"","","","","","html-keyboard-response","111","627471","0.0-105.0","46","1","2025-02-02 05:12:52","bc01a2b6f61d06f6604adb8657495020","76.142.12.90","Mozilla/5.0 (Windows NT 10.0; Win64; x64) AppleWebKit/537.36 (KHTML, like Gecko) Chrome/131.0.0.0 Safari/537.36","WebKit","Chrome","131.0.0.0","Windows","10.0","https://app.prolific.com/","en-US,en;q=0.9","6444b1e677ebe8b4e2c23abd","679edb085803f58d6bbd31ca","679efec6cb2971aebd9c6565","","null","<img     src='G_1.jpg' height='90'> <img     src='G_5.jpg' height='90'> <img     src='G_3.jpg' height='90'> <img      src='G_4.jpg' height='90'> <img   src='G_7.jpg' height='90'> <img id='selected'       src='G_8.jpg' height='90'> <img id='selected'  src='G_2.jpg' height='90'> <img   src='G_6.jpg' height='90'>","null","Animation1","",""
"","","","","","html-keyboard-response","112","627783","0.0-106.0","46","1","2025-02-02 05:12:52","bc01a2b6f61d06f6604adb8657495020","76.142.12.90","Mozilla/5.0 (Windows NT 10.0; Win64; x64) AppleWebKit/537.36 (KHTML, like Gecko) Chrome/131.0.0.0 Safari/537.36","WebKit","Chrome","131.0.0.0","Windows","10.0","https://app.prolific.com/","en-US,en;q=0.9","6444b1e677ebe8b4e2c23abd","679edb085803f58d6bbd31ca","679efec6cb2971aebd9c6565","","null","<img     src='G_1.jpg' height='90'> <img     src='G_5.jpg' height='90'> <img     src='G_3.jpg' height='90'> <img      src='G_4.jpg' height='90'> <img   src='G_7.jpg' height='90'> <img        src='G_8.jpg' height='90'> <img   src='G_2.jpg' height='90'> <img   src='G_6.jpg' height='90'>","null","Animation1","",""
"","","","","","html-keyboard-response","113","631138","0.0-107.0","46","1","2025-02-02 05:12:52","bc01a2b6f61d06f6604adb8657495020","76.142.12.90","Mozilla/5.0 (Windows NT 10.0; Win64; x64) AppleWebKit/537.36 (KHTML, like Gecko) Chrome/131.0.0.0 Safari/537.36","WebKit","Chrome","131.0.0.0","Windows","10.0","https://app.prolific.com/","en-US,en;q=0.9","6444b1e677ebe8b4e2c23abd","679edb085803f58d6bbd31ca","679efec6cb2971aebd9c6565","","3354","[""Did you notice any patterns? <br><br>Press Enter to watch that example again and follow the steps of Omgne Sort.""]","enter","","",""
"","","","","","html-button-response","114","631543","0.0-108.0","46","1","2025-02-02 05:12:52","bc01a2b6f61d06f6604adb8657495020","76.142.12.90","Mozilla/5.0 (Windows NT 10.0; Win64; x64) AppleWebKit/537.36 (KHTML, like Gecko) Chrome/131.0.0.0 Safari/537.36","WebKit","Chrome","131.0.0.0","Windows","10.0","https://app.prolific.com/","en-US,en;q=0.9","6444b1e677ebe8b4e2c23abd","679edb085803f58d6bbd31ca","679efec6cb2971aebd9c6565","","null","<img id='selected' src='G_4.jpg' height='90'> <img src='G_8.jpg' height='90'> <img src='G_3.jpg' height='90'> <img src='G_1.jpg' height='90'> <img src='G_5.jpg' height='90'> <img src='G_7.jpg' height='90'> <img src='G_6.jpg' height='90'> <img src='G_2.jpg' height='90'>","null","Learning example 1","",""
"","","","","","html-button-response","115","631853","0.0-109.0","46","1","2025-02-02 05:12:52","bc01a2b6f61d06f6604adb8657495020","76.142.12.90","Mozilla/5.0 (Windows NT 10.0; Win64; x64) AppleWebKit/537.36 (KHTML, like Gecko) Chrome/131.0.0.0 Safari/537.36","WebKit","Chrome","131.0.0.0","Windows","10.0","https://app.prolific.com/","en-US,en;q=0.9","6444b1e677ebe8b4e2c23abd","679edb085803f58d6bbd31ca","679efec6cb2971aebd9c6565","","null","<img id='selected' src='G_4.jpg' height='90'> <img id='selected' src='G_8.jpg' height='90'> <img src='G_3.jpg' height='90'> <img src='G_1.jpg' height='90'> <img src='G_5.jpg' height='90'> <img src='G_7.jpg' height='90'> <img src='G_6.jpg' height='90'> <img src='G_2.jpg' height='90'>","null","Learning example 1","",""
"","","","","","html-button-response","116","632165","0.0-110.0","46","1","2025-02-02 05:12:52","bc01a2b6f61d06f6604adb8657495020","76.142.12.90","Mozilla/5.0 (Windows NT 10.0; Win64; x64) AppleWebKit/537.36 (KHTML, like Gecko) Chrome/131.0.0.0 Safari/537.36","WebKit","Chrome","131.0.0.0","Windows","10.0","https://app.prolific.com/","en-US,en;q=0.9","6444b1e677ebe8b4e2c23abd","679edb085803f58d6bbd31ca","679efec6cb2971aebd9c6565","","null","<img id='selected' src='G_4.jpg' height='90'> <img id='selected' src='G_8.jpg' height='90'> <img src='G_3.jpg' height='90'> <img src='G_1.jpg' height='90'> <img src='G_5.jpg' height='90'> <img src='G_7.jpg' height='90'> <img src='G_6.jpg' height='90'> <img src='G_2.jpg' height='90'>","null","Learning example 1","",""
"","","","","","html-button-response","117","636187","0.0-111.0-0.0-0.0","46","1","2025-02-02 05:12:52","bc01a2b6f61d06f6604adb8657495020","76.142.12.90","Mozilla/5.0 (Windows NT 10.0; Win64; x64) AppleWebKit/537.36 (KHTML, like Gecko) Chrome/131.0.0.0 Safari/537.36","WebKit","Chrome","131.0.0.0","Windows","10.0","https://app.prolific.com/","en-US,en;q=0.9","6444b1e677ebe8b4e2c23abd","679edb085803f58d6bbd31ca","679efec6cb2971aebd9c6565","","4019","<img id='selected' src='G_4.jpg' height='90'> <img id='selected' src='G_8.jpg' height='90'> <img src='G_3.jpg' height='90'> <img src='G_1.jpg' height='90'> <img src='G_5.jpg' height='90'> <img src='G_7.jpg' height='90'> <img src='G_6.jpg' height='90'> <img src='G_2.jpg' height='90'>","0","Learning example 1","",""
"","","","","","html-button-response","118","637762","0.0-111.1-0.1-0.1","46","1","2025-02-02 05:12:52","bc01a2b6f61d06f6604adb8657495020","76.142.12.90","Mozilla/5.0 (Windows NT 10.0; Win64; x64) AppleWebKit/537.36 (KHTML, like Gecko) Chrome/131.0.0.0 Safari/537.36","WebKit","Chrome","131.0.0.0","Windows","10.0","https://app.prolific.com/","en-US,en;q=0.9","6444b1e677ebe8b4e2c23abd","679edb085803f58d6bbd31ca","679efec6cb2971aebd9c6565","","1573","<img id='selected' src='G_4.jpg' height='90'> <img id='selected' src='G_8.jpg' height='90'> <img src='G_3.jpg' height='90'> <img src='G_1.jpg' height='90'> <img src='G_5.jpg' height='90'> <img src='G_7.jpg' height='90'> <img src='G_6.jpg' height='90'> <img src='G_2.jpg' height='90'>","1","Learning example 1","",""
"","","","","","html-button-response","119","637969","0.0-112.0","46","1","2025-02-02 05:12:52","bc01a2b6f61d06f6604adb8657495020","76.142.12.90","Mozilla/5.0 (Windows NT 10.0; Win64; x64) AppleWebKit/537.36 (KHTML, like Gecko) Chrome/131.0.0.0 Safari/537.36","WebKit","Chrome","131.0.0.0","Windows","10.0","https://app.prolific.com/","en-US,en;q=0.9","6444b1e677ebe8b4e2c23abd","679edb085803f58d6bbd31ca","679efec6cb2971aebd9c6565","","null","<img  src='G_4.jpg' height='90'> <img  src='G_8.jpg' height='90'> <img src='G_3.jpg' height='90'> <img src='G_1.jpg' height='90'> <img src='G_5.jpg' height='90'> <img src='G_7.jpg' height='90'> <img src='G_6.jpg' height='90'> <img src='G_2.jpg' height='90'>","null","Learning example 1","",""
"","","","","","html-button-response","120","638384","0.0-113.0","46","1","2025-02-02 05:12:52","bc01a2b6f61d06f6604adb8657495020","76.142.12.90","Mozilla/5.0 (Windows NT 10.0; Win64; x64) AppleWebKit/537.36 (KHTML, like Gecko) Chrome/131.0.0.0 Safari/537.36","WebKit","Chrome","131.0.0.0","Windows","10.0","https://app.prolific.com/","en-US,en;q=0.9","6444b1e677ebe8b4e2c23abd","679edb085803f58d6bbd31ca","679efec6cb2971aebd9c6565","","null","<img  src='G_4.jpg' height='90'> <img id='selected'  src='G_8.jpg' height='90'> <img src='G_3.jpg' height='90'> <img src='G_1.jpg' height='90'> <img src='G_5.jpg' height='90'> <img src='G_7.jpg' height='90'> <img src='G_6.jpg' height='90'> <img src='G_2.jpg' height='90'>","null","Learning example 1","",""
"","","","","","html-button-response","121","638693","0.0-114.0","46","1","2025-02-02 05:12:52","bc01a2b6f61d06f6604adb8657495020","76.142.12.90","Mozilla/5.0 (Windows NT 10.0; Win64; x64) AppleWebKit/537.36 (KHTML, like Gecko) Chrome/131.0.0.0 Safari/537.36","WebKit","Chrome","131.0.0.0","Windows","10.0","https://app.prolific.com/","en-US,en;q=0.9","6444b1e677ebe8b4e2c23abd","679edb085803f58d6bbd31ca","679efec6cb2971aebd9c6565","","null","<img  src='G_4.jpg' height='90'> <img id='selected'  src='G_8.jpg' height='90'> <img id='selected' src='G_3.jpg' height='90'> <img src='G_1.jpg' height='90'> <img src='G_5.jpg' height='90'> <img src='G_7.jpg' height='90'> <img src='G_6.jpg' height='90'> <img src='G_2.jpg' height='90'>","null","Learning example 1","",""
"","","","","","html-button-response","122","639002","0.0-115.0","46","1","2025-02-02 05:12:52","bc01a2b6f61d06f6604adb8657495020","76.142.12.90","Mozilla/5.0 (Windows NT 10.0; Win64; x64) AppleWebKit/537.36 (KHTML, like Gecko) Chrome/131.0.0.0 Safari/537.36","WebKit","Chrome","131.0.0.0","Windows","10.0","https://app.prolific.com/","en-US,en;q=0.9","6444b1e677ebe8b4e2c23abd","679edb085803f58d6bbd31ca","679efec6cb2971aebd9c6565","","null","<img  src='G_4.jpg' height='90'> <img id='swapped' src='G_3.jpg' height='90'> <img id='swapped'  src='G_8.jpg' height='90'> <img src='G_1.jpg' height='90'> <img src='G_5.jpg' height='90'> <img src='G_7.jpg' height='90'> <img src='G_6.jpg' height='90'> <img src='G_2.jpg' height='90'>","null","Learning example 1","",""
"","","","","","html-button-response","123","640666","0.0-116.0-0.0-0.0","46","1","2025-02-02 05:12:52","bc01a2b6f61d06f6604adb8657495020","76.142.12.90","Mozilla/5.0 (Windows NT 10.0; Win64; x64) AppleWebKit/537.36 (KHTML, like Gecko) Chrome/131.0.0.0 Safari/537.36","WebKit","Chrome","131.0.0.0","Windows","10.0","https://app.prolific.com/","en-US,en;q=0.9","6444b1e677ebe8b4e2c23abd","679edb085803f58d6bbd31ca","679efec6cb2971aebd9c6565","","1661","<img  src='G_4.jpg' height='90'> <img id='swapped' src='G_3.jpg' height='90'> <img id='swapped'  src='G_8.jpg' height='90'> <img src='G_1.jpg' height='90'> <img src='G_5.jpg' height='90'> <img src='G_7.jpg' height='90'> <img src='G_6.jpg' height='90'> <img src='G_2.jpg' height='90'>","1","Learning example 1","",""
"","","","","","html-button-response","124","642514","0.0-116.1-0.1-0.1","46","1","2025-02-02 05:12:52","bc01a2b6f61d06f6604adb8657495020","76.142.12.90","Mozilla/5.0 (Windows NT 10.0; Win64; x64) AppleWebKit/537.36 (KHTML, like Gecko) Chrome/131.0.0.0 Safari/537.36","WebKit","Chrome","131.0.0.0","Windows","10.0","https://app.prolific.com/","en-US,en;q=0.9","6444b1e677ebe8b4e2c23abd","679edb085803f58d6bbd31ca","679efec6cb2971aebd9c6565","","1845","<img  src='G_4.jpg' height='90'> <img id='swapped' src='G_3.jpg' height='90'> <img id='swapped'  src='G_8.jpg' height='90'> <img src='G_1.jpg' height='90'> <img src='G_5.jpg' height='90'> <img src='G_7.jpg' height='90'> <img src='G_6.jpg' height='90'> <img src='G_2.jpg' height='90'>","2","Learning example 1","",""
"","","","","","html-button-response","125","642731","0.0-117.0","46","1","2025-02-02 05:12:52","bc01a2b6f61d06f6604adb8657495020","76.142.12.90","Mozilla/5.0 (Windows NT 10.0; Win64; x64) AppleWebKit/537.36 (KHTML, like Gecko) Chrome/131.0.0.0 Safari/537.36","WebKit","Chrome","131.0.0.0","Windows","10.0","https://app.prolific.com/","en-US,en;q=0.9","6444b1e677ebe8b4e2c23abd","679edb085803f58d6bbd31ca","679efec6cb2971aebd9c6565","","null","<img  src='G_4.jpg' height='90'> <img  src='G_3.jpg' height='90'> <img   src='G_8.jpg' height='90'> <img src='G_1.jpg' height='90'> <img src='G_5.jpg' height='90'> <img src='G_7.jpg' height='90'> <img src='G_6.jpg' height='90'> <img src='G_2.jpg' height='90'>","null","Learning example 1","",""
"","","","","","html-button-response","126","643148","0.0-118.0","46","1","2025-02-02 05:12:52","bc01a2b6f61d06f6604adb8657495020","76.142.12.90","Mozilla/5.0 (Windows NT 10.0; Win64; x64) AppleWebKit/537.36 (KHTML, like Gecko) Chrome/131.0.0.0 Safari/537.36","WebKit","Chrome","131.0.0.0","Windows","10.0","https://app.prolific.com/","en-US,en;q=0.9","6444b1e677ebe8b4e2c23abd","679edb085803f58d6bbd31ca","679efec6cb2971aebd9c6565","","null","<img id='selected'  src='G_4.jpg' height='90'> <img  src='G_3.jpg' height='90'> <img   src='G_8.jpg' height='90'> <img src='G_1.jpg' height='90'> <img src='G_5.jpg' height='90'> <img src='G_7.jpg' height='90'> <img src='G_6.jpg' height='90'> <img src='G_2.jpg' height='90'>","null","Learning example 1","",""
"","","","","","html-button-response","127","643455","0.0-119.0","46","1","2025-02-02 05:12:52","bc01a2b6f61d06f6604adb8657495020","76.142.12.90","Mozilla/5.0 (Windows NT 10.0; Win64; x64) AppleWebKit/537.36 (KHTML, like Gecko) Chrome/131.0.0.0 Safari/537.36","WebKit","Chrome","131.0.0.0","Windows","10.0","https://app.prolific.com/","en-US,en;q=0.9","6444b1e677ebe8b4e2c23abd","679edb085803f58d6bbd31ca","679efec6cb2971aebd9c6565","","null","<img id='selected'  src='G_4.jpg' height='90'> <img id='selected'  src='G_3.jpg' height='90'> <img   src='G_8.jpg' height='90'> <img src='G_1.jpg' height='90'> <img src='G_5.jpg' height='90'> <img src='G_7.jpg' height='90'> <img src='G_6.jpg' height='90'> <img src='G_2.jpg' height='90'>","null","Learning example 1","",""
"","","","","","html-button-response","128","643764","0.0-120.0","46","1","2025-02-02 05:12:52","bc01a2b6f61d06f6604adb8657495020","76.142.12.90","Mozilla/5.0 (Windows NT 10.0; Win64; x64) AppleWebKit/537.36 (KHTML, like Gecko) Chrome/131.0.0.0 Safari/537.36","WebKit","Chrome","131.0.0.0","Windows","10.0","https://app.prolific.com/","en-US,en;q=0.9","6444b1e677ebe8b4e2c23abd","679edb085803f58d6bbd31ca","679efec6cb2971aebd9c6565","","null","<img id='swapped'  src='G_3.jpg' height='90'> <img id='swapped'  src='G_4.jpg' height='90'> <img   src='G_8.jpg' height='90'> <img src='G_1.jpg' height='90'> <img src='G_5.jpg' height='90'> <img src='G_7.jpg' height='90'> <img src='G_6.jpg' height='90'> <img src='G_2.jpg' height='90'>","null","Learning example 1","",""
"","","","","","html-button-response","129","646530","0.0-121.0-0.0-0.0","46","1","2025-02-02 05:12:52","bc01a2b6f61d06f6604adb8657495020","76.142.12.90","Mozilla/5.0 (Windows NT 10.0; Win64; x64) AppleWebKit/537.36 (KHTML, like Gecko) Chrome/131.0.0.0 Safari/537.36","WebKit","Chrome","131.0.0.0","Windows","10.0","https://app.prolific.com/","en-US,en;q=0.9","6444b1e677ebe8b4e2c23abd","679edb085803f58d6bbd31ca","679efec6cb2971aebd9c6565","","2763","<img id='swapped'  src='G_3.jpg' height='90'> <img id='swapped'  src='G_4.jpg' height='90'> <img   src='G_8.jpg' height='90'> <img src='G_1.jpg' height='90'> <img src='G_5.jpg' height='90'> <img src='G_7.jpg' height='90'> <img src='G_6.jpg' height='90'> <img src='G_2.jpg' height='90'>","0","Learning example 1","",""
"","","","","","html-button-response","130","647466","0.0-121.1-0.1-0.1","46","1","2025-02-02 05:12:52","bc01a2b6f61d06f6604adb8657495020","76.142.12.90","Mozilla/5.0 (Windows NT 10.0; Win64; x64) AppleWebKit/537.36 (KHTML, like Gecko) Chrome/131.0.0.0 Safari/537.36","WebKit","Chrome","131.0.0.0","Windows","10.0","https://app.prolific.com/","en-US,en;q=0.9","6444b1e677ebe8b4e2c23abd","679edb085803f58d6bbd31ca","679efec6cb2971aebd9c6565","","933","<img id='swapped'  src='G_3.jpg' height='90'> <img id='swapped'  src='G_4.jpg' height='90'> <img   src='G_8.jpg' height='90'> <img src='G_1.jpg' height='90'> <img src='G_5.jpg' height='90'> <img src='G_7.jpg' height='90'> <img src='G_6.jpg' height='90'> <img src='G_2.jpg' height='90'>","1","Learning example 1","",""
"","","","","","html-button-response","131","647683","0.0-122.0","46","1","2025-02-02 05:12:52","bc01a2b6f61d06f6604adb8657495020","76.142.12.90","Mozilla/5.0 (Windows NT 10.0; Win64; x64) AppleWebKit/537.36 (KHTML, like Gecko) Chrome/131.0.0.0 Safari/537.36","WebKit","Chrome","131.0.0.0","Windows","10.0","https://app.prolific.com/","en-US,en;q=0.9","6444b1e677ebe8b4e2c23abd","679edb085803f58d6bbd31ca","679efec6cb2971aebd9c6565","","null","<img   src='G_3.jpg' height='90'> <img   src='G_4.jpg' height='90'> <img   src='G_8.jpg' height='90'> <img src='G_1.jpg' height='90'> <img src='G_5.jpg' height='90'> <img src='G_7.jpg' height='90'> <img src='G_6.jpg' height='90'> <img src='G_2.jpg' height='90'>","null","Learning example 1","",""
"","","","","","html-button-response","132","648100","0.0-123.0","46","1","2025-02-02 05:12:52","bc01a2b6f61d06f6604adb8657495020","76.142.12.90","Mozilla/5.0 (Windows NT 10.0; Win64; x64) AppleWebKit/537.36 (KHTML, like Gecko) Chrome/131.0.0.0 Safari/537.36","WebKit","Chrome","131.0.0.0","Windows","10.0","https://app.prolific.com/","en-US,en;q=0.9","6444b1e677ebe8b4e2c23abd","679edb085803f58d6bbd31ca","679efec6cb2971aebd9c6565","","null","<img   src='G_3.jpg' height='90'> <img   src='G_4.jpg' height='90'> <img id='selected'   src='G_8.jpg' height='90'> <img src='G_1.jpg' height='90'> <img src='G_5.jpg' height='90'> <img src='G_7.jpg' height='90'> <img src='G_6.jpg' height='90'> <img src='G_2.jpg' height='90'>","null","Learning example 1","",""
"","","","","","html-button-response","133","648402","0.0-124.0","46","1","2025-02-02 05:12:52","bc01a2b6f61d06f6604adb8657495020","76.142.12.90","Mozilla/5.0 (Windows NT 10.0; Win64; x64) AppleWebKit/537.36 (KHTML, like Gecko) Chrome/131.0.0.0 Safari/537.36","WebKit","Chrome","131.0.0.0","Windows","10.0","https://app.prolific.com/","en-US,en;q=0.9","6444b1e677ebe8b4e2c23abd","679edb085803f58d6bbd31ca","679efec6cb2971aebd9c6565","","null","<img   src='G_3.jpg' height='90'> <img   src='G_4.jpg' height='90'> <img id='selected'   src='G_8.jpg' height='90'> <img id='selected' src='G_1.jpg' height='90'> <img src='G_5.jpg' height='90'> <img src='G_7.jpg' height='90'> <img src='G_6.jpg' height='90'> <img src='G_2.jpg' height='90'>","null","Learning example 1","",""
"","","","","","html-button-response","134","648712","0.0-125.0","46","1","2025-02-02 05:12:52","bc01a2b6f61d06f6604adb8657495020","76.142.12.90","Mozilla/5.0 (Windows NT 10.0; Win64; x64) AppleWebKit/537.36 (KHTML, like Gecko) Chrome/131.0.0.0 Safari/537.36","WebKit","Chrome","131.0.0.0","Windows","10.0","https://app.prolific.com/","en-US,en;q=0.9","6444b1e677ebe8b4e2c23abd","679edb085803f58d6bbd31ca","679efec6cb2971aebd9c6565","","null","<img   src='G_3.jpg' height='90'> <img   src='G_4.jpg' height='90'> <img id='swapped' src='G_1.jpg' height='90'> <img id='swapped'   src='G_8.jpg' height='90'> <img src='G_5.jpg' height='90'> <img src='G_7.jpg' height='90'> <img src='G_6.jpg' height='90'> <img src='G_2.jpg' height='90'>","null","Learning example 1","",""
"","","","","","html-button-response","135","649978","0.0-126.0-0.0-0.0","46","1","2025-02-02 05:12:52","bc01a2b6f61d06f6604adb8657495020","76.142.12.90","Mozilla/5.0 (Windows NT 10.0; Win64; x64) AppleWebKit/537.36 (KHTML, like Gecko) Chrome/131.0.0.0 Safari/537.36","WebKit","Chrome","131.0.0.0","Windows","10.0","https://app.prolific.com/","en-US,en;q=0.9","6444b1e677ebe8b4e2c23abd","679edb085803f58d6bbd31ca","679efec6cb2971aebd9c6565","","1264","<img   src='G_3.jpg' height='90'> <img   src='G_4.jpg' height='90'> <img id='swapped' src='G_1.jpg' height='90'> <img id='swapped'   src='G_8.jpg' height='90'> <img src='G_5.jpg' height='90'> <img src='G_7.jpg' height='90'> <img src='G_6.jpg' height='90'> <img src='G_2.jpg' height='90'>","3","Learning example 1","",""
"","","","","","html-button-response","136","650490","0.0-126.1-0.1-0.1","46","1","2025-02-02 05:12:52","bc01a2b6f61d06f6604adb8657495020","76.142.12.90","Mozilla/5.0 (Windows NT 10.0; Win64; x64) AppleWebKit/537.36 (KHTML, like Gecko) Chrome/131.0.0.0 Safari/537.36","WebKit","Chrome","131.0.0.0","Windows","10.0","https://app.prolific.com/","en-US,en;q=0.9","6444b1e677ebe8b4e2c23abd","679edb085803f58d6bbd31ca","679efec6cb2971aebd9c6565","","509","<img   src='G_3.jpg' height='90'> <img   src='G_4.jpg' height='90'> <img id='swapped' src='G_1.jpg' height='90'> <img id='swapped'   src='G_8.jpg' height='90'> <img src='G_5.jpg' height='90'> <img src='G_7.jpg' height='90'> <img src='G_6.jpg' height='90'> <img src='G_2.jpg' height='90'>","2","Learning example 1","",""
"","","","","","html-button-response","137","650693","0.0-127.0","46","1","2025-02-02 05:12:52","bc01a2b6f61d06f6604adb8657495020","76.142.12.90","Mozilla/5.0 (Windows NT 10.0; Win64; x64) AppleWebKit/537.36 (KHTML, like Gecko) Chrome/131.0.0.0 Safari/537.36","WebKit","Chrome","131.0.0.0","Windows","10.0","https://app.prolific.com/","en-US,en;q=0.9","6444b1e677ebe8b4e2c23abd","679edb085803f58d6bbd31ca","679efec6cb2971aebd9c6565","","null","<img   src='G_3.jpg' height='90'> <img   src='G_4.jpg' height='90'> <img  src='G_1.jpg' height='90'> <img    src='G_8.jpg' height='90'> <img src='G_5.jpg' height='90'> <img src='G_7.jpg' height='90'> <img src='G_6.jpg' height='90'> <img src='G_2.jpg' height='90'>","null","Learning example 1","",""
"","","","","","html-button-response","138","651103","0.0-128.0","46","1","2025-02-02 05:12:52","bc01a2b6f61d06f6604adb8657495020","76.142.12.90","Mozilla/5.0 (Windows NT 10.0; Win64; x64) AppleWebKit/537.36 (KHTML, like Gecko) Chrome/131.0.0.0 Safari/537.36","WebKit","Chrome","131.0.0.0","Windows","10.0","https://app.prolific.com/","en-US,en;q=0.9","6444b1e677ebe8b4e2c23abd","679edb085803f58d6bbd31ca","679efec6cb2971aebd9c6565","","null","<img   src='G_3.jpg' height='90'> <img id='selected'   src='G_4.jpg' height='90'> <img  src='G_1.jpg' height='90'> <img    src='G_8.jpg' height='90'> <img src='G_5.jpg' height='90'> <img src='G_7.jpg' height='90'> <img src='G_6.jpg' height='90'> <img src='G_2.jpg' height='90'>","null","Learning example 1","",""
