"success","timeout","failed_images","failed_audio","failed_video","trial_type","trial_index","time_elapsed","internal_node_id","run_id","condition","recorded_at","source_code_version","ip","user_agent","device","browser","browser_version","platform","platform_version","referer","accept_language","PROLIFIC_PID","STUDY_ID","SESSION_ID","view_history","rt","stimulus","response","question_order","phase","presented_choices"
"true","false","[]","[]","[]","preload","0","2012","0.0-0.0","6","1","2025-02-02 02:42:14","8171f7adbf662c8213b5fc4626e0469c","103.140.232.7","Mozilla/5.0 (Windows NT 10.0; Win64; x64) AppleWebKit/537.36 (KHTML, like Gecko) Chrome/132.0.0.0 Safari/537.36","WebKit","Chrome","132.0.0.0","Windows","10.0","https://app.prolific.com/","en,zh-CN;q=0.9,zh;q=0.8,ja;q=0.7,zh-TW;q=0.6","6500b3922f1493c553f2037f","679edb085803f58d6bbd31ca","0ncxm8n2h79","","","","","","",""
"","","","","","instructions","1","4455","0.0-1.0","6","1","2025-02-02 02:42:14","8171f7adbf662c8213b5fc4626e0469c","103.140.232.7","Mozilla/5.0 (Windows NT 10.0; Win64; x64) AppleWebKit/537.36 (KHTML, like Gecko) Chrome/132.0.0.0 Safari/537.36","WebKit","Chrome","132.0.0.0","Windows","10.0","https://app.prolific.com/","en,zh-CN;q=0.9,zh;q=0.8,ja;q=0.7,zh-TW;q=0.6","6500b3922f1493c553f2037f","679edb085803f58d6bbd31ca","0ncxm8n2h79","[{""page_index"":0,""viewing_time"":2441}]","2442","","","","",""
"","","","","","html-keyboard-response","2","4960","0.0-2.0","6","1","2025-02-02 02:42:14","8171f7adbf662c8213b5fc4626e0469c","103.140.232.7","Mozilla/5.0 (Windows NT 10.0; Win64; x64) AppleWebKit/537.36 (KHTML, like Gecko) Chrome/132.0.0.0 Safari/537.36","WebKit","Chrome","132.0.0.0","Windows","10.0","https://app.prolific.com/","en,zh-CN;q=0.9,zh;q=0.8,ja;q=0.7,zh-TW;q=0.6","6500b3922f1493c553f2037f","679edb085803f58d6bbd31ca","0ncxm8n2h79","","null","<p> + <p/>","null","","",""
"","","","","","html-keyboard-response","3","6270","0.0-3.0","6","1","2025-02-02 02:42:14","8171f7adbf662c8213b5fc4626e0469c","103.140.232.7","Mozilla/5.0 (Windows NT 10.0; Win64; x64) AppleWebKit/537.36 (KHTML, like Gecko) Chrome/132.0.0.0 Safari/537.36","WebKit","Chrome","132.0.0.0","Windows","10.0","https://app.prolific.com/","en,zh-CN;q=0.9,zh;q=0.8,ja;q=0.7,zh-TW;q=0.6","6500b3922f1493c553f2037f","679edb085803f58d6bbd31ca","0ncxm8n2h79","","1310","<p>Welcome to the learning phase! <br><br> You will learn by six examples. The following learning trials will not be used to calculate your performance. <br><br> Press Enter to continue.<p/>","enter","","",""
"","","","","","html-keyboard-response","4","6693","0.0-4.0","6","1","2025-02-02 02:42:14","8171f7adbf662c8213b5fc4626e0469c","103.140.232.7","Mozilla/5.0 (Windows NT 10.0; Win64; x64) AppleWebKit/537.36 (KHTML, like Gecko) Chrome/132.0.0.0 Safari/537.36","WebKit","Chrome","132.0.0.0","Windows","10.0","https://app.prolific.com/","en,zh-CN;q=0.9,zh;q=0.8,ja;q=0.7,zh-TW;q=0.6","6500b3922f1493c553f2037f","679edb085803f58d6bbd31ca","0ncxm8n2h79","","422","[""Did you notice any patterns? <br><br>Press Enter to watch that example again and follow the steps of Omgne Sort.""]","enter","","",""
"","","","","","html-keyboard-response","5","7521","0.0-5.0","6","1","2025-02-02 02:42:14","8171f7adbf662c8213b5fc4626e0469c","103.140.232.7","Mozilla/5.0 (Windows NT 10.0; Win64; x64) AppleWebKit/537.36 (KHTML, like Gecko) Chrome/132.0.0.0 Safari/537.36","WebKit","Chrome","132.0.0.0","Windows","10.0","https://app.prolific.com/","en,zh-CN;q=0.9,zh;q=0.8,ja;q=0.7,zh-TW;q=0.6","6500b3922f1493c553f2037f","679edb085803f58d6bbd31ca","0ncxm8n2h79","","827","[""Final order was 1,2,3,4,5. The initial order was 2,1,3,4,5.<br>It took 1 swaps to sort it correctly with Omgne Sort. <br><br>Press Enter to continue.""]","enter","","",""
"","","","","","html-keyboard-response","6","7988","0.0-6.0","6","1","2025-02-02 02:42:14","8171f7adbf662c8213b5fc4626e0469c","103.140.232.7","Mozilla/5.0 (Windows NT 10.0; Win64; x64) AppleWebKit/537.36 (KHTML, like Gecko) Chrome/132.0.0.0 Safari/537.36","WebKit","Chrome","132.0.0.0","Windows","10.0","https://app.prolific.com/","en,zh-CN;q=0.9,zh;q=0.8,ja;q=0.7,zh-TW;q=0.6","6500b3922f1493c553f2037f","679edb085803f58d6bbd31ca","0ncxm8n2h79","","466","[""Did you notice any patterns? <br><br>Press Enter to watch that example again and follow the steps of Omgne Sort.""]","enter","","",""
"","","","","","html-keyboard-response","7","8255","0.0-7.0","6","1","2025-02-02 02:42:14","8171f7adbf662c8213b5fc4626e0469c","103.140.232.7","Mozilla/5.0 (Windows NT 10.0; Win64; x64) AppleWebKit/537.36 (KHTML, like Gecko) Chrome/132.0.0.0 Safari/537.36","WebKit","Chrome","132.0.0.0","Windows","10.0","https://app.prolific.com/","en,zh-CN;q=0.9,zh;q=0.8,ja;q=0.7,zh-TW;q=0.6","6500b3922f1493c553f2037f","679edb085803f58d6bbd31ca","0ncxm8n2h79","","266","[""Final order was 1,2,3,4,5,6,7,8. The initial order was 4,6,3,1,2,5,8,7.<br>It took 10 swaps to sort it correctly with Omgne Sort. <br><br>Press Enter to continue.""]","enter","","",""
"","","","","","html-keyboard-response","8","8490","0.0-8.0","6","1","2025-02-02 02:42:14","8171f7adbf662c8213b5fc4626e0469c","103.140.232.7","Mozilla/5.0 (Windows NT 10.0; Win64; x64) AppleWebKit/537.36 (KHTML, like Gecko) Chrome/132.0.0.0 Safari/537.36","WebKit","Chrome","132.0.0.0","Windows","10.0","https://app.prolific.com/","en,zh-CN;q=0.9,zh;q=0.8,ja;q=0.7,zh-TW;q=0.6","6500b3922f1493c553f2037f","679edb085803f58d6bbd31ca","0ncxm8n2h79","","234","[""Did you notice any patterns? <br><br>Press Enter to watch that example again and follow the steps of Omgne Sort.""]","enter","","",""
"","","","","","html-keyboard-response","9","8769","0.0-9.0","6","1","2025-02-02 02:42:14","8171f7adbf662c8213b5fc4626e0469c","103.140.232.7","Mozilla/5.0 (Windows NT 10.0; Win64; x64) AppleWebKit/537.36 (KHTML, like Gecko) Chrome/132.0.0.0 Safari/537.36","WebKit","Chrome","132.0.0.0","Windows","10.0","https://app.prolific.com/","en,zh-CN;q=0.9,zh;q=0.8,ja;q=0.7,zh-TW;q=0.6","6500b3922f1493c553f2037f","679edb085803f58d6bbd31ca","0ncxm8n2h79","","278","[""Final order was 1,2,3,4,5. The initial order was 3,4,1,2,5.<br>It took 4 swaps to sort it correctly with Omgne Sort. <br><br>Press Enter to continue.""]","enter","","",""
"","","","","","survey-likert","10","12110","0.0-10.0","6","1","2025-02-02 02:42:14","8171f7adbf662c8213b5fc4626e0469c","103.140.232.7","Mozilla/5.0 (Windows NT 10.0; Win64; x64) AppleWebKit/537.36 (KHTML, like Gecko) Chrome/132.0.0.0 Safari/537.36","WebKit","Chrome","132.0.0.0","Windows","10.0","https://app.prolific.com/","en,zh-CN;q=0.9,zh;q=0.8,ja;q=0.7,zh-TW;q=0.6","6500b3922f1493c553f2037f","679edb085803f58d6bbd31ca","0ncxm8n2h79","","3338","","{""Q0"":2}","[0]","",""
"","","","","","html-keyboard-response","11","12451","0.0-11.0","6","1","2025-02-02 02:42:14","8171f7adbf662c8213b5fc4626e0469c","103.140.232.7","Mozilla/5.0 (Windows NT 10.0; Win64; x64) AppleWebKit/537.36 (KHTML, like Gecko) Chrome/132.0.0.0 Safari/537.36","WebKit","Chrome","132.0.0.0","Windows","10.0","https://app.prolific.com/","en,zh-CN;q=0.9,zh;q=0.8,ja;q=0.7,zh-TW;q=0.6","6500b3922f1493c553f2037f","679edb085803f58d6bbd31ca","0ncxm8n2h79","","340","[""Did you notice any patterns? <br><br>Press Enter to watch that example again and follow the steps of Omgne Sort.""]","enter","","",""
"","","","","","html-keyboard-response","12","12655","0.0-12.0","6","1","2025-02-02 02:42:14","8171f7adbf662c8213b5fc4626e0469c","103.140.232.7","Mozilla/5.0 (Windows NT 10.0; Win64; x64) AppleWebKit/537.36 (KHTML, like Gecko) Chrome/132.0.0.0 Safari/537.36","WebKit","Chrome","132.0.0.0","Windows","10.0","https://app.prolific.com/","en,zh-CN;q=0.9,zh;q=0.8,ja;q=0.7,zh-TW;q=0.6","6500b3922f1493c553f2037f","679edb085803f58d6bbd31ca","0ncxm8n2h79","","203","[""Final order was 1,2,3,4,5. The initial order was 5,4,3,2,1.<br>It took 10 swaps to sort it correctly with Omgne Sort. <br><br>Press Enter to continue.""]","enter","","",""
"","","","","","survey-likert","13","15291","0.0-13.0","6","1","2025-02-02 02:42:14","8171f7adbf662c8213b5fc4626e0469c","103.140.232.7","Mozilla/5.0 (Windows NT 10.0; Win64; x64) AppleWebKit/537.36 (KHTML, like Gecko) Chrome/132.0.0.0 Safari/537.36","WebKit","Chrome","132.0.0.0","Windows","10.0","https://app.prolific.com/","en,zh-CN;q=0.9,zh;q=0.8,ja;q=0.7,zh-TW;q=0.6","6500b3922f1493c553f2037f","679edb085803f58d6bbd31ca","0ncxm8n2h79","","2635","","{""Q0"":2}","[0]","",""
"","","","","","html-keyboard-response","14","15443","0.0-14.0","6","1","2025-02-02 02:42:14","8171f7adbf662c8213b5fc4626e0469c","103.140.232.7","Mozilla/5.0 (Windows NT 10.0; Win64; x64) AppleWebKit/537.36 (KHTML, like Gecko) Chrome/132.0.0.0 Safari/537.36","WebKit","Chrome","132.0.0.0","Windows","10.0","https://app.prolific.com/","en,zh-CN;q=0.9,zh;q=0.8,ja;q=0.7,zh-TW;q=0.6","6500b3922f1493c553f2037f","679edb085803f58d6bbd31ca","0ncxm8n2h79","","152","[""Did you notice any patterns? <br><br>Press Enter to watch that example again and follow the steps of Omgne Sort.""]","enter","","",""
"","","","","","html-keyboard-response","15","15672","0.0-15.0","6","1","2025-02-02 02:42:14","8171f7adbf662c8213b5fc4626e0469c","103.140.232.7","Mozilla/5.0 (Windows NT 10.0; Win64; x64) AppleWebKit/537.36 (KHTML, like Gecko) Chrome/132.0.0.0 Safari/537.36","WebKit","Chrome","132.0.0.0","Windows","10.0","https://app.prolific.com/","en,zh-CN;q=0.9,zh;q=0.8,ja;q=0.7,zh-TW;q=0.6","6500b3922f1493c553f2037f","679edb085803f58d6bbd31ca","0ncxm8n2h79","","228","[""Final order was 1,2,3,4,5,6,7,8. The initial order was 1,2,3,4,5,7,6,8.<br>It took 1 swaps to sort it correctly with Omgne Sort. <br><br>Press Enter to continue.""]","enter","","",""
"","","","","","survey-likert","16","18293","0.0-16.0","6","1","2025-02-02 02:42:14","8171f7adbf662c8213b5fc4626e0469c","103.140.232.7","Mozilla/5.0 (Windows NT 10.0; Win64; x64) AppleWebKit/537.36 (KHTML, like Gecko) Chrome/132.0.0.0 Safari/537.36","WebKit","Chrome","132.0.0.0","Windows","10.0","https://app.prolific.com/","en,zh-CN;q=0.9,zh;q=0.8,ja;q=0.7,zh-TW;q=0.6","6500b3922f1493c553f2037f","679edb085803f58d6bbd31ca","0ncxm8n2h79","","2619","","{""Q0"":2}","[0]","",""
"","","","","","html-keyboard-response","17","18546","0.0-17.0","6","1","2025-02-02 02:42:14","8171f7adbf662c8213b5fc4626e0469c","103.140.232.7","Mozilla/5.0 (Windows NT 10.0; Win64; x64) AppleWebKit/537.36 (KHTML, like Gecko) Chrome/132.0.0.0 Safari/537.36","WebKit","Chrome","132.0.0.0","Windows","10.0","https://app.prolific.com/","en,zh-CN;q=0.9,zh;q=0.8,ja;q=0.7,zh-TW;q=0.6","6500b3922f1493c553f2037f","679edb085803f58d6bbd31ca","0ncxm8n2h79","","251","[""Did you notice any patterns? <br><br>Press Enter to watch that example again and follow the steps of Omgne Sort.""]","enter","","",""
"","","","","","html-keyboard-response","18","18701","0.0-18.0","6","1","2025-02-02 02:42:14","8171f7adbf662c8213b5fc4626e0469c","103.140.232.7","Mozilla/5.0 (Windows NT 10.0; Win64; x64) AppleWebKit/537.36 (KHTML, like Gecko) Chrome/132.0.0.0 Safari/537.36","WebKit","Chrome","132.0.0.0","Windows","10.0","https://app.prolific.com/","en,zh-CN;q=0.9,zh;q=0.8,ja;q=0.7,zh-TW;q=0.6","6500b3922f1493c553f2037f","679edb085803f58d6bbd31ca","0ncxm8n2h79","","153","[""Final order was 1,2,3,4,5,6,7,8. The initial order was 8,5,2,6,7,3,1,4.<br>It took 19 swaps to sort it correctly with Omgne Sort. <br><br>Press Enter to continue.""]","enter","","",""
"","","","","","survey-likert","19","21206","0.0-19.0","6","1","2025-02-02 02:42:14","8171f7adbf662c8213b5fc4626e0469c","103.140.232.7","Mozilla/5.0 (Windows NT 10.0; Win64; x64) AppleWebKit/537.36 (KHTML, like Gecko) Chrome/132.0.0.0 Safari/537.36","WebKit","Chrome","132.0.0.0","Windows","10.0","https://app.prolific.com/","en,zh-CN;q=0.9,zh;q=0.8,ja;q=0.7,zh-TW;q=0.6","6500b3922f1493c553f2037f","679edb085803f58d6bbd31ca","0ncxm8n2h79","","2504","","{""Q0"":2}","[0]","",""
"","","","","","html-keyboard-response","20","22462","0.0-20.0","6","1","2025-02-02 02:42:14","8171f7adbf662c8213b5fc4626e0469c","103.140.232.7","Mozilla/5.0 (Windows NT 10.0; Win64; x64) AppleWebKit/537.36 (KHTML, like Gecko) Chrome/132.0.0.0 Safari/537.36","WebKit","Chrome","132.0.0.0","Windows","10.0","https://app.prolific.com/","en,zh-CN;q=0.9,zh;q=0.8,ja;q=0.7,zh-TW;q=0.6","6500b3922f1493c553f2037f","679edb085803f58d6bbd31ca","0ncxm8n2h79","","1254","<p>Welcome to the test phase! <br><br> You will do six problems. Your performance bonus will be calculated based on <b> how you accurately and efficiently use Omgne Sort</b>. <br><br> Press Enter to continue.<p/>","enter","","",""
"","","","","","html-keyboard-response","21","22976","0.0-21.0","6","1","2025-02-02 02:42:14","8171f7adbf662c8213b5fc4626e0469c","103.140.232.7","Mozilla/5.0 (Windows NT 10.0; Win64; x64) AppleWebKit/537.36 (KHTML, like Gecko) Chrome/132.0.0.0 Safari/537.36","WebKit","Chrome","132.0.0.0","Windows","10.0","https://app.prolific.com/","en,zh-CN;q=0.9,zh;q=0.8,ja;q=0.7,zh-TW;q=0.6","6500b3922f1493c553f2037f","679edb085803f58d6bbd31ca","0ncxm8n2h79","","null","<p> + <p/>","null","","Initial Order: 4,2,3,0,1",""
"","","","","","html-button-response","22","24654","0.0-22.0-0.0-0.0","6","1","2025-02-02 02:42:14","8171f7adbf662c8213b5fc4626e0469c","103.140.232.7","Mozilla/5.0 (Windows NT 10.0; Win64; x64) AppleWebKit/537.36 (KHTML, like Gecko) Chrome/132.0.0.0 Safari/537.36","WebKit","Chrome","132.0.0.0","Windows","10.0","https://app.prolific.com/","en,zh-CN;q=0.9,zh;q=0.8,ja;q=0.7,zh-TW;q=0.6","6500b3922f1493c553f2037f","679edb085803f58d6bbd31ca","0ncxm8n2h79","","1671","","5","","Test 0",""
"","","","","","html-keyboard-response","23","25133","0.0-23.0","6","1","2025-02-02 02:42:14","8171f7adbf662c8213b5fc4626e0469c","103.140.232.7","Mozilla/5.0 (Windows NT 10.0; Win64; x64) AppleWebKit/537.36 (KHTML, like Gecko) Chrome/132.0.0.0 Safari/537.36","WebKit","Chrome","132.0.0.0","Windows","10.0","https://app.prolific.com/","en,zh-CN;q=0.9,zh;q=0.8,ja;q=0.7,zh-TW;q=0.6","6500b3922f1493c553f2037f","679edb085803f58d6bbd31ca","0ncxm8n2h79","","474","[""You sorted incorrectly. <br><br> <img src='G_7.jpg' height='90'><img src='G_9.jpg' height='90'><img src='G_5.jpg' height='90'><img src='G_3.jpg' height='90'><img src='G_6.jpg' height='90'><br><br> Your final order is 5,3,4,1,2<br><br> Press Enter to continue.""]","enter","","Final Order: 5,3,4,1,2",""
"","","","","","html-keyboard-response","24","25640","0.0-24.0","6","1","2025-02-02 02:42:14","8171f7adbf662c8213b5fc4626e0469c","103.140.232.7","Mozilla/5.0 (Windows NT 10.0; Win64; x64) AppleWebKit/537.36 (KHTML, like Gecko) Chrome/132.0.0.0 Safari/537.36","WebKit","Chrome","132.0.0.0","Windows","10.0","https://app.prolific.com/","en,zh-CN;q=0.9,zh;q=0.8,ja;q=0.7,zh-TW;q=0.6","6500b3922f1493c553f2037f","679edb085803f58d6bbd31ca","0ncxm8n2h79","","null","<p> + <p/>","null","","Initial Order: 5,1,7,6,4,3,2,0",""
"","","","","","html-button-response","25","27268","0.0-25.0-0.0-0.0","6","1","2025-02-02 02:42:14","8171f7adbf662c8213b5fc4626e0469c","103.140.232.7","Mozilla/5.0 (Windows NT 10.0; Win64; x64) AppleWebKit/537.36 (KHTML, like Gecko) Chrome/132.0.0.0 Safari/537.36","WebKit","Chrome","132.0.0.0","Windows","10.0","https://app.prolific.com/","en,zh-CN;q=0.9,zh;q=0.8,ja;q=0.7,zh-TW;q=0.6","6500b3922f1493c553f2037f","679edb085803f58d6bbd31ca","0ncxm8n2h79","","1623","","8","","Test 1",""
"","","","","","html-keyboard-response","26","27722","0.0-26.0","6","1","2025-02-02 02:42:14","8171f7adbf662c8213b5fc4626e0469c","103.140.232.7","Mozilla/5.0 (Windows NT 10.0; Win64; x64) AppleWebKit/537.36 (KHTML, like Gecko) Chrome/132.0.0.0 Safari/537.36","WebKit","Chrome","132.0.0.0","Windows","10.0","https://app.prolific.com/","en,zh-CN;q=0.9,zh;q=0.8,ja;q=0.7,zh-TW;q=0.6","6500b3922f1493c553f2037f","679edb085803f58d6bbd31ca","0ncxm8n2h79","","450","[""You sorted incorrectly. <br><br> <img src='G_8.jpg' height='90'><img src='G_4.jpg' height='90'><img src='G_3.jpg' height='90'><img src='G_1.jpg' height='90'><img src='G_6.jpg' height='90'><img src='G_7.jpg' height='90'><img src='G_2.jpg' height='90'><img src='G_5.jpg' height='90'><br><br> Your final order is 6,2,8,7,5,4,3,1<br><br> Press Enter to continue.""]","enter","","Final Order: 6,2,8,7,5,4,3,1",""
"","","","","","html-keyboard-response","27","28238","0.0-27.0","6","1","2025-02-02 02:42:14","8171f7adbf662c8213b5fc4626e0469c","103.140.232.7","Mozilla/5.0 (Windows NT 10.0; Win64; x64) AppleWebKit/537.36 (KHTML, like Gecko) Chrome/132.0.0.0 Safari/537.36","WebKit","Chrome","132.0.0.0","Windows","10.0","https://app.prolific.com/","en,zh-CN;q=0.9,zh;q=0.8,ja;q=0.7,zh-TW;q=0.6","6500b3922f1493c553f2037f","679edb085803f58d6bbd31ca","0ncxm8n2h79","","null","<p> + <p/>","null","","Initial Order: 2,4,1,3,0",""
"","","","","","html-button-response","28","29897","0.0-28.0-0.0-0.0","6","1","2025-02-02 02:42:14","8171f7adbf662c8213b5fc4626e0469c","103.140.232.7","Mozilla/5.0 (Windows NT 10.0; Win64; x64) AppleWebKit/537.36 (KHTML, like Gecko) Chrome/132.0.0.0 Safari/537.36","WebKit","Chrome","132.0.0.0","Windows","10.0","https://app.prolific.com/","en,zh-CN;q=0.9,zh;q=0.8,ja;q=0.7,zh-TW;q=0.6","6500b3922f1493c553f2037f","679edb085803f58d6bbd31ca","0ncxm8n2h79","","1654","","5","","Test 2",""
"","","","","","html-keyboard-response","29","30351","0.0-29.0","6","1","2025-02-02 02:42:14","8171f7adbf662c8213b5fc4626e0469c","103.140.232.7","Mozilla/5.0 (Windows NT 10.0; Win64; x64) AppleWebKit/537.36 (KHTML, like Gecko) Chrome/132.0.0.0 Safari/537.36","WebKit","Chrome","132.0.0.0","Windows","10.0","https://app.prolific.com/","en,zh-CN;q=0.9,zh;q=0.8,ja;q=0.7,zh-TW;q=0.6","6500b3922f1493c553f2037f","679edb085803f58d6bbd31ca","0ncxm8n2h79","","451","[""You sorted incorrectly. <br><br> <img src='G_7.jpg' height='90'><img src='G_6.jpg' height='90'><img src='G_5.jpg' height='90'><img src='G_4.jpg' height='90'><img src='G_1.jpg' height='90'><br><br> Your final order is 3,5,2,4,1<br><br> Press Enter to continue.""]","enter","","Final Order: 3,5,2,4,1",""
"","","","","","html-keyboard-response","30","30866","0.0-30.0","6","1","2025-02-02 02:42:14","8171f7adbf662c8213b5fc4626e0469c","103.140.232.7","Mozilla/5.0 (Windows NT 10.0; Win64; x64) AppleWebKit/537.36 (KHTML, like Gecko) Chrome/132.0.0.0 Safari/537.36","WebKit","Chrome","132.0.0.0","Windows","10.0","https://app.prolific.com/","en,zh-CN;q=0.9,zh;q=0.8,ja;q=0.7,zh-TW;q=0.6","6500b3922f1493c553f2037f","679edb085803f58d6bbd31ca","0ncxm8n2h79","","null","<p> + <p/>","null","","Initial Order: 0,5,1,7,3,6,2,4",""
"","","","","","html-button-response","31","33370","0.0-31.0-0.0-0.0","6","1","2025-02-02 02:42:14","8171f7adbf662c8213b5fc4626e0469c","103.140.232.7","Mozilla/5.0 (Windows NT 10.0; Win64; x64) AppleWebKit/537.36 (KHTML, like Gecko) Chrome/132.0.0.0 Safari/537.36","WebKit","Chrome","132.0.0.0","Windows","10.0","https://app.prolific.com/","en,zh-CN;q=0.9,zh;q=0.8,ja;q=0.7,zh-TW;q=0.6","6500b3922f1493c553f2037f","679edb085803f58d6bbd31ca","0ncxm8n2h79","","2501","","8","","Test 3",""
"","","","","","html-keyboard-response","32","34045","0.0-32.0","6","1","2025-02-02 02:42:14","8171f7adbf662c8213b5fc4626e0469c","103.140.232.7","Mozilla/5.0 (Windows NT 10.0; Win64; x64) AppleWebKit/537.36 (KHTML, like Gecko) Chrome/132.0.0.0 Safari/537.36","WebKit","Chrome","132.0.0.0","Windows","10.0","https://app.prolific.com/","en,zh-CN;q=0.9,zh;q=0.8,ja;q=0.7,zh-TW;q=0.6","6500b3922f1493c553f2037f","679edb085803f58d6bbd31ca","0ncxm8n2h79","","674","[""You sorted incorrectly. <br><br> <img src='G_4.jpg' height='90'><img src='G_10.jpg' height='90'><img src='G_7.jpg' height='90'><img src='G_3.jpg' height='90'><img src='G_8.jpg' height='90'><img src='G_9.jpg' height='90'><img src='G_5.jpg' height='90'><img src='G_1.jpg' height='90'><br><br> Your final order is 1,6,2,8,4,7,3,5<br><br> Press Enter to continue.""]","enter","","Final Order: 1,6,2,8,4,7,3,5",""
"","","","","","html-keyboard-response","33","34551","0.0-33.0","6","1","2025-02-02 02:42:14","8171f7adbf662c8213b5fc4626e0469c","103.140.232.7","Mozilla/5.0 (Windows NT 10.0; Win64; x64) AppleWebKit/537.36 (KHTML, like Gecko) Chrome/132.0.0.0 Safari/537.36","WebKit","Chrome","132.0.0.0","Windows","10.0","https://app.prolific.com/","en,zh-CN;q=0.9,zh;q=0.8,ja;q=0.7,zh-TW;q=0.6","6500b3922f1493c553f2037f","679edb085803f58d6bbd31ca","0ncxm8n2h79","","null","<p> + <p/>","null","","Initial Order: 0,4,3,1,2",""
"","","","","","html-button-response","34","37472","0.0-34.0-0.0-0.0","6","1","2025-02-02 02:42:14","8171f7adbf662c8213b5fc4626e0469c","103.140.232.7","Mozilla/5.0 (Windows NT 10.0; Win64; x64) AppleWebKit/537.36 (KHTML, like Gecko) Chrome/132.0.0.0 Safari/537.36","WebKit","Chrome","132.0.0.0","Windows","10.0","https://app.prolific.com/","en,zh-CN;q=0.9,zh;q=0.8,ja;q=0.7,zh-TW;q=0.6","6500b3922f1493c553f2037f","679edb085803f58d6bbd31ca","0ncxm8n2h79","","2918","","5","","Test 4",""
"","","","","","html-keyboard-response","35","38231","0.0-35.0","6","1","2025-02-02 02:42:14","8171f7adbf662c8213b5fc4626e0469c","103.140.232.7","Mozilla/5.0 (Windows NT 10.0; Win64; x64) AppleWebKit/537.36 (KHTML, like Gecko) Chrome/132.0.0.0 Safari/537.36","WebKit","Chrome","132.0.0.0","Windows","10.0","https://app.prolific.com/","en,zh-CN;q=0.9,zh;q=0.8,ja;q=0.7,zh-TW;q=0.6","6500b3922f1493c553f2037f","679edb085803f58d6bbd31ca","0ncxm8n2h79","","755","[""You sorted incorrectly. <br><br> <img src='G_5.jpg' height='90'><img src='G_6.jpg' height='90'><img src='G_8.jpg' height='90'><img src='G_3.jpg' height='90'><img src='G_10.jpg' height='90'><br><br> Your final order is 1,5,4,2,3<br><br> Press Enter to continue.""]","enter","","Final Order: 1,5,4,2,3",""
"","","","","","html-keyboard-response","36","38745","0.0-36.0","6","1","2025-02-02 02:42:14","8171f7adbf662c8213b5fc4626e0469c","103.140.232.7","Mozilla/5.0 (Windows NT 10.0; Win64; x64) AppleWebKit/537.36 (KHTML, like Gecko) Chrome/132.0.0.0 Safari/537.36","WebKit","Chrome","132.0.0.0","Windows","10.0","https://app.prolific.com/","en,zh-CN;q=0.9,zh;q=0.8,ja;q=0.7,zh-TW;q=0.6","6500b3922f1493c553f2037f","679edb085803f58d6bbd31ca","0ncxm8n2h79","","null","<p> + <p/>","null","","Initial Order: 3,6,2,4,1,7,0,5",""
"","","","","","html-button-response","37","40039","0.0-37.0-0.0-0.0","6","1","2025-02-02 02:42:14","8171f7adbf662c8213b5fc4626e0469c","103.140.232.7","Mozilla/5.0 (Windows NT 10.0; Win64; x64) AppleWebKit/537.36 (KHTML, like Gecko) Chrome/132.0.0.0 Safari/537.36","WebKit","Chrome","132.0.0.0","Windows","10.0","https://app.prolific.com/","en,zh-CN;q=0.9,zh;q=0.8,ja;q=0.7,zh-TW;q=0.6","6500b3922f1493c553f2037f","679edb085803f58d6bbd31ca","0ncxm8n2h79","","1292","","8","","Test 5",""
"","","","","","html-keyboard-response","38","40542","0.0-38.0","6","1","2025-02-02 02:42:14","8171f7adbf662c8213b5fc4626e0469c","103.140.232.7","Mozilla/5.0 (Windows NT 10.0; Win64; x64) AppleWebKit/537.36 (KHTML, like Gecko) Chrome/132.0.0.0 Safari/537.36","WebKit","Chrome","132.0.0.0","Windows","10.0","https://app.prolific.com/","en,zh-CN;q=0.9,zh;q=0.8,ja;q=0.7,zh-TW;q=0.6","6500b3922f1493c553f2037f","679edb085803f58d6bbd31ca","0ncxm8n2h79","","501","[""You sorted incorrectly. <br><br> <img src='G_8.jpg' height='90'><img src='G_5.jpg' height='90'><img src='G_4.jpg' height='90'><img src='G_1.jpg' height='90'><img src='G_6.jpg' height='90'><img src='G_7.jpg' height='90'><img src='G_3.jpg' height='90'><img src='G_10.jpg' height='90'><br><br> Your final order is 4,7,3,5,2,8,1,6<br><br> Press Enter to continue.""]","enter","","Final Order: 4,7,3,5,2,8,1,6",""
"","","","","","instructions","39","68799","0.0-39.0","6","1","2025-02-02 02:42:14","8171f7adbf662c8213b5fc4626e0469c","103.140.232.7","Mozilla/5.0 (Windows NT 10.0; Win64; x64) AppleWebKit/537.36 (KHTML, like Gecko) Chrome/132.0.0.0 Safari/537.36","WebKit","Chrome","132.0.0.0","Windows","10.0","https://app.prolific.com/","en,zh-CN;q=0.9,zh;q=0.8,ja;q=0.7,zh-TW;q=0.6","6500b3922f1493c553f2037f","679edb085803f58d6bbd31ca","0ncxm8n2h79","[{""page_index"":0,""viewing_time"":1133},{""page_index"":1,""viewing_time"":1860},{""page_index"":0,""viewing_time"":2387},{""page_index"":1,""viewing_time"":8201},{""page_index"":2,""viewing_time"":8959},{""page_index"":3,""viewing_time"":5716}]","28255","","","","",""
"","","","","","survey-multi-choice","40","86313","0.0-40.0","6","1","2025-02-02 02:42:14","8171f7adbf662c8213b5fc4626e0469c","103.140.232.7","Mozilla/5.0 (Windows NT 10.0; Win64; x64) AppleWebKit/537.36 (KHTML, like Gecko) Chrome/132.0.0.0 Safari/537.36","WebKit","Chrome","132.0.0.0","Windows","10.0","https://app.prolific.com/","en,zh-CN;q=0.9,zh;q=0.8,ja;q=0.7,zh-TW;q=0.6","6500b3922f1493c553f2037f","679edb085803f58d6bbd31ca","0ncxm8n2h79","","17510","","{""Q0"":""5-item"",""Q1"":""least"",""Q2"":""5-item"",""Q3"":""least"",""Q4"":""5-item"",""Q5"":""least"",""Q6"":""5-item"",""Q7"":""least"",""Q8"":""5-item"",""Q9"":""least"",""Q10"":""5-item"",""Q11"":""least""}","[0,1,2,3,4,5,6,7,8,9,10,11]","",""
"","","","","","survey-text","41","90554","0.0-41.0","6","1","2025-02-02 02:42:14","8171f7adbf662c8213b5fc4626e0469c","103.140.232.7","Mozilla/5.0 (Windows NT 10.0; Win64; x64) AppleWebKit/537.36 (KHTML, like Gecko) Chrome/132.0.0.0 Safari/537.36","WebKit","Chrome","132.0.0.0","Windows","10.0","https://app.prolific.com/","en,zh-CN;q=0.9,zh;q=0.8,ja;q=0.7,zh-TW;q=0.6","6500b3922f1493c553f2037f","679edb085803f58d6bbd31ca","0ncxm8n2h79","","4207","","{""Q0"":""""}","","",""
"","","","","","instructions","42","106471","0.0-42.0","6","1","2025-02-02 02:42:14","8171f7adbf662c8213b5fc4626e0469c","103.140.232.7","Mozilla/5.0 (Windows NT 10.0; Win64; x64) AppleWebKit/537.36 (KHTML, like Gecko) Chrome/132.0.0.0 Safari/537.36","WebKit","Chrome","132.0.0.0","Windows","10.0","https://app.prolific.com/","en,zh-CN;q=0.9,zh;q=0.8,ja;q=0.7,zh-TW;q=0.6","6500b3922f1493c553f2037f","679edb085803f58d6bbd31ca","0ncxm8n2h79","[{""page_index"":0,""viewing_time"":15916}]","15916","","","","",""
"","","","","","html-button-response","43","106472","0.0-43.0","6","1","2025-02-02 02:42:14","8171f7adbf662c8213b5fc4626e0469c","103.140.232.7","Mozilla/5.0 (Windows NT 10.0; Win64; x64) AppleWebKit/537.36 (KHTML, like Gecko) Chrome/132.0.0.0 Safari/537.36","WebKit","Chrome","132.0.0.0","Windows","10.0","https://app.prolific.com/","en,zh-CN;q=0.9,zh;q=0.8,ja;q=0.7,zh-TW;q=0.6","6500b3922f1493c553f2037f","679edb085803f58d6bbd31ca","0ncxm8n2h79","","","","","","Note Comparison","[""Hi There, the least number of swaps has the tendency for a correct order."",""Continue to swap pieces until you have put them as far to the left as they will allow.""]"
"","","","","","html-button-response","43","110805","0.0-43.0","6","1","2025-02-02 02:42:14","8171f7adbf662c8213b5fc4626e0469c","103.140.232.7","Mozilla/5.0 (Windows NT 10.0; Win64; x64) AppleWebKit/537.36 (KHTML, like Gecko) Chrome/132.0.0.0 Safari/537.36","WebKit","Chrome","132.0.0.0","Windows","10.0","https://app.prolific.com/","en,zh-CN;q=0.9,zh;q=0.8,ja;q=0.7,zh-TW;q=0.6","6500b3922f1493c553f2037f","679edb085803f58d6bbd31ca","0ncxm8n2h79","","4332","<p style=""font-size: 24px;color: black;word-spacing: 10px"">Which note do you think is more helpful?  <br>A helpful note enables beginners to identify patterns of Omgne Sort quickly and improve their accuracy.</p>","0","","Note Comparison",""
"","","","","","html-button-response","44","110806","0.0-44.0","6","1","2025-02-02 02:42:14","8171f7adbf662c8213b5fc4626e0469c","103.140.232.7","Mozilla/5.0 (Windows NT 10.0; Win64; x64) AppleWebKit/537.36 (KHTML, like Gecko) Chrome/132.0.0.0 Safari/537.36","WebKit","Chrome","132.0.0.0","Windows","10.0","https://app.prolific.com/","en,zh-CN;q=0.9,zh;q=0.8,ja;q=0.7,zh-TW;q=0.6","6500b3922f1493c553f2037f","679edb085803f58d6bbd31ca","0ncxm8n2h79","","","","","","Note Comparison","[""Instead of using a compare the first block to the second block, then compare the first block to the third block, etc., the Omgne Sort is a more direct and less repetitive sorting system which doesn't repeat steps over and over. The Omgne Sort compares the first block to the second and then the second to the third. Only when there is an actual block swap do you then go backwards in your possible swapping of blocks, i.e. if the fourth and fifth blocks swap, then you go backwards trying to swap blocks until they don't swap anymore."",""Continue to swap pieces until you have put them as far to the left as they will allow.""]"
"","","","","","html-button-response","44","112134","0.0-44.0","6","1","2025-02-02 02:42:14","8171f7adbf662c8213b5fc4626e0469c","103.140.232.7","Mozilla/5.0 (Windows NT 10.0; Win64; x64) AppleWebKit/537.36 (KHTML, like Gecko) Chrome/132.0.0.0 Safari/537.36","WebKit","Chrome","132.0.0.0","Windows","10.0","https://app.prolific.com/","en,zh-CN;q=0.9,zh;q=0.8,ja;q=0.7,zh-TW;q=0.6","6500b3922f1493c553f2037f","679edb085803f58d6bbd31ca","0ncxm8n2h79","","1328","<p style=""font-size: 24px;color: black;word-spacing: 10px"">Which note do you think is more helpful?  <br>A helpful note enables beginners to identify patterns of Omgne Sort quickly and improve their accuracy.</p>","0","","Note Comparison",""
"","","","","","html-button-response","45","112135","0.0-45.0","6","1","2025-02-02 02:42:14","8171f7adbf662c8213b5fc4626e0469c","103.140.232.7","Mozilla/5.0 (Windows NT 10.0; Win64; x64) AppleWebKit/537.36 (KHTML, like Gecko) Chrome/132.0.0.0 Safari/537.36","WebKit","Chrome","132.0.0.0","Windows","10.0","https://app.prolific.com/","en,zh-CN;q=0.9,zh;q=0.8,ja;q=0.7,zh-TW;q=0.6","6500b3922f1493c553f2037f","679edb085803f58d6bbd31ca","0ncxm8n2h79","","","","","","Note Comparison","[""as you sort the gold blocks, compare them to the previous and next blocks to sort them."",""Step 1: Designate the leftmost object as Object A.<br><br>Step 2: Check if swapping Object A with its right neighbor is valid (based on a predefined rule, such as its weight).<br><br>If invalid, designate the right neighbor as the new Object A and repeat Step 2.<br><br>If valid, swap their positions, designate the swapped neighbor as Object B, note Object A’s position, and proceed to Step 3.<br><br>Step 3: Propagate Object B to the left, following the same logic as Step 2 but with two changes:<br><br>The goal direction is now left.<br><br>If a swap fails, assume Object B is sorted and return to Step 2 and remember Object A's position.""]"
"","","","","","html-button-response","45","113080","0.0-45.0","6","1","2025-02-02 02:42:14","8171f7adbf662c8213b5fc4626e0469c","103.140.232.7","Mozilla/5.0 (Windows NT 10.0; Win64; x64) AppleWebKit/537.36 (KHTML, like Gecko) Chrome/132.0.0.0 Safari/537.36","WebKit","Chrome","132.0.0.0","Windows","10.0","https://app.prolific.com/","en,zh-CN;q=0.9,zh;q=0.8,ja;q=0.7,zh-TW;q=0.6","6500b3922f1493c553f2037f","679edb085803f58d6bbd31ca","0ncxm8n2h79","","944","<p style=""font-size: 24px;color: black;word-spacing: 10px"">Which note do you think is more helpful?  <br>A helpful note enables beginners to identify patterns of Omgne Sort quickly and improve their accuracy.</p>","0","","Note Comparison",""
"","","","","","html-button-response","46","113084","0.0-46.0","6","1","2025-02-02 02:42:14","8171f7adbf662c8213b5fc4626e0469c","103.140.232.7","Mozilla/5.0 (Windows NT 10.0; Win64; x64) AppleWebKit/537.36 (KHTML, like Gecko) Chrome/132.0.0.0 Safari/537.36","WebKit","Chrome","132.0.0.0","Windows","10.0","https://app.prolific.com/","en,zh-CN;q=0.9,zh;q=0.8,ja;q=0.7,zh-TW;q=0.6","6500b3922f1493c553f2037f","679edb085803f58d6bbd31ca","0ncxm8n2h79","","","","","","Note Comparison","[""move the animals randomly until they dont switch positions"",""Continue to swap pieces until you have put them as far to the left as they will allow.""]"
"","","","","","html-button-response","46","114267","0.0-46.0","6","1","2025-02-02 02:42:14","8171f7adbf662c8213b5fc4626e0469c","103.140.232.7","Mozilla/5.0 (Windows NT 10.0; Win64; x64) AppleWebKit/537.36 (KHTML, like Gecko) Chrome/132.0.0.0 Safari/537.36","WebKit","Chrome","132.0.0.0","Windows","10.0","https://app.prolific.com/","en,zh-CN;q=0.9,zh;q=0.8,ja;q=0.7,zh-TW;q=0.6","6500b3922f1493c553f2037f","679edb085803f58d6bbd31ca","0ncxm8n2h79","","1181","<p style=""font-size: 24px;color: black;word-spacing: 10px"">Which note do you think is more helpful?  <br>A helpful note enables beginners to identify patterns of Omgne Sort quickly and improve their accuracy.</p>","0","","Note Comparison",""
"","","","","","html-button-response","47","114271","0.0-47.0","6","1","2025-02-02 02:42:14","8171f7adbf662c8213b5fc4626e0469c","103.140.232.7","Mozilla/5.0 (Windows NT 10.0; Win64; x64) AppleWebKit/537.36 (KHTML, like Gecko) Chrome/132.0.0.0 Safari/537.36","WebKit","Chrome","132.0.0.0","Windows","10.0","https://app.prolific.com/","en,zh-CN;q=0.9,zh;q=0.8,ja;q=0.7,zh-TW;q=0.6","6500b3922f1493c553f2037f","679edb085803f58d6bbd31ca","0ncxm8n2h79","","","","","","Note Comparison","[""Start left from right and if there is a change keep passing it to the left until it can not move anymore then move on to the next block "",""compare each with precious block after each swap""]"
"","","","","","html-button-response","47","118690","0.0-47.0","6","1","2025-02-02 02:42:14","8171f7adbf662c8213b5fc4626e0469c","103.140.232.7","Mozilla/5.0 (Windows NT 10.0; Win64; x64) AppleWebKit/537.36 (KHTML, like Gecko) Chrome/132.0.0.0 Safari/537.36","WebKit","Chrome","132.0.0.0","Windows","10.0","https://app.prolific.com/","en,zh-CN;q=0.9,zh;q=0.8,ja;q=0.7,zh-TW;q=0.6","6500b3922f1493c553f2037f","679edb085803f58d6bbd31ca","0ncxm8n2h79","","4418","<p style=""font-size: 24px;color: black;word-spacing: 10px"">Which note do you think is more helpful?  <br>A helpful note enables beginners to identify patterns of Omgne Sort quickly and improve their accuracy.</p>","0","","Note Comparison",""
"","","","","","html-button-response","48","118692","0.0-48.0","6","1","2025-02-02 02:42:14","8171f7adbf662c8213b5fc4626e0469c","103.140.232.7","Mozilla/5.0 (Windows NT 10.0; Win64; x64) AppleWebKit/537.36 (KHTML, like Gecko) Chrome/132.0.0.0 Safari/537.36","WebKit","Chrome","132.0.0.0","Windows","10.0","https://app.prolific.com/","en,zh-CN;q=0.9,zh;q=0.8,ja;q=0.7,zh-TW;q=0.6","6500b3922f1493c553f2037f","679edb085803f58d6bbd31ca","0ncxm8n2h79","","","","","","Note Comparison-Attention1","[""Please select this choice."",""Please do not select this choice.""]"
"","","","","","html-button-response","48","122063","0.0-48.0","6","1","2025-02-02 02:42:14","8171f7adbf662c8213b5fc4626e0469c","103.140.232.7","Mozilla/5.0 (Windows NT 10.0; Win64; x64) AppleWebKit/537.36 (KHTML, like Gecko) Chrome/132.0.0.0 Safari/537.36","WebKit","Chrome","132.0.0.0","Windows","10.0","https://app.prolific.com/","en,zh-CN;q=0.9,zh;q=0.8,ja;q=0.7,zh-TW;q=0.6","6500b3922f1493c553f2037f","679edb085803f58d6bbd31ca","0ncxm8n2h79","","3369","<p style=""font-size: 24px;color: black;word-spacing: 10px"">Which note do you think is more helpful?  <br>A helpful note enables beginners to identify patterns of Omgne Sort quickly and improve their accuracy.</p>","0","","Note Comparison-Attention1",""
"","","","","","html-button-response","49","122068","0.0-49.0","6","1","2025-02-02 02:42:14","8171f7adbf662c8213b5fc4626e0469c","103.140.232.7","Mozilla/5.0 (Windows NT 10.0; Win64; x64) AppleWebKit/537.36 (KHTML, like Gecko) Chrome/132.0.0.0 Safari/537.36","WebKit","Chrome","132.0.0.0","Windows","10.0","https://app.prolific.com/","en,zh-CN;q=0.9,zh;q=0.8,ja;q=0.7,zh-TW;q=0.6","6500b3922f1493c553f2037f","679edb085803f58d6bbd31ca","0ncxm8n2h79","","","","","","Note Comparison","[""as you sort the gold blocks, compare them to the previous and next blocks to sort them."",""Continue to swap pieces until you have put them as far to the left as they will allow.""]"
"","","","","","html-button-response","49","123160","0.0-49.0","6","1","2025-02-02 02:42:14","8171f7adbf662c8213b5fc4626e0469c","103.140.232.7","Mozilla/5.0 (Windows NT 10.0; Win64; x64) AppleWebKit/537.36 (KHTML, like Gecko) Chrome/132.0.0.0 Safari/537.36","WebKit","Chrome","132.0.0.0","Windows","10.0","https://app.prolific.com/","en,zh-CN;q=0.9,zh;q=0.8,ja;q=0.7,zh-TW;q=0.6","6500b3922f1493c553f2037f","679edb085803f58d6bbd31ca","0ncxm8n2h79","","1089","<p style=""font-size: 24px;color: black;word-spacing: 10px"">Which note do you think is more helpful?  <br>A helpful note enables beginners to identify patterns of Omgne Sort quickly and improve their accuracy.</p>","0","","Note Comparison",""
"","","","","","html-button-response","50","123164","0.0-50.0","6","1","2025-02-02 02:42:14","8171f7adbf662c8213b5fc4626e0469c","103.140.232.7","Mozilla/5.0 (Windows NT 10.0; Win64; x64) AppleWebKit/537.36 (KHTML, like Gecko) Chrome/132.0.0.0 Safari/537.36","WebKit","Chrome","132.0.0.0","Windows","10.0","https://app.prolific.com/","en,zh-CN;q=0.9,zh;q=0.8,ja;q=0.7,zh-TW;q=0.6","6500b3922f1493c553f2037f","679edb085803f58d6bbd31ca","0ncxm8n2h79","","","","","","Note Comparison","[""Instead of using a compare the first block to the second block, then compare the first block to the third block, etc., the Omgne Sort is a more direct and less repetitive sorting system which doesn't repeat steps over and over. The Omgne Sort compares the first block to the second and then the second to the third. Only when there is an actual block swap do you then go backwards in your possible swapping of blocks, i.e. if the fourth and fifth blocks swap, then you go backwards trying to swap blocks until they don't swap anymore."",""Check if it is moving left to right. They check blocks next to each other starting from the very left. If they don't swap go to the 2nd and 3rd blocks. If they do swap then check if there are any more swaps with previous blocks. Then go back to where you were.""]"
"","","","","","html-button-response","50","124129","0.0-50.0","6","1","2025-02-02 02:42:14","8171f7adbf662c8213b5fc4626e0469c","103.140.232.7","Mozilla/5.0 (Windows NT 10.0; Win64; x64) AppleWebKit/537.36 (KHTML, like Gecko) Chrome/132.0.0.0 Safari/537.36","WebKit","Chrome","132.0.0.0","Windows","10.0","https://app.prolific.com/","en,zh-CN;q=0.9,zh;q=0.8,ja;q=0.7,zh-TW;q=0.6","6500b3922f1493c553f2037f","679edb085803f58d6bbd31ca","0ncxm8n2h79","","963","<p style=""font-size: 24px;color: black;word-spacing: 10px"">Which note do you think is more helpful?  <br>A helpful note enables beginners to identify patterns of Omgne Sort quickly and improve their accuracy.</p>","0","","Note Comparison",""
"","","","","","html-button-response","51","124134","0.0-51.0","6","1","2025-02-02 02:42:14","8171f7adbf662c8213b5fc4626e0469c","103.140.232.7","Mozilla/5.0 (Windows NT 10.0; Win64; x64) AppleWebKit/537.36 (KHTML, like Gecko) Chrome/132.0.0.0 Safari/537.36","WebKit","Chrome","132.0.0.0","Windows","10.0","https://app.prolific.com/","en,zh-CN;q=0.9,zh;q=0.8,ja;q=0.7,zh-TW;q=0.6","6500b3922f1493c553f2037f","679edb085803f58d6bbd31ca","0ncxm8n2h79","","","","","","Note Comparison","[""Check if it is moving left to right. They check blocks next to each other starting from the very left. If they don't swap go to the 2nd and 3rd blocks. If they do swap then check if there are any more swaps with previous blocks. Then go back to where you were."",""Continue to swap pieces until you have put them as far to the left as they will allow.""]"
"","","","","","html-button-response","51","124922","0.0-51.0","6","1","2025-02-02 02:42:14","8171f7adbf662c8213b5fc4626e0469c","103.140.232.7","Mozilla/5.0 (Windows NT 10.0; Win64; x64) AppleWebKit/537.36 (KHTML, like Gecko) Chrome/132.0.0.0 Safari/537.36","WebKit","Chrome","132.0.0.0","Windows","10.0","https://app.prolific.com/","en,zh-CN;q=0.9,zh;q=0.8,ja;q=0.7,zh-TW;q=0.6","6500b3922f1493c553f2037f","679edb085803f58d6bbd31ca","0ncxm8n2h79","","787","<p style=""font-size: 24px;color: black;word-spacing: 10px"">Which note do you think is more helpful?  <br>A helpful note enables beginners to identify patterns of Omgne Sort quickly and improve their accuracy.</p>","0","","Note Comparison",""
"","","","","","html-button-response","52","124924","0.0-52.0","6","1","2025-02-02 02:42:14","8171f7adbf662c8213b5fc4626e0469c","103.140.232.7","Mozilla/5.0 (Windows NT 10.0; Win64; x64) AppleWebKit/537.36 (KHTML, like Gecko) Chrome/132.0.0.0 Safari/537.36","WebKit","Chrome","132.0.0.0","Windows","10.0","https://app.prolific.com/","en,zh-CN;q=0.9,zh;q=0.8,ja;q=0.7,zh-TW;q=0.6","6500b3922f1493c553f2037f","679edb085803f58d6bbd31ca","0ncxm8n2h79","","","","","","Note Comparison-Attention2","[""Please do not select this choice."",""Please select this choice.""]"
"","","","","","html-button-response","52","132536","0.0-52.0","6","1","2025-02-02 02:42:14","8171f7adbf662c8213b5fc4626e0469c","103.140.232.7","Mozilla/5.0 (Windows NT 10.0; Win64; x64) AppleWebKit/537.36 (KHTML, like Gecko) Chrome/132.0.0.0 Safari/537.36","WebKit","Chrome","132.0.0.0","Windows","10.0","https://app.prolific.com/","en,zh-CN;q=0.9,zh;q=0.8,ja;q=0.7,zh-TW;q=0.6","6500b3922f1493c553f2037f","679edb085803f58d6bbd31ca","0ncxm8n2h79","","7610","<p style=""font-size: 24px;color: black;word-spacing: 10px"">Which note do you think is more helpful?  <br>A helpful note enables beginners to identify patterns of Omgne Sort quickly and improve their accuracy.</p>","0","","Note Comparison-Attention2",""
"","","","","","html-button-response","53","132542","0.0-53.0","6","1","2025-02-02 02:42:14","8171f7adbf662c8213b5fc4626e0469c","103.140.232.7","Mozilla/5.0 (Windows NT 10.0; Win64; x64) AppleWebKit/537.36 (KHTML, like Gecko) Chrome/132.0.0.0 Safari/537.36","WebKit","Chrome","132.0.0.0","Windows","10.0","https://app.prolific.com/","en,zh-CN;q=0.9,zh;q=0.8,ja;q=0.7,zh-TW;q=0.6","6500b3922f1493c553f2037f","679edb085803f58d6bbd31ca","0ncxm8n2h79","","","","","","Note Comparison","[""Hi There, the least number of swaps has the tendency for a correct order."",""Continue to swap pieces until you have put them as far to the left as they will allow.""]"
"","","","","","html-button-response","53","134400","0.0-53.0","6","1","2025-02-02 02:42:14","8171f7adbf662c8213b5fc4626e0469c","103.140.232.7","Mozilla/5.0 (Windows NT 10.0; Win64; x64) AppleWebKit/537.36 (KHTML, like Gecko) Chrome/132.0.0.0 Safari/537.36","WebKit","Chrome","132.0.0.0","Windows","10.0","https://app.prolific.com/","en,zh-CN;q=0.9,zh;q=0.8,ja;q=0.7,zh-TW;q=0.6","6500b3922f1493c553f2037f","679edb085803f58d6bbd31ca","0ncxm8n2h79","","1856","<p style=""font-size: 24px;color: black;word-spacing: 10px"">Which note do you think is more helpful?  <br>A helpful note enables beginners to identify patterns of Omgne Sort quickly and improve their accuracy.</p>","0","","Note Comparison",""
"","","","","","html-button-response","54","134404","0.0-54.0","6","1","2025-02-02 02:42:14","8171f7adbf662c8213b5fc4626e0469c","103.140.232.7","Mozilla/5.0 (Windows NT 10.0; Win64; x64) AppleWebKit/537.36 (KHTML, like Gecko) Chrome/132.0.0.0 Safari/537.36","WebKit","Chrome","132.0.0.0","Windows","10.0","https://app.prolific.com/","en,zh-CN;q=0.9,zh;q=0.8,ja;q=0.7,zh-TW;q=0.6","6500b3922f1493c553f2037f","679edb085803f58d6bbd31ca","0ncxm8n2h79","","","","","","Note Comparison","[""compare each with precious block after each swap"",""Step 1: Designate the leftmost object as Object A.<br><br>Step 2: Check if swapping Object A with its right neighbor is valid (based on a predefined rule, such as its weight).<br><br>If invalid, designate the right neighbor as the new Object A and repeat Step 2.<br><br>If valid, swap their positions, designate the swapped neighbor as Object B, note Object A’s position, and proceed to Step 3.<br><br>Step 3: Propagate Object B to the left, following the same logic as Step 2 but with two changes:<br><br>The goal direction is now left.<br><br>If a swap fails, assume Object B is sorted and return to Step 2 and remember Object A's position.""]"
"","","","","","html-button-response","54","135329","0.0-54.0","6","1","2025-02-02 02:42:14","8171f7adbf662c8213b5fc4626e0469c","103.140.232.7","Mozilla/5.0 (Windows NT 10.0; Win64; x64) AppleWebKit/537.36 (KHTML, like Gecko) Chrome/132.0.0.0 Safari/537.36","WebKit","Chrome","132.0.0.0","Windows","10.0","https://app.prolific.com/","en,zh-CN;q=0.9,zh;q=0.8,ja;q=0.7,zh-TW;q=0.6","6500b3922f1493c553f2037f","679edb085803f58d6bbd31ca","0ncxm8n2h79","","924","<p style=""font-size: 24px;color: black;word-spacing: 10px"">Which note do you think is more helpful?  <br>A helpful note enables beginners to identify patterns of Omgne Sort quickly and improve their accuracy.</p>","0","","Note Comparison",""
"","","","","","html-button-response","55","135331","0.0-55.0","6","1","2025-02-02 02:42:14","8171f7adbf662c8213b5fc4626e0469c","103.140.232.7","Mozilla/5.0 (Windows NT 10.0; Win64; x64) AppleWebKit/537.36 (KHTML, like Gecko) Chrome/132.0.0.0 Safari/537.36","WebKit","Chrome","132.0.0.0","Windows","10.0","https://app.prolific.com/","en,zh-CN;q=0.9,zh;q=0.8,ja;q=0.7,zh-TW;q=0.6","6500b3922f1493c553f2037f","679edb085803f58d6bbd31ca","0ncxm8n2h79","","","","","","Note Comparison","[""Start by comparing the first two blocks. Then progress by comparing the blocks in the 2nd and 3rd position, and then the 3rd and 4th, and so on.<br><br>Whenever a swap happens, keep note of the \""leading\"" block that was placed ahead (to the right). If a swap does not happen, the block on the right that was compared becomes the new \""leading\"" block. The block that was just swapped behind the \""leading\"" block then needs to be compared to the block behind it. If a swap happens, again compare it to the block behind it. Repeat this until a swap does not happen or until it is placed in the first position. Then return to your \""leading\"" block and compare it to the block ahead of it."",""Continue to swap pieces until you have put them as far to the left as they will allow.""]"
"","","","","","html-button-response","55","136231","0.0-55.0","6","1","2025-02-02 02:42:14","8171f7adbf662c8213b5fc4626e0469c","103.140.232.7","Mozilla/5.0 (Windows NT 10.0; Win64; x64) AppleWebKit/537.36 (KHTML, like Gecko) Chrome/132.0.0.0 Safari/537.36","WebKit","Chrome","132.0.0.0","Windows","10.0","https://app.prolific.com/","en,zh-CN;q=0.9,zh;q=0.8,ja;q=0.7,zh-TW;q=0.6","6500b3922f1493c553f2037f","679edb085803f58d6bbd31ca","0ncxm8n2h79","","900","<p style=""font-size: 24px;color: black;word-spacing: 10px"">Which note do you think is more helpful?  <br>A helpful note enables beginners to identify patterns of Omgne Sort quickly and improve their accuracy.</p>","0","","Note Comparison",""
"","","","","","html-button-response","56","136233","0.0-56.0","6","1","2025-02-02 02:42:14","8171f7adbf662c8213b5fc4626e0469c","103.140.232.7","Mozilla/5.0 (Windows NT 10.0; Win64; x64) AppleWebKit/537.36 (KHTML, like Gecko) Chrome/132.0.0.0 Safari/537.36","WebKit","Chrome","132.0.0.0","Windows","10.0","https://app.prolific.com/","en,zh-CN;q=0.9,zh;q=0.8,ja;q=0.7,zh-TW;q=0.6","6500b3922f1493c553f2037f","679edb085803f58d6bbd31ca","0ncxm8n2h79","","","","","","Note Comparison","[""Check if it is moving left to right. They check blocks next to each other starting from the very left. If they don't swap go to the 2nd and 3rd blocks. If they do swap then check if there are any more swaps with previous blocks. Then go back to where you were."",""Hi Students. look out for the number of swaps in a sequence. If you swap in a rightly arranged sequence of 5 8 times, that's very out of order.""]"
"","","","","","html-button-response","56","137078","0.0-56.0","6","1","2025-02-02 02:42:14","8171f7adbf662c8213b5fc4626e0469c","103.140.232.7","Mozilla/5.0 (Windows NT 10.0; Win64; x64) AppleWebKit/537.36 (KHTML, like Gecko) Chrome/132.0.0.0 Safari/537.36","WebKit","Chrome","132.0.0.0","Windows","10.0","https://app.prolific.com/","en,zh-CN;q=0.9,zh;q=0.8,ja;q=0.7,zh-TW;q=0.6","6500b3922f1493c553f2037f","679edb085803f58d6bbd31ca","0ncxm8n2h79","","845","<p style=""font-size: 24px;color: black;word-spacing: 10px"">Which note do you think is more helpful?  <br>A helpful note enables beginners to identify patterns of Omgne Sort quickly and improve their accuracy.</p>","0","","Note Comparison",""
"","","","","","instructions","57","141341","0.0-57.0","6","1","2025-02-02 02:42:14","8171f7adbf662c8213b5fc4626e0469c","103.140.232.7","Mozilla/5.0 (Windows NT 10.0; Win64; x64) AppleWebKit/537.36 (KHTML, like Gecko) Chrome/132.0.0.0 Safari/537.36","WebKit","Chrome","132.0.0.0","Windows","10.0","https://app.prolific.com/","en,zh-CN;q=0.9,zh;q=0.8,ja;q=0.7,zh-TW;q=0.6","6500b3922f1493c553f2037f","679edb085803f58d6bbd31ca","0ncxm8n2h79","[{""page_index"":0,""viewing_time"":4260}]","4260","","","","",""