"success","timeout","failed_images","failed_audio","failed_video","trial_type","trial_index","time_elapsed","internal_node_id","run_id","condition","recorded_at","source_code_version","ip","user_agent","device","browser","browser_version","platform","platform_version","referer","accept_language","PROLIFIC_PID","STUDY_ID","SESSION_ID","view_history","rt","stimulus","response","phase","question_order","presented_choices"
"true","false","[]","[]","[]","preload","0","673","0.0-0.0","9","1","2025-02-02 02:56:10","bc01a2b6f61d06f6604adb8657495020","75.182.243.59","Mozilla/5.0 (Windows NT 10.0; Win64; x64) AppleWebKit/537.36 (KHTML, like Gecko) Chrome/132.0.0.0 Safari/537.36","WebKit","Chrome","132.0.0.0","Windows","10.0","https://app.prolific.com/","en-US,en;q=0.9,de-DE;q=0.8,de;q=0.7","663e3cee91031227e894384a","679edb085803f58d6bbd31ca","679edec050264907ab075f4a","","","","","","",""
"","","","","","instructions","1","4279","0.0-1.0","9","1","2025-02-02 02:56:10","bc01a2b6f61d06f6604adb8657495020","75.182.243.59","Mozilla/5.0 (Windows NT 10.0; Win64; x64) AppleWebKit/537.36 (KHTML, like Gecko) Chrome/132.0.0.0 Safari/537.36","WebKit","Chrome","132.0.0.0","Windows","10.0","https://app.prolific.com/","en-US,en;q=0.9,de-DE;q=0.8,de;q=0.7","663e3cee91031227e894384a","679edb085803f58d6bbd31ca","679edec050264907ab075f4a","[{""page_index"":0,""viewing_time"":3605}]","3605","","","","",""
"","","","","","html-keyboard-response","2","4794","0.0-2.0","9","1","2025-02-02 02:56:10","bc01a2b6f61d06f6604adb8657495020","75.182.243.59","Mozilla/5.0 (Windows NT 10.0; Win64; x64) AppleWebKit/537.36 (KHTML, like Gecko) Chrome/132.0.0.0 Safari/537.36","WebKit","Chrome","132.0.0.0","Windows","10.0","https://app.prolific.com/","en-US,en;q=0.9,de-DE;q=0.8,de;q=0.7","663e3cee91031227e894384a","679edb085803f58d6bbd31ca","679edec050264907ab075f4a","","null","<p> + <p/>","null","","",""
"","","","","","instructions","3","31992","0.0-3.0","9","1","2025-02-02 02:56:10","bc01a2b6f61d06f6604adb8657495020","75.182.243.59","Mozilla/5.0 (Windows NT 10.0; Win64; x64) AppleWebKit/537.36 (KHTML, like Gecko) Chrome/132.0.0.0 Safari/537.36","WebKit","Chrome","132.0.0.0","Windows","10.0","https://app.prolific.com/","en-US,en;q=0.9,de-DE;q=0.8,de;q=0.7","663e3cee91031227e894384a","679edb085803f58d6bbd31ca","679edec050264907ab075f4a","[{""page_index"":0,""viewing_time"":5212},{""page_index"":1,""viewing_time"":5678},{""page_index"":2,""viewing_time"":7997},{""page_index"":3,""viewing_time"":2218},{""page_index"":4,""viewing_time"":6092}]","27197","","","","",""
"","","","","","html-button-response","4","34288","0.0-4.0-0.0-0.0","9","1","2025-02-02 02:56:10","bc01a2b6f61d06f6604adb8657495020","75.182.243.59","Mozilla/5.0 (Windows NT 10.0; Win64; x64) AppleWebKit/537.36 (KHTML, like Gecko) Chrome/132.0.0.0 Safari/537.36","WebKit","Chrome","132.0.0.0","Windows","10.0","https://app.prolific.com/","en-US,en;q=0.9,de-DE;q=0.8,de;q=0.7","663e3cee91031227e894384a","679edb085803f58d6bbd31ca","679edec050264907ab075f4a","","2295","","0","Intro Trial","",""
"","","","","","html-button-response","5","34990","0.0-4.1-0.1-0.1","9","1","2025-02-02 02:56:10","bc01a2b6f61d06f6604adb8657495020","75.182.243.59","Mozilla/5.0 (Windows NT 10.0; Win64; x64) AppleWebKit/537.36 (KHTML, like Gecko) Chrome/132.0.0.0 Safari/537.36","WebKit","Chrome","132.0.0.0","Windows","10.0","https://app.prolific.com/","en-US,en;q=0.9,de-DE;q=0.8,de;q=0.7","663e3cee91031227e894384a","679edb085803f58d6bbd31ca","679edec050264907ab075f4a","","701","","2","Intro Trial","",""
"","","","","","html-button-response","6","42354","0.0-4.2-0.2-0.2","9","1","2025-02-02 02:56:10","bc01a2b6f61d06f6604adb8657495020","75.182.243.59","Mozilla/5.0 (Windows NT 10.0; Win64; x64) AppleWebKit/537.36 (KHTML, like Gecko) Chrome/132.0.0.0 Safari/537.36","WebKit","Chrome","132.0.0.0","Windows","10.0","https://app.prolific.com/","en-US,en;q=0.9,de-DE;q=0.8,de;q=0.7","663e3cee91031227e894384a","679edb085803f58d6bbd31ca","679edec050264907ab075f4a","","7362","","4","Intro Trial","",""
"","","","","","html-button-response","7","42767","0.0-4.3-0.3-0.3","9","1","2025-02-02 02:56:10","bc01a2b6f61d06f6604adb8657495020","75.182.243.59","Mozilla/5.0 (Windows NT 10.0; Win64; x64) AppleWebKit/537.36 (KHTML, like Gecko) Chrome/132.0.0.0 Safari/537.36","WebKit","Chrome","132.0.0.0","Windows","10.0","https://app.prolific.com/","en-US,en;q=0.9,de-DE;q=0.8,de;q=0.7","663e3cee91031227e894384a","679edb085803f58d6bbd31ca","679edec050264907ab075f4a","","412","","1","Intro Trial","",""
"","","","","","html-button-response","8","44606","0.0-4.4-0.4-0.4","9","1","2025-02-02 02:56:10","bc01a2b6f61d06f6604adb8657495020","75.182.243.59","Mozilla/5.0 (Windows NT 10.0; Win64; x64) AppleWebKit/537.36 (KHTML, like Gecko) Chrome/132.0.0.0 Safari/537.36","WebKit","Chrome","132.0.0.0","Windows","10.0","https://app.prolific.com/","en-US,en;q=0.9,de-DE;q=0.8,de;q=0.7","663e3cee91031227e894384a","679edb085803f58d6bbd31ca","679edec050264907ab075f4a","","1838","","2","Intro Trial","",""
"","","","","","html-button-response","9","45004","0.0-4.5-0.5-0.5","9","1","2025-02-02 02:56:10","bc01a2b6f61d06f6604adb8657495020","75.182.243.59","Mozilla/5.0 (Windows NT 10.0; Win64; x64) AppleWebKit/537.36 (KHTML, like Gecko) Chrome/132.0.0.0 Safari/537.36","WebKit","Chrome","132.0.0.0","Windows","10.0","https://app.prolific.com/","en-US,en;q=0.9,de-DE;q=0.8,de;q=0.7","663e3cee91031227e894384a","679edb085803f58d6bbd31ca","679edec050264907ab075f4a","","397","","4","Intro Trial","",""
"","","","","","html-button-response","10","46144","0.0-4.6-0.6-0.6","9","1","2025-02-02 02:56:10","bc01a2b6f61d06f6604adb8657495020","75.182.243.59","Mozilla/5.0 (Windows NT 10.0; Win64; x64) AppleWebKit/537.36 (KHTML, like Gecko) Chrome/132.0.0.0 Safari/537.36","WebKit","Chrome","132.0.0.0","Windows","10.0","https://app.prolific.com/","en-US,en;q=0.9,de-DE;q=0.8,de;q=0.7","663e3cee91031227e894384a","679edb085803f58d6bbd31ca","679edec050264907ab075f4a","","1138","","3","Intro Trial","",""
"","","","","","html-button-response","11","46428","0.0-4.7-0.7-0.7","9","1","2025-02-02 02:56:10","bc01a2b6f61d06f6604adb8657495020","75.182.243.59","Mozilla/5.0 (Windows NT 10.0; Win64; x64) AppleWebKit/537.36 (KHTML, like Gecko) Chrome/132.0.0.0 Safari/537.36","WebKit","Chrome","132.0.0.0","Windows","10.0","https://app.prolific.com/","en-US,en;q=0.9,de-DE;q=0.8,de;q=0.7","663e3cee91031227e894384a","679edb085803f58d6bbd31ca","679edec050264907ab075f4a","","283","","4","Intro Trial","",""
"","","","","","html-button-response","12","47496","0.0-4.8-0.8-0.8","9","1","2025-02-02 02:56:10","bc01a2b6f61d06f6604adb8657495020","75.182.243.59","Mozilla/5.0 (Windows NT 10.0; Win64; x64) AppleWebKit/537.36 (KHTML, like Gecko) Chrome/132.0.0.0 Safari/537.36","WebKit","Chrome","132.0.0.0","Windows","10.0","https://app.prolific.com/","en-US,en;q=0.9,de-DE;q=0.8,de;q=0.7","663e3cee91031227e894384a","679edb085803f58d6bbd31ca","679edec050264907ab075f4a","","1067","","3","Intro Trial","",""
"","","","","","html-button-response","13","47743","0.0-4.9-0.9-0.9","9","1","2025-02-02 02:56:10","bc01a2b6f61d06f6604adb8657495020","75.182.243.59","Mozilla/5.0 (Windows NT 10.0; Win64; x64) AppleWebKit/537.36 (KHTML, like Gecko) Chrome/132.0.0.0 Safari/537.36","WebKit","Chrome","132.0.0.0","Windows","10.0","https://app.prolific.com/","en-US,en;q=0.9,de-DE;q=0.8,de;q=0.7","663e3cee91031227e894384a","679edb085803f58d6bbd31ca","679edec050264907ab075f4a","","245","","4","Intro Trial","",""
"","","","","","html-button-response","14","48782","0.0-4.10-0.10-0.10","9","1","2025-02-02 02:56:10","bc01a2b6f61d06f6604adb8657495020","75.182.243.59","Mozilla/5.0 (Windows NT 10.0; Win64; x64) AppleWebKit/537.36 (KHTML, like Gecko) Chrome/132.0.0.0 Safari/537.36","WebKit","Chrome","132.0.0.0","Windows","10.0","https://app.prolific.com/","en-US,en;q=0.9,de-DE;q=0.8,de;q=0.7","663e3cee91031227e894384a","679edb085803f58d6bbd31ca","679edec050264907ab075f4a","","1038","","4","Intro Trial","",""
"","","","","","html-button-response","15","49049","0.0-4.11-0.11-0.11","9","1","2025-02-02 02:56:10","bc01a2b6f61d06f6604adb8657495020","75.182.243.59","Mozilla/5.0 (Windows NT 10.0; Win64; x64) AppleWebKit/537.36 (KHTML, like Gecko) Chrome/132.0.0.0 Safari/537.36","WebKit","Chrome","132.0.0.0","Windows","10.0","https://app.prolific.com/","en-US,en;q=0.9,de-DE;q=0.8,de;q=0.7","663e3cee91031227e894384a","679edb085803f58d6bbd31ca","679edec050264907ab075f4a","","266","","3","Intro Trial","",""
"","","","","","html-button-response","16","49444","0.0-4.12-0.12-0.12","9","1","2025-02-02 02:56:10","bc01a2b6f61d06f6604adb8657495020","75.182.243.59","Mozilla/5.0 (Windows NT 10.0; Win64; x64) AppleWebKit/537.36 (KHTML, like Gecko) Chrome/132.0.0.0 Safari/537.36","WebKit","Chrome","132.0.0.0","Windows","10.0","https://app.prolific.com/","en-US,en;q=0.9,de-DE;q=0.8,de;q=0.7","663e3cee91031227e894384a","679edb085803f58d6bbd31ca","679edec050264907ab075f4a","","394","","4","Intro Trial","",""
"","","","","","html-button-response","17","49876","0.0-4.13-0.13-0.13","9","1","2025-02-02 02:56:10","bc01a2b6f61d06f6604adb8657495020","75.182.243.59","Mozilla/5.0 (Windows NT 10.0; Win64; x64) AppleWebKit/537.36 (KHTML, like Gecko) Chrome/132.0.0.0 Safari/537.36","WebKit","Chrome","132.0.0.0","Windows","10.0","https://app.prolific.com/","en-US,en;q=0.9,de-DE;q=0.8,de;q=0.7","663e3cee91031227e894384a","679edb085803f58d6bbd31ca","679edec050264907ab075f4a","","431","","2","Intro Trial","",""
"","","","","","html-button-response","18","50276","0.0-4.14-0.14-0.14","9","1","2025-02-02 02:56:10","bc01a2b6f61d06f6604adb8657495020","75.182.243.59","Mozilla/5.0 (Windows NT 10.0; Win64; x64) AppleWebKit/537.36 (KHTML, like Gecko) Chrome/132.0.0.0 Safari/537.36","WebKit","Chrome","132.0.0.0","Windows","10.0","https://app.prolific.com/","en-US,en;q=0.9,de-DE;q=0.8,de;q=0.7","663e3cee91031227e894384a","679edb085803f58d6bbd31ca","679edec050264907ab075f4a","","399","","4","Intro Trial","",""
"","","","","","html-button-response","19","50675","0.0-4.15-0.15-0.15","9","1","2025-02-02 02:56:10","bc01a2b6f61d06f6604adb8657495020","75.182.243.59","Mozilla/5.0 (Windows NT 10.0; Win64; x64) AppleWebKit/537.36 (KHTML, like Gecko) Chrome/132.0.0.0 Safari/537.36","WebKit","Chrome","132.0.0.0","Windows","10.0","https://app.prolific.com/","en-US,en;q=0.9,de-DE;q=0.8,de;q=0.7","663e3cee91031227e894384a","679edb085803f58d6bbd31ca","679edec050264907ab075f4a","","398","","1","Intro Trial","",""
"","","","","","html-button-response","20","51080","0.0-4.16-0.16-0.16","9","1","2025-02-02 02:56:10","bc01a2b6f61d06f6604adb8657495020","75.182.243.59","Mozilla/5.0 (Windows NT 10.0; Win64; x64) AppleWebKit/537.36 (KHTML, like Gecko) Chrome/132.0.0.0 Safari/537.36","WebKit","Chrome","132.0.0.0","Windows","10.0","https://app.prolific.com/","en-US,en;q=0.9,de-DE;q=0.8,de;q=0.7","663e3cee91031227e894384a","679edb085803f58d6bbd31ca","679edec050264907ab075f4a","","404","","4","Intro Trial","",""
"","","","","","html-button-response","21","51506","0.0-4.17-0.17-0.17","9","1","2025-02-02 02:56:10","bc01a2b6f61d06f6604adb8657495020","75.182.243.59","Mozilla/5.0 (Windows NT 10.0; Win64; x64) AppleWebKit/537.36 (KHTML, like Gecko) Chrome/132.0.0.0 Safari/537.36","WebKit","Chrome","132.0.0.0","Windows","10.0","https://app.prolific.com/","en-US,en;q=0.9,de-DE;q=0.8,de;q=0.7","663e3cee91031227e894384a","679edb085803f58d6bbd31ca","679edec050264907ab075f4a","","424","","0","Intro Trial","",""
"","","","","","html-button-response","22","51858","0.0-4.18-0.18-0.18","9","1","2025-02-02 02:56:10","bc01a2b6f61d06f6604adb8657495020","75.182.243.59","Mozilla/5.0 (Windows NT 10.0; Win64; x64) AppleWebKit/537.36 (KHTML, like Gecko) Chrome/132.0.0.0 Safari/537.36","WebKit","Chrome","132.0.0.0","Windows","10.0","https://app.prolific.com/","en-US,en;q=0.9,de-DE;q=0.8,de;q=0.7","663e3cee91031227e894384a","679edb085803f58d6bbd31ca","679edec050264907ab075f4a","","351","","0","Intro Trial","",""
"","","","","","html-button-response","23","52138","0.0-4.19-0.19-0.19","9","1","2025-02-02 02:56:10","bc01a2b6f61d06f6604adb8657495020","75.182.243.59","Mozilla/5.0 (Windows NT 10.0; Win64; x64) AppleWebKit/537.36 (KHTML, like Gecko) Chrome/132.0.0.0 Safari/537.36","WebKit","Chrome","132.0.0.0","Windows","10.0","https://app.prolific.com/","en-US,en;q=0.9,de-DE;q=0.8,de;q=0.7","663e3cee91031227e894384a","679edb085803f58d6bbd31ca","679edec050264907ab075f4a","","279","","1","Intro Trial","",""
"","","","","","html-button-response","24","52942","0.0-4.20-0.20-0.20","9","1","2025-02-02 02:56:10","bc01a2b6f61d06f6604adb8657495020","75.182.243.59","Mozilla/5.0 (Windows NT 10.0; Win64; x64) AppleWebKit/537.36 (KHTML, like Gecko) Chrome/132.0.0.0 Safari/537.36","WebKit","Chrome","132.0.0.0","Windows","10.0","https://app.prolific.com/","en-US,en;q=0.9,de-DE;q=0.8,de;q=0.7","663e3cee91031227e894384a","679edb085803f58d6bbd31ca","679edec050264907ab075f4a","","803","","0","Intro Trial","",""
"","","","","","html-button-response","25","53233","0.0-4.21-0.21-0.21","9","1","2025-02-02 02:56:10","bc01a2b6f61d06f6604adb8657495020","75.182.243.59","Mozilla/5.0 (Windows NT 10.0; Win64; x64) AppleWebKit/537.36 (KHTML, like Gecko) Chrome/132.0.0.0 Safari/537.36","WebKit","Chrome","132.0.0.0","Windows","10.0","https://app.prolific.com/","en-US,en;q=0.9,de-DE;q=0.8,de;q=0.7","663e3cee91031227e894384a","679edb085803f58d6bbd31ca","679edec050264907ab075f4a","","290","","1","Intro Trial","",""
"","","","","","html-button-response","26","53937","0.0-4.22-0.22-0.22","9","1","2025-02-02 02:56:10","bc01a2b6f61d06f6604adb8657495020","75.182.243.59","Mozilla/5.0 (Windows NT 10.0; Win64; x64) AppleWebKit/537.36 (KHTML, like Gecko) Chrome/132.0.0.0 Safari/537.36","WebKit","Chrome","132.0.0.0","Windows","10.0","https://app.prolific.com/","en-US,en;q=0.9,de-DE;q=0.8,de;q=0.7","663e3cee91031227e894384a","679edb085803f58d6bbd31ca","679edec050264907ab075f4a","","703","","1","Intro Trial","",""
"","","","","","html-button-response","27","54152","0.0-4.23-0.23-0.23","9","1","2025-02-02 02:56:10","bc01a2b6f61d06f6604adb8657495020","75.182.243.59","Mozilla/5.0 (Windows NT 10.0; Win64; x64) AppleWebKit/537.36 (KHTML, like Gecko) Chrome/132.0.0.0 Safari/537.36","WebKit","Chrome","132.0.0.0","Windows","10.0","https://app.prolific.com/","en-US,en;q=0.9,de-DE;q=0.8,de;q=0.7","663e3cee91031227e894384a","679edb085803f58d6bbd31ca","679edec050264907ab075f4a","","214","","2","Intro Trial","",""
"","","","","","html-button-response","28","54793","0.0-4.24-0.24-0.24","9","1","2025-02-02 02:56:10","bc01a2b6f61d06f6604adb8657495020","75.182.243.59","Mozilla/5.0 (Windows NT 10.0; Win64; x64) AppleWebKit/537.36 (KHTML, like Gecko) Chrome/132.0.0.0 Safari/537.36","WebKit","Chrome","132.0.0.0","Windows","10.0","https://app.prolific.com/","en-US,en;q=0.9,de-DE;q=0.8,de;q=0.7","663e3cee91031227e894384a","679edb085803f58d6bbd31ca","679edec050264907ab075f4a","","640","","1","Intro Trial","",""
"","","","","","html-button-response","29","55052","0.0-4.25-0.25-0.25","9","1","2025-02-02 02:56:10","bc01a2b6f61d06f6604adb8657495020","75.182.243.59","Mozilla/5.0 (Windows NT 10.0; Win64; x64) AppleWebKit/537.36 (KHTML, like Gecko) Chrome/132.0.0.0 Safari/537.36","WebKit","Chrome","132.0.0.0","Windows","10.0","https://app.prolific.com/","en-US,en;q=0.9,de-DE;q=0.8,de;q=0.7","663e3cee91031227e894384a","679edb085803f58d6bbd31ca","679edec050264907ab075f4a","","258","","2","Intro Trial","",""
"","","","","","html-button-response","30","55791","0.0-4.26-0.26-0.26","9","1","2025-02-02 02:56:10","bc01a2b6f61d06f6604adb8657495020","75.182.243.59","Mozilla/5.0 (Windows NT 10.0; Win64; x64) AppleWebKit/537.36 (KHTML, like Gecko) Chrome/132.0.0.0 Safari/537.36","WebKit","Chrome","132.0.0.0","Windows","10.0","https://app.prolific.com/","en-US,en;q=0.9,de-DE;q=0.8,de;q=0.7","663e3cee91031227e894384a","679edb085803f58d6bbd31ca","679edec050264907ab075f4a","","737","","2","Intro Trial","",""
"","","","","","html-button-response","31","56003","0.0-4.27-0.27-0.27","9","1","2025-02-02 02:56:10","bc01a2b6f61d06f6604adb8657495020","75.182.243.59","Mozilla/5.0 (Windows NT 10.0; Win64; x64) AppleWebKit/537.36 (KHTML, like Gecko) Chrome/132.0.0.0 Safari/537.36","WebKit","Chrome","132.0.0.0","Windows","10.0","https://app.prolific.com/","en-US,en;q=0.9,de-DE;q=0.8,de;q=0.7","663e3cee91031227e894384a","679edb085803f58d6bbd31ca","679edec050264907ab075f4a","","211","","1","Intro Trial","",""
"","","","","","html-button-response","32","57308","0.0-4.28-0.28-0.28","9","1","2025-02-02 02:56:10","bc01a2b6f61d06f6604adb8657495020","75.182.243.59","Mozilla/5.0 (Windows NT 10.0; Win64; x64) AppleWebKit/537.36 (KHTML, like Gecko) Chrome/132.0.0.0 Safari/537.36","WebKit","Chrome","132.0.0.0","Windows","10.0","https://app.prolific.com/","en-US,en;q=0.9,de-DE;q=0.8,de;q=0.7","663e3cee91031227e894384a","679edb085803f58d6bbd31ca","679edec050264907ab075f4a","","1303","","2","Intro Trial","",""
"","","","","","html-button-response","33","57634","0.0-4.29-0.29-0.29","9","1","2025-02-02 02:56:10","bc01a2b6f61d06f6604adb8657495020","75.182.243.59","Mozilla/5.0 (Windows NT 10.0; Win64; x64) AppleWebKit/537.36 (KHTML, like Gecko) Chrome/132.0.0.0 Safari/537.36","WebKit","Chrome","132.0.0.0","Windows","10.0","https://app.prolific.com/","en-US,en;q=0.9,de-DE;q=0.8,de;q=0.7","663e3cee91031227e894384a","679edb085803f58d6bbd31ca","679edec050264907ab075f4a","","325","","3","Intro Trial","",""
"","","","","","html-button-response","34","58264","0.0-4.30-0.30-0.30","9","1","2025-02-02 02:56:10","bc01a2b6f61d06f6604adb8657495020","75.182.243.59","Mozilla/5.0 (Windows NT 10.0; Win64; x64) AppleWebKit/537.36 (KHTML, like Gecko) Chrome/132.0.0.0 Safari/537.36","WebKit","Chrome","132.0.0.0","Windows","10.0","https://app.prolific.com/","en-US,en;q=0.9,de-DE;q=0.8,de;q=0.7","663e3cee91031227e894384a","679edb085803f58d6bbd31ca","679edec050264907ab075f4a","","629","","2","Intro Trial","",""
"","","","","","html-button-response","35","58602","0.0-4.31-0.31-0.31","9","1","2025-02-02 02:56:10","bc01a2b6f61d06f6604adb8657495020","75.182.243.59","Mozilla/5.0 (Windows NT 10.0; Win64; x64) AppleWebKit/537.36 (KHTML, like Gecko) Chrome/132.0.0.0 Safari/537.36","WebKit","Chrome","132.0.0.0","Windows","10.0","https://app.prolific.com/","en-US,en;q=0.9,de-DE;q=0.8,de;q=0.7","663e3cee91031227e894384a","679edb085803f58d6bbd31ca","679edec050264907ab075f4a","","336","","4","Intro Trial","",""
"","","","","","html-button-response","36","59313","0.0-4.32-0.32-0.32","9","1","2025-02-02 02:56:10","bc01a2b6f61d06f6604adb8657495020","75.182.243.59","Mozilla/5.0 (Windows NT 10.0; Win64; x64) AppleWebKit/537.36 (KHTML, like Gecko) Chrome/132.0.0.0 Safari/537.36","WebKit","Chrome","132.0.0.0","Windows","10.0","https://app.prolific.com/","en-US,en;q=0.9,de-DE;q=0.8,de;q=0.7","663e3cee91031227e894384a","679edb085803f58d6bbd31ca","679edec050264907ab075f4a","","709","","2","Intro Trial","",""
"","","","","","html-button-response","37","59645","0.0-4.33-0.33-0.33","9","1","2025-02-02 02:56:10","bc01a2b6f61d06f6604adb8657495020","75.182.243.59","Mozilla/5.0 (Windows NT 10.0; Win64; x64) AppleWebKit/537.36 (KHTML, like Gecko) Chrome/132.0.0.0 Safari/537.36","WebKit","Chrome","132.0.0.0","Windows","10.0","https://app.prolific.com/","en-US,en;q=0.9,de-DE;q=0.8,de;q=0.7","663e3cee91031227e894384a","679edb085803f58d6bbd31ca","679edec050264907ab075f4a","","331","","1","Intro Trial","",""
"","","","","","html-button-response","38","59985","0.0-4.34-0.34-0.34","9","1","2025-02-02 02:56:10","bc01a2b6f61d06f6604adb8657495020","75.182.243.59","Mozilla/5.0 (Windows NT 10.0; Win64; x64) AppleWebKit/537.36 (KHTML, like Gecko) Chrome/132.0.0.0 Safari/537.36","WebKit","Chrome","132.0.0.0","Windows","10.0","https://app.prolific.com/","en-US,en;q=0.9,de-DE;q=0.8,de;q=0.7","663e3cee91031227e894384a","679edb085803f58d6bbd31ca","679edec050264907ab075f4a","","338","","1","Intro Trial","",""
"","","","","","html-button-response","39","60287","0.0-4.35-0.35-0.35","9","1","2025-02-02 02:56:10","bc01a2b6f61d06f6604adb8657495020","75.182.243.59","Mozilla/5.0 (Windows NT 10.0; Win64; x64) AppleWebKit/537.36 (KHTML, like Gecko) Chrome/132.0.0.0 Safari/537.36","WebKit","Chrome","132.0.0.0","Windows","10.0","https://app.prolific.com/","en-US,en;q=0.9,de-DE;q=0.8,de;q=0.7","663e3cee91031227e894384a","679edb085803f58d6bbd31ca","679edec050264907ab075f4a","","301","","0","Intro Trial","",""
"","","","","","html-button-response","40","69184","0.0-4.36-0.36-0.36","9","1","2025-02-02 02:56:10","bc01a2b6f61d06f6604adb8657495020","75.182.243.59","Mozilla/5.0 (Windows NT 10.0; Win64; x64) AppleWebKit/537.36 (KHTML, like Gecko) Chrome/132.0.0.0 Safari/537.36","WebKit","Chrome","132.0.0.0","Windows","10.0","https://app.prolific.com/","en-US,en;q=0.9,de-DE;q=0.8,de;q=0.7","663e3cee91031227e894384a","679edb085803f58d6bbd31ca","679edec050264907ab075f4a","","8895","","1","Intro Trial","",""
"","","","","","html-button-response","41","69488","0.0-4.37-0.37-0.37","9","1","2025-02-02 02:56:10","bc01a2b6f61d06f6604adb8657495020","75.182.243.59","Mozilla/5.0 (Windows NT 10.0; Win64; x64) AppleWebKit/537.36 (KHTML, like Gecko) Chrome/132.0.0.0 Safari/537.36","WebKit","Chrome","132.0.0.0","Windows","10.0","https://app.prolific.com/","en-US,en;q=0.9,de-DE;q=0.8,de;q=0.7","663e3cee91031227e894384a","679edb085803f58d6bbd31ca","679edec050264907ab075f4a","","303","","2","Intro Trial","",""
"","","","","","html-button-response","42","69959","0.0-4.38-0.38-0.38","9","1","2025-02-02 02:56:10","bc01a2b6f61d06f6604adb8657495020","75.182.243.59","Mozilla/5.0 (Windows NT 10.0; Win64; x64) AppleWebKit/537.36 (KHTML, like Gecko) Chrome/132.0.0.0 Safari/537.36","WebKit","Chrome","132.0.0.0","Windows","10.0","https://app.prolific.com/","en-US,en;q=0.9,de-DE;q=0.8,de;q=0.7","663e3cee91031227e894384a","679edb085803f58d6bbd31ca","679edec050264907ab075f4a","","470","","3","Intro Trial","",""
"","","","","","html-button-response","43","70305","0.0-4.39-0.39-0.39","9","1","2025-02-02 02:56:10","bc01a2b6f61d06f6604adb8657495020","75.182.243.59","Mozilla/5.0 (Windows NT 10.0; Win64; x64) AppleWebKit/537.36 (KHTML, like Gecko) Chrome/132.0.0.0 Safari/537.36","WebKit","Chrome","132.0.0.0","Windows","10.0","https://app.prolific.com/","en-US,en;q=0.9,de-DE;q=0.8,de;q=0.7","663e3cee91031227e894384a","679edb085803f58d6bbd31ca","679edec050264907ab075f4a","","345","","4","Intro Trial","",""
"","","","","","html-button-response","44","73584","0.0-4.40-0.40-0.40","9","1","2025-02-02 02:56:10","bc01a2b6f61d06f6604adb8657495020","75.182.243.59","Mozilla/5.0 (Windows NT 10.0; Win64; x64) AppleWebKit/537.36 (KHTML, like Gecko) Chrome/132.0.0.0 Safari/537.36","WebKit","Chrome","132.0.0.0","Windows","10.0","https://app.prolific.com/","en-US,en;q=0.9,de-DE;q=0.8,de;q=0.7","663e3cee91031227e894384a","679edb085803f58d6bbd31ca","679edec050264907ab075f4a","","3277","","1","Intro Trial","",""
"","","","","","html-button-response","45","73755","0.0-4.41-0.41-0.41","9","1","2025-02-02 02:56:10","bc01a2b6f61d06f6604adb8657495020","75.182.243.59","Mozilla/5.0 (Windows NT 10.0; Win64; x64) AppleWebKit/537.36 (KHTML, like Gecko) Chrome/132.0.0.0 Safari/537.36","WebKit","Chrome","132.0.0.0","Windows","10.0","https://app.prolific.com/","en-US,en;q=0.9,de-DE;q=0.8,de;q=0.7","663e3cee91031227e894384a","679edb085803f58d6bbd31ca","679edec050264907ab075f4a","","169","","1","Intro Trial","",""
"","","","","","html-button-response","46","74612","0.0-4.42-0.42-0.42","9","1","2025-02-02 02:56:10","bc01a2b6f61d06f6604adb8657495020","75.182.243.59","Mozilla/5.0 (Windows NT 10.0; Win64; x64) AppleWebKit/537.36 (KHTML, like Gecko) Chrome/132.0.0.0 Safari/537.36","WebKit","Chrome","132.0.0.0","Windows","10.0","https://app.prolific.com/","en-US,en;q=0.9,de-DE;q=0.8,de;q=0.7","663e3cee91031227e894384a","679edb085803f58d6bbd31ca","679edec050264907ab075f4a","","855","","1","Intro Trial","",""
"","","","","","html-button-response","47","74869","0.0-4.43-0.43-0.43","9","1","2025-02-02 02:56:10","bc01a2b6f61d06f6604adb8657495020","75.182.243.59","Mozilla/5.0 (Windows NT 10.0; Win64; x64) AppleWebKit/537.36 (KHTML, like Gecko) Chrome/132.0.0.0 Safari/537.36","WebKit","Chrome","132.0.0.0","Windows","10.0","https://app.prolific.com/","en-US,en;q=0.9,de-DE;q=0.8,de;q=0.7","663e3cee91031227e894384a","679edb085803f58d6bbd31ca","679edec050264907ab075f4a","","255","","2","Intro Trial","",""
"","","","","","html-button-response","48","75389","0.0-4.44-0.44-0.44","9","1","2025-02-02 02:56:10","bc01a2b6f61d06f6604adb8657495020","75.182.243.59","Mozilla/5.0 (Windows NT 10.0; Win64; x64) AppleWebKit/537.36 (KHTML, like Gecko) Chrome/132.0.0.0 Safari/537.36","WebKit","Chrome","132.0.0.0","Windows","10.0","https://app.prolific.com/","en-US,en;q=0.9,de-DE;q=0.8,de;q=0.7","663e3cee91031227e894384a","679edb085803f58d6bbd31ca","679edec050264907ab075f4a","","518","","2","Intro Trial","",""
"","","","","","html-button-response","49","75559","0.0-4.45-0.45-0.45","9","1","2025-02-02 02:56:10","bc01a2b6f61d06f6604adb8657495020","75.182.243.59","Mozilla/5.0 (Windows NT 10.0; Win64; x64) AppleWebKit/537.36 (KHTML, like Gecko) Chrome/132.0.0.0 Safari/537.36","WebKit","Chrome","132.0.0.0","Windows","10.0","https://app.prolific.com/","en-US,en;q=0.9,de-DE;q=0.8,de;q=0.7","663e3cee91031227e894384a","679edb085803f58d6bbd31ca","679edec050264907ab075f4a","","168","","2","Intro Trial","",""
"","","","","","html-button-response","50","76087","0.0-4.46-0.46-0.46","9","1","2025-02-02 02:56:10","bc01a2b6f61d06f6604adb8657495020","75.182.243.59","Mozilla/5.0 (Windows NT 10.0; Win64; x64) AppleWebKit/537.36 (KHTML, like Gecko) Chrome/132.0.0.0 Safari/537.36","WebKit","Chrome","132.0.0.0","Windows","10.0","https://app.prolific.com/","en-US,en;q=0.9,de-DE;q=0.8,de;q=0.7","663e3cee91031227e894384a","679edb085803f58d6bbd31ca","679edec050264907ab075f4a","","527","","2","Intro Trial","",""
"","","","","","html-button-response","51","76265","0.0-4.47-0.47-0.47","9","1","2025-02-02 02:56:10","bc01a2b6f61d06f6604adb8657495020","75.182.243.59","Mozilla/5.0 (Windows NT 10.0; Win64; x64) AppleWebKit/537.36 (KHTML, like Gecko) Chrome/132.0.0.0 Safari/537.36","WebKit","Chrome","132.0.0.0","Windows","10.0","https://app.prolific.com/","en-US,en;q=0.9,de-DE;q=0.8,de;q=0.7","663e3cee91031227e894384a","679edb085803f58d6bbd31ca","679edec050264907ab075f4a","","176","","2","Intro Trial","",""
"","","","","","html-button-response","52","76683","0.0-4.48-0.48-0.48","9","1","2025-02-02 02:56:10","bc01a2b6f61d06f6604adb8657495020","75.182.243.59","Mozilla/5.0 (Windows NT 10.0; Win64; x64) AppleWebKit/537.36 (KHTML, like Gecko) Chrome/132.0.0.0 Safari/537.36","WebKit","Chrome","132.0.0.0","Windows","10.0","https://app.prolific.com/","en-US,en;q=0.9,de-DE;q=0.8,de;q=0.7","663e3cee91031227e894384a","679edb085803f58d6bbd31ca","679edec050264907ab075f4a","","416","","1","Intro Trial","",""
"","","","","","html-button-response","53","76848","0.0-4.49-0.49-0.49","9","1","2025-02-02 02:56:10","bc01a2b6f61d06f6604adb8657495020","75.182.243.59","Mozilla/5.0 (Windows NT 10.0; Win64; x64) AppleWebKit/537.36 (KHTML, like Gecko) Chrome/132.0.0.0 Safari/537.36","WebKit","Chrome","132.0.0.0","Windows","10.0","https://app.prolific.com/","en-US,en;q=0.9,de-DE;q=0.8,de;q=0.7","663e3cee91031227e894384a","679edb085803f58d6bbd31ca","679edec050264907ab075f4a","","163","","1","Intro Trial","",""
"","","","","","html-button-response","54","77270","0.0-4.50-0.50-0.50","9","1","2025-02-02 02:56:10","bc01a2b6f61d06f6604adb8657495020","75.182.243.59","Mozilla/5.0 (Windows NT 10.0; Win64; x64) AppleWebKit/537.36 (KHTML, like Gecko) Chrome/132.0.0.0 Safari/537.36","WebKit","Chrome","132.0.0.0","Windows","10.0","https://app.prolific.com/","en-US,en;q=0.9,de-DE;q=0.8,de;q=0.7","663e3cee91031227e894384a","679edb085803f58d6bbd31ca","679edec050264907ab075f4a","","421","","1","Intro Trial","",""
"","","","","","html-button-response","55","77587","0.0-4.51-0.51-0.51","9","1","2025-02-02 02:56:10","bc01a2b6f61d06f6604adb8657495020","75.182.243.59","Mozilla/5.0 (Windows NT 10.0; Win64; x64) AppleWebKit/537.36 (KHTML, like Gecko) Chrome/132.0.0.0 Safari/537.36","WebKit","Chrome","132.0.0.0","Windows","10.0","https://app.prolific.com/","en-US,en;q=0.9,de-DE;q=0.8,de;q=0.7","663e3cee91031227e894384a","679edb085803f58d6bbd31ca","679edec050264907ab075f4a","","315","","0","Intro Trial","",""
"","","","","","html-button-response","56","77848","0.0-4.52-0.52-0.52","9","1","2025-02-02 02:56:10","bc01a2b6f61d06f6604adb8657495020","75.182.243.59","Mozilla/5.0 (Windows NT 10.0; Win64; x64) AppleWebKit/537.36 (KHTML, like Gecko) Chrome/132.0.0.0 Safari/537.36","WebKit","Chrome","132.0.0.0","Windows","10.0","https://app.prolific.com/","en-US,en;q=0.9,de-DE;q=0.8,de;q=0.7","663e3cee91031227e894384a","679edb085803f58d6bbd31ca","679edec050264907ab075f4a","","259","","0","Intro Trial","",""
"","","","","","html-button-response","57","78084","0.0-4.53-0.53-0.53","9","1","2025-02-02 02:56:10","bc01a2b6f61d06f6604adb8657495020","75.182.243.59","Mozilla/5.0 (Windows NT 10.0; Win64; x64) AppleWebKit/537.36 (KHTML, like Gecko) Chrome/132.0.0.0 Safari/537.36","WebKit","Chrome","132.0.0.0","Windows","10.0","https://app.prolific.com/","en-US,en;q=0.9,de-DE;q=0.8,de;q=0.7","663e3cee91031227e894384a","679edb085803f58d6bbd31ca","679edec050264907ab075f4a","","235","","1","Intro Trial","",""
"","","","","","html-button-response","58","78656","0.0-4.54-0.54-0.54","9","1","2025-02-02 02:56:10","bc01a2b6f61d06f6604adb8657495020","75.182.243.59","Mozilla/5.0 (Windows NT 10.0; Win64; x64) AppleWebKit/537.36 (KHTML, like Gecko) Chrome/132.0.0.0 Safari/537.36","WebKit","Chrome","132.0.0.0","Windows","10.0","https://app.prolific.com/","en-US,en;q=0.9,de-DE;q=0.8,de;q=0.7","663e3cee91031227e894384a","679edb085803f58d6bbd31ca","679edec050264907ab075f4a","","571","","5","Intro Trial","",""
"","","","","","html-keyboard-response","59","93363","0.0-5.0","9","1","2025-02-02 02:56:10","bc01a2b6f61d06f6604adb8657495020","75.182.243.59","Mozilla/5.0 (Windows NT 10.0; Win64; x64) AppleWebKit/537.36 (KHTML, like Gecko) Chrome/132.0.0.0 Safari/537.36","WebKit","Chrome","132.0.0.0","Windows","10.0","https://app.prolific.com/","en-US,en;q=0.9,de-DE;q=0.8,de;q=0.7","663e3cee91031227e894384a","679edb085803f58d6bbd31ca","679edec050264907ab075f4a","","14704","[""You sorted correctly by using the balance 23 times. <br><br> <img src='G_5.jpg' height='90'><img src='G_2.jpg' height='90'><img src='G_3.jpg' height='90'><img src='G_1.jpg' height='90'><img src='G_4.jpg' height='90'><br><br> Your final order is 1,2,3,4,5<br><br><br>Omgne Sort in this game will allow you to sort correctly by using the balance 8 times. Press Enter to learn it!""]","enter","","",""
"","","","","","html-keyboard-response","60","95567","0.0-6.0","9","1","2025-02-02 02:56:10","bc01a2b6f61d06f6604adb8657495020","75.182.243.59","Mozilla/5.0 (Windows NT 10.0; Win64; x64) AppleWebKit/537.36 (KHTML, like Gecko) Chrome/132.0.0.0 Safari/537.36","WebKit","Chrome","132.0.0.0","Windows","10.0","https://app.prolific.com/","en-US,en;q=0.9,de-DE;q=0.8,de;q=0.7","663e3cee91031227e894384a","679edb085803f58d6bbd31ca","679edec050264907ab075f4a","","2203","<p>Welcome to the learning phase! <br><br> You will learn by six examples. The following learning trials will not be used to calculate your performance. <br><br> Press Enter to continue.<p/>","enter","","",""
"","","","","","html-keyboard-response","61","97382","0.0-7.0","9","1","2025-02-02 02:56:10","bc01a2b6f61d06f6604adb8657495020","75.182.243.59","Mozilla/5.0 (Windows NT 10.0; Win64; x64) AppleWebKit/537.36 (KHTML, like Gecko) Chrome/132.0.0.0 Safari/537.36","WebKit","Chrome","132.0.0.0","Windows","10.0","https://app.prolific.com/","en-US,en;q=0.9,de-DE;q=0.8,de;q=0.7","663e3cee91031227e894384a","679edb085803f58d6bbd31ca","679edec050264907ab075f4a","","1813","[""Example 1<br><br>You will watch Omnge Sort in action. Try to identify any patterns in the comparisons made by this method. <br><br>Press Enter to continue.""]","enter","","",""
"","","","","","html-keyboard-response","62","97889","0.0-8.0","9","1","2025-02-02 02:56:10","bc01a2b6f61d06f6604adb8657495020","75.182.243.59","Mozilla/5.0 (Windows NT 10.0; Win64; x64) AppleWebKit/537.36 (KHTML, like Gecko) Chrome/132.0.0.0 Safari/537.36","WebKit","Chrome","132.0.0.0","Windows","10.0","https://app.prolific.com/","en-US,en;q=0.9,de-DE;q=0.8,de;q=0.7","663e3cee91031227e894384a","679edb085803f58d6bbd31ca","679edec050264907ab075f4a","","null","<img id='selected' src='G_9.jpg' height='90'> <img src='G_7.jpg' height='90'> <img src='G_3.jpg' height='90'> <img src='G_1.jpg' height='90'> <img src='G_5.jpg' height='90'>","null","Animation0","",""
"","","","","","html-keyboard-response","63","98391","0.0-9.0","9","1","2025-02-02 02:56:10","bc01a2b6f61d06f6604adb8657495020","75.182.243.59","Mozilla/5.0 (Windows NT 10.0; Win64; x64) AppleWebKit/537.36 (KHTML, like Gecko) Chrome/132.0.0.0 Safari/537.36","WebKit","Chrome","132.0.0.0","Windows","10.0","https://app.prolific.com/","en-US,en;q=0.9,de-DE;q=0.8,de;q=0.7","663e3cee91031227e894384a","679edb085803f58d6bbd31ca","679edec050264907ab075f4a","","null","<img id='selected' src='G_9.jpg' height='90'> <img id='selected' src='G_7.jpg' height='90'> <img src='G_3.jpg' height='90'> <img src='G_1.jpg' height='90'> <img src='G_5.jpg' height='90'>","null","Animation0","",""
"","","","","","html-keyboard-response","64","98907","0.0-10.0","9","1","2025-02-02 02:56:10","bc01a2b6f61d06f6604adb8657495020","75.182.243.59","Mozilla/5.0 (Windows NT 10.0; Win64; x64) AppleWebKit/537.36 (KHTML, like Gecko) Chrome/132.0.0.0 Safari/537.36","WebKit","Chrome","132.0.0.0","Windows","10.0","https://app.prolific.com/","en-US,en;q=0.9,de-DE;q=0.8,de;q=0.7","663e3cee91031227e894384a","679edb085803f58d6bbd31ca","679edec050264907ab075f4a","","null","<img id='swapped' src='G_7.jpg' height='90'> <img id='swapped' src='G_9.jpg' height='90'> <img src='G_3.jpg' height='90'> <img src='G_1.jpg' height='90'> <img src='G_5.jpg' height='90'>","null","Animation0","",""
"","","","","","html-keyboard-response","65","99211","0.0-11.0","9","1","2025-02-02 02:56:10","bc01a2b6f61d06f6604adb8657495020","75.182.243.59","Mozilla/5.0 (Windows NT 10.0; Win64; x64) AppleWebKit/537.36 (KHTML, like Gecko) Chrome/132.0.0.0 Safari/537.36","WebKit","Chrome","132.0.0.0","Windows","10.0","https://app.prolific.com/","en-US,en;q=0.9,de-DE;q=0.8,de;q=0.7","663e3cee91031227e894384a","679edb085803f58d6bbd31ca","679edec050264907ab075f4a","","null","<img  src='G_7.jpg' height='90'> <img  src='G_9.jpg' height='90'> <img src='G_3.jpg' height='90'> <img src='G_1.jpg' height='90'> <img src='G_5.jpg' height='90'>","null","Animation0","",""
"","","","","","html-keyboard-response","66","99725","0.0-12.0","9","1","2025-02-02 02:56:10","bc01a2b6f61d06f6604adb8657495020","75.182.243.59","Mozilla/5.0 (Windows NT 10.0; Win64; x64) AppleWebKit/537.36 (KHTML, like Gecko) Chrome/132.0.0.0 Safari/537.36","WebKit","Chrome","132.0.0.0","Windows","10.0","https://app.prolific.com/","en-US,en;q=0.9,de-DE;q=0.8,de;q=0.7","663e3cee91031227e894384a","679edb085803f58d6bbd31ca","679edec050264907ab075f4a","","null","<img  src='G_7.jpg' height='90'> <img id='selected'  src='G_9.jpg' height='90'> <img src='G_3.jpg' height='90'> <img src='G_1.jpg' height='90'> <img src='G_5.jpg' height='90'>","null","Animation0","",""
"","","","","","html-keyboard-response","67","100237","0.0-13.0","9","1","2025-02-02 02:56:10","bc01a2b6f61d06f6604adb8657495020","75.182.243.59","Mozilla/5.0 (Windows NT 10.0; Win64; x64) AppleWebKit/537.36 (KHTML, like Gecko) Chrome/132.0.0.0 Safari/537.36","WebKit","Chrome","132.0.0.0","Windows","10.0","https://app.prolific.com/","en-US,en;q=0.9,de-DE;q=0.8,de;q=0.7","663e3cee91031227e894384a","679edb085803f58d6bbd31ca","679edec050264907ab075f4a","","null","<img  src='G_7.jpg' height='90'> <img id='selected'  src='G_9.jpg' height='90'> <img id='selected' src='G_3.jpg' height='90'> <img src='G_1.jpg' height='90'> <img src='G_5.jpg' height='90'>","null","Animation0","",""
"","","","","","html-keyboard-response","68","100750","0.0-14.0","9","1","2025-02-02 02:56:10","bc01a2b6f61d06f6604adb8657495020","75.182.243.59","Mozilla/5.0 (Windows NT 10.0; Win64; x64) AppleWebKit/537.36 (KHTML, like Gecko) Chrome/132.0.0.0 Safari/537.36","WebKit","Chrome","132.0.0.0","Windows","10.0","https://app.prolific.com/","en-US,en;q=0.9,de-DE;q=0.8,de;q=0.7","663e3cee91031227e894384a","679edb085803f58d6bbd31ca","679edec050264907ab075f4a","","null","<img  src='G_7.jpg' height='90'> <img id='selected'  src='G_9.jpg' height='90'> <img id='selected' src='G_3.jpg' height='90'> <img src='G_1.jpg' height='90'> <img src='G_5.jpg' height='90'>","null","Animation0","",""
"","","","","","html-keyboard-response","69","101061","0.0-15.0","9","1","2025-02-02 02:56:10","bc01a2b6f61d06f6604adb8657495020","75.182.243.59","Mozilla/5.0 (Windows NT 10.0; Win64; x64) AppleWebKit/537.36 (KHTML, like Gecko) Chrome/132.0.0.0 Safari/537.36","WebKit","Chrome","132.0.0.0","Windows","10.0","https://app.prolific.com/","en-US,en;q=0.9,de-DE;q=0.8,de;q=0.7","663e3cee91031227e894384a","679edb085803f58d6bbd31ca","679edec050264907ab075f4a","","null","<img  src='G_7.jpg' height='90'> <img   src='G_9.jpg' height='90'> <img  src='G_3.jpg' height='90'> <img src='G_1.jpg' height='90'> <img src='G_5.jpg' height='90'>","null","Animation0","",""
"","","","","","html-keyboard-response","70","101571","0.0-16.0","9","1","2025-02-02 02:56:10","bc01a2b6f61d06f6604adb8657495020","75.182.243.59","Mozilla/5.0 (Windows NT 10.0; Win64; x64) AppleWebKit/537.36 (KHTML, like Gecko) Chrome/132.0.0.0 Safari/537.36","WebKit","Chrome","132.0.0.0","Windows","10.0","https://app.prolific.com/","en-US,en;q=0.9,de-DE;q=0.8,de;q=0.7","663e3cee91031227e894384a","679edb085803f58d6bbd31ca","679edec050264907ab075f4a","","null","<img  src='G_7.jpg' height='90'> <img   src='G_9.jpg' height='90'> <img id='selected'  src='G_3.jpg' height='90'> <img src='G_1.jpg' height='90'> <img src='G_5.jpg' height='90'>","null","Animation0","",""
"","","","","","html-keyboard-response","71","102082","0.0-17.0","9","1","2025-02-02 02:56:10","bc01a2b6f61d06f6604adb8657495020","75.182.243.59","Mozilla/5.0 (Windows NT 10.0; Win64; x64) AppleWebKit/537.36 (KHTML, like Gecko) Chrome/132.0.0.0 Safari/537.36","WebKit","Chrome","132.0.0.0","Windows","10.0","https://app.prolific.com/","en-US,en;q=0.9,de-DE;q=0.8,de;q=0.7","663e3cee91031227e894384a","679edb085803f58d6bbd31ca","679edec050264907ab075f4a","","null","<img  src='G_7.jpg' height='90'> <img   src='G_9.jpg' height='90'> <img id='selected'  src='G_3.jpg' height='90'> <img id='selected' src='G_1.jpg' height='90'> <img src='G_5.jpg' height='90'>","null","Animation0","",""
"","","","","","html-keyboard-response","72","102595","0.0-18.0","9","1","2025-02-02 02:56:10","bc01a2b6f61d06f6604adb8657495020","75.182.243.59","Mozilla/5.0 (Windows NT 10.0; Win64; x64) AppleWebKit/537.36 (KHTML, like Gecko) Chrome/132.0.0.0 Safari/537.36","WebKit","Chrome","132.0.0.0","Windows","10.0","https://app.prolific.com/","en-US,en;q=0.9,de-DE;q=0.8,de;q=0.7","663e3cee91031227e894384a","679edb085803f58d6bbd31ca","679edec050264907ab075f4a","","null","<img  src='G_7.jpg' height='90'> <img   src='G_9.jpg' height='90'> <img id='selected'  src='G_3.jpg' height='90'> <img id='selected' src='G_1.jpg' height='90'> <img src='G_5.jpg' height='90'>","null","Animation0","",""
"","","","","","html-keyboard-response","73","102906","0.0-19.0","9","1","2025-02-02 02:56:10","bc01a2b6f61d06f6604adb8657495020","75.182.243.59","Mozilla/5.0 (Windows NT 10.0; Win64; x64) AppleWebKit/537.36 (KHTML, like Gecko) Chrome/132.0.0.0 Safari/537.36","WebKit","Chrome","132.0.0.0","Windows","10.0","https://app.prolific.com/","en-US,en;q=0.9,de-DE;q=0.8,de;q=0.7","663e3cee91031227e894384a","679edb085803f58d6bbd31ca","679edec050264907ab075f4a","","null","<img  src='G_7.jpg' height='90'> <img   src='G_9.jpg' height='90'> <img   src='G_3.jpg' height='90'> <img  src='G_1.jpg' height='90'> <img src='G_5.jpg' height='90'>","null","Animation0","",""
"","","","","","html-keyboard-response","74","103417","0.0-20.0","9","1","2025-02-02 02:56:10","bc01a2b6f61d06f6604adb8657495020","75.182.243.59","Mozilla/5.0 (Windows NT 10.0; Win64; x64) AppleWebKit/537.36 (KHTML, like Gecko) Chrome/132.0.0.0 Safari/537.36","WebKit","Chrome","132.0.0.0","Windows","10.0","https://app.prolific.com/","en-US,en;q=0.9,de-DE;q=0.8,de;q=0.7","663e3cee91031227e894384a","679edb085803f58d6bbd31ca","679edec050264907ab075f4a","","null","<img  src='G_7.jpg' height='90'> <img   src='G_9.jpg' height='90'> <img   src='G_3.jpg' height='90'> <img id='selected'  src='G_1.jpg' height='90'> <img src='G_5.jpg' height='90'>","null","Animation0","",""
"","","","","","html-keyboard-response","75","103930","0.0-21.0","9","1","2025-02-02 02:56:10","bc01a2b6f61d06f6604adb8657495020","75.182.243.59","Mozilla/5.0 (Windows NT 10.0; Win64; x64) AppleWebKit/537.36 (KHTML, like Gecko) Chrome/132.0.0.0 Safari/537.36","WebKit","Chrome","132.0.0.0","Windows","10.0","https://app.prolific.com/","en-US,en;q=0.9,de-DE;q=0.8,de;q=0.7","663e3cee91031227e894384a","679edb085803f58d6bbd31ca","679edec050264907ab075f4a","","null","<img  src='G_7.jpg' height='90'> <img   src='G_9.jpg' height='90'> <img   src='G_3.jpg' height='90'> <img id='selected'  src='G_1.jpg' height='90'> <img id='selected' src='G_5.jpg' height='90'>","null","Animation0","",""
"","","","","","html-keyboard-response","76","104444","0.0-22.0","9","1","2025-02-02 02:56:10","bc01a2b6f61d06f6604adb8657495020","75.182.243.59","Mozilla/5.0 (Windows NT 10.0; Win64; x64) AppleWebKit/537.36 (KHTML, like Gecko) Chrome/132.0.0.0 Safari/537.36","WebKit","Chrome","132.0.0.0","Windows","10.0","https://app.prolific.com/","en-US,en;q=0.9,de-DE;q=0.8,de;q=0.7","663e3cee91031227e894384a","679edb085803f58d6bbd31ca","679edec050264907ab075f4a","","null","<img  src='G_7.jpg' height='90'> <img   src='G_9.jpg' height='90'> <img   src='G_3.jpg' height='90'> <img id='selected'  src='G_1.jpg' height='90'> <img id='selected' src='G_5.jpg' height='90'>","null","Animation0","",""
"","","","","","html-keyboard-response","77","104752","0.0-23.0","9","1","2025-02-02 02:56:10","bc01a2b6f61d06f6604adb8657495020","75.182.243.59","Mozilla/5.0 (Windows NT 10.0; Win64; x64) AppleWebKit/537.36 (KHTML, like Gecko) Chrome/132.0.0.0 Safari/537.36","WebKit","Chrome","132.0.0.0","Windows","10.0","https://app.prolific.com/","en-US,en;q=0.9,de-DE;q=0.8,de;q=0.7","663e3cee91031227e894384a","679edb085803f58d6bbd31ca","679edec050264907ab075f4a","","null","<img  src='G_7.jpg' height='90'> <img   src='G_9.jpg' height='90'> <img   src='G_3.jpg' height='90'> <img   src='G_1.jpg' height='90'> <img  src='G_5.jpg' height='90'>","null","Animation0","",""
"","","","","","html-keyboard-response","78","108894","0.0-24.0","9","1","2025-02-02 02:56:10","bc01a2b6f61d06f6604adb8657495020","75.182.243.59","Mozilla/5.0 (Windows NT 10.0; Win64; x64) AppleWebKit/537.36 (KHTML, like Gecko) Chrome/132.0.0.0 Safari/537.36","WebKit","Chrome","132.0.0.0","Windows","10.0","https://app.prolific.com/","en-US,en;q=0.9,de-DE;q=0.8,de;q=0.7","663e3cee91031227e894384a","679edb085803f58d6bbd31ca","679edec050264907ab075f4a","","4140","[""Did you notice any patterns? <br><br>Press Enter to watch that example again and follow the steps of Omgne Sort.""]","enter","","",""
"","","","","","html-button-response","79","109301","0.0-25.0","9","1","2025-02-02 02:56:10","bc01a2b6f61d06f6604adb8657495020","75.182.243.59","Mozilla/5.0 (Windows NT 10.0; Win64; x64) AppleWebKit/537.36 (KHTML, like Gecko) Chrome/132.0.0.0 Safari/537.36","WebKit","Chrome","132.0.0.0","Windows","10.0","https://app.prolific.com/","en-US,en;q=0.9,de-DE;q=0.8,de;q=0.7","663e3cee91031227e894384a","679edb085803f58d6bbd31ca","679edec050264907ab075f4a","","null","<img id='selected' src='G_9.jpg' height='90'> <img src='G_7.jpg' height='90'> <img src='G_3.jpg' height='90'> <img src='G_1.jpg' height='90'> <img src='G_5.jpg' height='90'>","null","Learning example 0","",""
"","","","","","html-button-response","80","109611","0.0-26.0","9","1","2025-02-02 02:56:10","bc01a2b6f61d06f6604adb8657495020","75.182.243.59","Mozilla/5.0 (Windows NT 10.0; Win64; x64) AppleWebKit/537.36 (KHTML, like Gecko) Chrome/132.0.0.0 Safari/537.36","WebKit","Chrome","132.0.0.0","Windows","10.0","https://app.prolific.com/","en-US,en;q=0.9,de-DE;q=0.8,de;q=0.7","663e3cee91031227e894384a","679edb085803f58d6bbd31ca","679edec050264907ab075f4a","","null","<img id='selected' src='G_9.jpg' height='90'> <img id='selected' src='G_7.jpg' height='90'> <img src='G_3.jpg' height='90'> <img src='G_1.jpg' height='90'> <img src='G_5.jpg' height='90'>","null","Learning example 0","",""
"","","","","","html-button-response","81","109918","0.0-27.0","9","1","2025-02-02 02:56:10","bc01a2b6f61d06f6604adb8657495020","75.182.243.59","Mozilla/5.0 (Windows NT 10.0; Win64; x64) AppleWebKit/537.36 (KHTML, like Gecko) Chrome/132.0.0.0 Safari/537.36","WebKit","Chrome","132.0.0.0","Windows","10.0","https://app.prolific.com/","en-US,en;q=0.9,de-DE;q=0.8,de;q=0.7","663e3cee91031227e894384a","679edb085803f58d6bbd31ca","679edec050264907ab075f4a","","null","<img id='swapped' src='G_7.jpg' height='90'> <img id='swapped' src='G_9.jpg' height='90'> <img src='G_3.jpg' height='90'> <img src='G_1.jpg' height='90'> <img src='G_5.jpg' height='90'>","null","Learning example 0","",""
"","","","","","html-button-response","82","125769","0.0-28.0-0.0-0.0","9","1","2025-02-02 02:56:10","bc01a2b6f61d06f6604adb8657495020","75.182.243.59","Mozilla/5.0 (Windows NT 10.0; Win64; x64) AppleWebKit/537.36 (KHTML, like Gecko) Chrome/132.0.0.0 Safari/537.36","WebKit","Chrome","132.0.0.0","Windows","10.0","https://app.prolific.com/","en-US,en;q=0.9,de-DE;q=0.8,de;q=0.7","663e3cee91031227e894384a","679edb085803f58d6bbd31ca","679edec050264907ab075f4a","","15847","<img id='swapped' src='G_7.jpg' height='90'> <img id='swapped' src='G_9.jpg' height='90'> <img src='G_3.jpg' height='90'> <img src='G_1.jpg' height='90'> <img src='G_5.jpg' height='90'>","1","Learning example 0","",""
"","","","","","html-button-response","83","126083","0.0-28.1-0.1-0.1","9","1","2025-02-02 02:56:10","bc01a2b6f61d06f6604adb8657495020","75.182.243.59","Mozilla/5.0 (Windows NT 10.0; Win64; x64) AppleWebKit/537.36 (KHTML, like Gecko) Chrome/132.0.0.0 Safari/537.36","WebKit","Chrome","132.0.0.0","Windows","10.0","https://app.prolific.com/","en-US,en;q=0.9,de-DE;q=0.8,de;q=0.7","663e3cee91031227e894384a","679edb085803f58d6bbd31ca","679edec050264907ab075f4a","","312","<img id='swapped' src='G_7.jpg' height='90'> <img id='swapped' src='G_9.jpg' height='90'> <img src='G_3.jpg' height='90'> <img src='G_1.jpg' height='90'> <img src='G_5.jpg' height='90'>","0","Learning example 0","",""
"","","","","","html-button-response","84","126286","0.0-29.0","9","1","2025-02-02 02:56:10","bc01a2b6f61d06f6604adb8657495020","75.182.243.59","Mozilla/5.0 (Windows NT 10.0; Win64; x64) AppleWebKit/537.36 (KHTML, like Gecko) Chrome/132.0.0.0 Safari/537.36","WebKit","Chrome","132.0.0.0","Windows","10.0","https://app.prolific.com/","en-US,en;q=0.9,de-DE;q=0.8,de;q=0.7","663e3cee91031227e894384a","679edb085803f58d6bbd31ca","679edec050264907ab075f4a","","null","<img  src='G_7.jpg' height='90'> <img  src='G_9.jpg' height='90'> <img src='G_3.jpg' height='90'> <img src='G_1.jpg' height='90'> <img src='G_5.jpg' height='90'>","null","Learning example 0","",""
"","","","","","html-button-response","85","126689","0.0-30.0","9","1","2025-02-02 02:56:10","bc01a2b6f61d06f6604adb8657495020","75.182.243.59","Mozilla/5.0 (Windows NT 10.0; Win64; x64) AppleWebKit/537.36 (KHTML, like Gecko) Chrome/132.0.0.0 Safari/537.36","WebKit","Chrome","132.0.0.0","Windows","10.0","https://app.prolific.com/","en-US,en;q=0.9,de-DE;q=0.8,de;q=0.7","663e3cee91031227e894384a","679edb085803f58d6bbd31ca","679edec050264907ab075f4a","","null","<img  src='G_7.jpg' height='90'> <img id='selected'  src='G_9.jpg' height='90'> <img src='G_3.jpg' height='90'> <img src='G_1.jpg' height='90'> <img src='G_5.jpg' height='90'>","null","Learning example 0","",""
"","","","","","html-button-response","86","126993","0.0-31.0","9","1","2025-02-02 02:56:10","bc01a2b6f61d06f6604adb8657495020","75.182.243.59","Mozilla/5.0 (Windows NT 10.0; Win64; x64) AppleWebKit/537.36 (KHTML, like Gecko) Chrome/132.0.0.0 Safari/537.36","WebKit","Chrome","132.0.0.0","Windows","10.0","https://app.prolific.com/","en-US,en;q=0.9,de-DE;q=0.8,de;q=0.7","663e3cee91031227e894384a","679edb085803f58d6bbd31ca","679edec050264907ab075f4a","","null","<img  src='G_7.jpg' height='90'> <img id='selected'  src='G_9.jpg' height='90'> <img id='selected' src='G_3.jpg' height='90'> <img src='G_1.jpg' height='90'> <img src='G_5.jpg' height='90'>","null","Learning example 0","",""
"","","","","","html-button-response","87","127304","0.0-32.0","9","1","2025-02-02 02:56:10","bc01a2b6f61d06f6604adb8657495020","75.182.243.59","Mozilla/5.0 (Windows NT 10.0; Win64; x64) AppleWebKit/537.36 (KHTML, like Gecko) Chrome/132.0.0.0 Safari/537.36","WebKit","Chrome","132.0.0.0","Windows","10.0","https://app.prolific.com/","en-US,en;q=0.9,de-DE;q=0.8,de;q=0.7","663e3cee91031227e894384a","679edb085803f58d6bbd31ca","679edec050264907ab075f4a","","null","<img  src='G_7.jpg' height='90'> <img id='selected'  src='G_9.jpg' height='90'> <img id='selected' src='G_3.jpg' height='90'> <img src='G_1.jpg' height='90'> <img src='G_5.jpg' height='90'>","null","Learning example 0","",""
"","","","","","html-button-response","88","129645","0.0-33.0-0.0-0.0","9","1","2025-02-02 02:56:10","bc01a2b6f61d06f6604adb8657495020","75.182.243.59","Mozilla/5.0 (Windows NT 10.0; Win64; x64) AppleWebKit/537.36 (KHTML, like Gecko) Chrome/132.0.0.0 Safari/537.36","WebKit","Chrome","132.0.0.0","Windows","10.0","https://app.prolific.com/","en-US,en;q=0.9,de-DE;q=0.8,de;q=0.7","663e3cee91031227e894384a","679edb085803f58d6bbd31ca","679edec050264907ab075f4a","","2338","<img  src='G_7.jpg' height='90'> <img id='selected'  src='G_9.jpg' height='90'> <img id='selected' src='G_3.jpg' height='90'> <img src='G_1.jpg' height='90'> <img src='G_5.jpg' height='90'>","1","Learning example 0","",""
"","","","","","html-button-response","89","130024","0.0-33.1-0.1-0.1","9","1","2025-02-02 02:56:10","bc01a2b6f61d06f6604adb8657495020","75.182.243.59","Mozilla/5.0 (Windows NT 10.0; Win64; x64) AppleWebKit/537.36 (KHTML, like Gecko) Chrome/132.0.0.0 Safari/537.36","WebKit","Chrome","132.0.0.0","Windows","10.0","https://app.prolific.com/","en-US,en;q=0.9,de-DE;q=0.8,de;q=0.7","663e3cee91031227e894384a","679edb085803f58d6bbd31ca","679edec050264907ab075f4a","","377","<img  src='G_7.jpg' height='90'> <img id='selected'  src='G_9.jpg' height='90'> <img id='selected' src='G_3.jpg' height='90'> <img src='G_1.jpg' height='90'> <img src='G_5.jpg' height='90'>","2","Learning example 0","",""
"","","","","","html-button-response","90","130236","0.0-34.0","9","1","2025-02-02 02:56:10","bc01a2b6f61d06f6604adb8657495020","75.182.243.59","Mozilla/5.0 (Windows NT 10.0; Win64; x64) AppleWebKit/537.36 (KHTML, like Gecko) Chrome/132.0.0.0 Safari/537.36","WebKit","Chrome","132.0.0.0","Windows","10.0","https://app.prolific.com/","en-US,en;q=0.9,de-DE;q=0.8,de;q=0.7","663e3cee91031227e894384a","679edb085803f58d6bbd31ca","679edec050264907ab075f4a","","null","<img  src='G_7.jpg' height='90'> <img   src='G_9.jpg' height='90'> <img  src='G_3.jpg' height='90'> <img src='G_1.jpg' height='90'> <img src='G_5.jpg' height='90'>","null","Learning example 0","",""
"","","","","","html-button-response","91","130639","0.0-35.0","9","1","2025-02-02 02:56:10","bc01a2b6f61d06f6604adb8657495020","75.182.243.59","Mozilla/5.0 (Windows NT 10.0; Win64; x64) AppleWebKit/537.36 (KHTML, like Gecko) Chrome/132.0.0.0 Safari/537.36","WebKit","Chrome","132.0.0.0","Windows","10.0","https://app.prolific.com/","en-US,en;q=0.9,de-DE;q=0.8,de;q=0.7","663e3cee91031227e894384a","679edb085803f58d6bbd31ca","679edec050264907ab075f4a","","null","<img  src='G_7.jpg' height='90'> <img   src='G_9.jpg' height='90'> <img id='selected'  src='G_3.jpg' height='90'> <img src='G_1.jpg' height='90'> <img src='G_5.jpg' height='90'>","null","Learning example 0","",""
"","","","","","html-button-response","92","130948","0.0-36.0","9","1","2025-02-02 02:56:10","bc01a2b6f61d06f6604adb8657495020","75.182.243.59","Mozilla/5.0 (Windows NT 10.0; Win64; x64) AppleWebKit/537.36 (KHTML, like Gecko) Chrome/132.0.0.0 Safari/537.36","WebKit","Chrome","132.0.0.0","Windows","10.0","https://app.prolific.com/","en-US,en;q=0.9,de-DE;q=0.8,de;q=0.7","663e3cee91031227e894384a","679edb085803f58d6bbd31ca","679edec050264907ab075f4a","","null","<img  src='G_7.jpg' height='90'> <img   src='G_9.jpg' height='90'> <img id='selected'  src='G_3.jpg' height='90'> <img id='selected' src='G_1.jpg' height='90'> <img src='G_5.jpg' height='90'>","null","Learning example 0","",""
"","","","","","html-button-response","93","131260","0.0-37.0","9","1","2025-02-02 02:56:10","bc01a2b6f61d06f6604adb8657495020","75.182.243.59","Mozilla/5.0 (Windows NT 10.0; Win64; x64) AppleWebKit/537.36 (KHTML, like Gecko) Chrome/132.0.0.0 Safari/537.36","WebKit","Chrome","132.0.0.0","Windows","10.0","https://app.prolific.com/","en-US,en;q=0.9,de-DE;q=0.8,de;q=0.7","663e3cee91031227e894384a","679edb085803f58d6bbd31ca","679edec050264907ab075f4a","","null","<img  src='G_7.jpg' height='90'> <img   src='G_9.jpg' height='90'> <img id='selected'  src='G_3.jpg' height='90'> <img id='selected' src='G_1.jpg' height='90'> <img src='G_5.jpg' height='90'>","null","Learning example 0","",""
"","","","","","html-button-response","94","131623","0.0-38.0-0.0-0.0","9","1","2025-02-02 02:56:10","bc01a2b6f61d06f6604adb8657495020","75.182.243.59","Mozilla/5.0 (Windows NT 10.0; Win64; x64) AppleWebKit/537.36 (KHTML, like Gecko) Chrome/132.0.0.0 Safari/537.36","WebKit","Chrome","132.0.0.0","Windows","10.0","https://app.prolific.com/","en-US,en;q=0.9,de-DE;q=0.8,de;q=0.7","663e3cee91031227e894384a","679edb085803f58d6bbd31ca","679edec050264907ab075f4a","","360","<img  src='G_7.jpg' height='90'> <img   src='G_9.jpg' height='90'> <img id='selected'  src='G_3.jpg' height='90'> <img id='selected' src='G_1.jpg' height='90'> <img src='G_5.jpg' height='90'>","2","Learning example 0","",""
"","","","","","html-button-response","95","131924","0.0-38.1-0.1-0.1","9","1","2025-02-02 02:56:10","bc01a2b6f61d06f6604adb8657495020","75.182.243.59","Mozilla/5.0 (Windows NT 10.0; Win64; x64) AppleWebKit/537.36 (KHTML, like Gecko) Chrome/132.0.0.0 Safari/537.36","WebKit","Chrome","132.0.0.0","Windows","10.0","https://app.prolific.com/","en-US,en;q=0.9,de-DE;q=0.8,de;q=0.7","663e3cee91031227e894384a","679edb085803f58d6bbd31ca","679edec050264907ab075f4a","","299","<img  src='G_7.jpg' height='90'> <img   src='G_9.jpg' height='90'> <img id='selected'  src='G_3.jpg' height='90'> <img id='selected' src='G_1.jpg' height='90'> <img src='G_5.jpg' height='90'>","3","Learning example 0","",""
"","","","","","html-button-response","96","132131","0.0-39.0","9","1","2025-02-02 02:56:10","bc01a2b6f61d06f6604adb8657495020","75.182.243.59","Mozilla/5.0 (Windows NT 10.0; Win64; x64) AppleWebKit/537.36 (KHTML, like Gecko) Chrome/132.0.0.0 Safari/537.36","WebKit","Chrome","132.0.0.0","Windows","10.0","https://app.prolific.com/","en-US,en;q=0.9,de-DE;q=0.8,de;q=0.7","663e3cee91031227e894384a","679edb085803f58d6bbd31ca","679edec050264907ab075f4a","","null","<img  src='G_7.jpg' height='90'> <img   src='G_9.jpg' height='90'> <img   src='G_3.jpg' height='90'> <img  src='G_1.jpg' height='90'> <img src='G_5.jpg' height='90'>","null","Learning example 0","",""
"","","","","","html-button-response","97","132549","0.0-40.0","9","1","2025-02-02 02:56:10","bc01a2b6f61d06f6604adb8657495020","75.182.243.59","Mozilla/5.0 (Windows NT 10.0; Win64; x64) AppleWebKit/537.36 (KHTML, like Gecko) Chrome/132.0.0.0 Safari/537.36","WebKit","Chrome","132.0.0.0","Windows","10.0","https://app.prolific.com/","en-US,en;q=0.9,de-DE;q=0.8,de;q=0.7","663e3cee91031227e894384a","679edb085803f58d6bbd31ca","679edec050264907ab075f4a","","null","<img  src='G_7.jpg' height='90'> <img   src='G_9.jpg' height='90'> <img   src='G_3.jpg' height='90'> <img id='selected'  src='G_1.jpg' height='90'> <img src='G_5.jpg' height='90'>","null","Learning example 0","",""
"","","","","","html-button-response","98","132856","0.0-41.0","9","1","2025-02-02 02:56:10","bc01a2b6f61d06f6604adb8657495020","75.182.243.59","Mozilla/5.0 (Windows NT 10.0; Win64; x64) AppleWebKit/537.36 (KHTML, like Gecko) Chrome/132.0.0.0 Safari/537.36","WebKit","Chrome","132.0.0.0","Windows","10.0","https://app.prolific.com/","en-US,en;q=0.9,de-DE;q=0.8,de;q=0.7","663e3cee91031227e894384a","679edb085803f58d6bbd31ca","679edec050264907ab075f4a","","null","<img  src='G_7.jpg' height='90'> <img   src='G_9.jpg' height='90'> <img   src='G_3.jpg' height='90'> <img id='selected'  src='G_1.jpg' height='90'> <img id='selected' src='G_5.jpg' height='90'>","null","Learning example 0","",""
"","","","","","html-button-response","99","133166","0.0-42.0","9","1","2025-02-02 02:56:10","bc01a2b6f61d06f6604adb8657495020","75.182.243.59","Mozilla/5.0 (Windows NT 10.0; Win64; x64) AppleWebKit/537.36 (KHTML, like Gecko) Chrome/132.0.0.0 Safari/537.36","WebKit","Chrome","132.0.0.0","Windows","10.0","https://app.prolific.com/","en-US,en;q=0.9,de-DE;q=0.8,de;q=0.7","663e3cee91031227e894384a","679edb085803f58d6bbd31ca","679edec050264907ab075f4a","","null","<img  src='G_7.jpg' height='90'> <img   src='G_9.jpg' height='90'> <img   src='G_3.jpg' height='90'> <img id='selected'  src='G_1.jpg' height='90'> <img id='selected' src='G_5.jpg' height='90'>","null","Learning example 0","",""
"","","","","","html-button-response","100","133481","0.0-43.0-0.0-0.0","9","1","2025-02-02 02:56:10","bc01a2b6f61d06f6604adb8657495020","75.182.243.59","Mozilla/5.0 (Windows NT 10.0; Win64; x64) AppleWebKit/537.36 (KHTML, like Gecko) Chrome/132.0.0.0 Safari/537.36","WebKit","Chrome","132.0.0.0","Windows","10.0","https://app.prolific.com/","en-US,en;q=0.9,de-DE;q=0.8,de;q=0.7","663e3cee91031227e894384a","679edb085803f58d6bbd31ca","679edec050264907ab075f4a","","311","<img  src='G_7.jpg' height='90'> <img   src='G_9.jpg' height='90'> <img   src='G_3.jpg' height='90'> <img id='selected'  src='G_1.jpg' height='90'> <img id='selected' src='G_5.jpg' height='90'>","4","Learning example 0","",""
"","","","","","html-button-response","101","135473","0.0-43.1-0.1-0.1","9","1","2025-02-02 02:56:10","bc01a2b6f61d06f6604adb8657495020","75.182.243.59","Mozilla/5.0 (Windows NT 10.0; Win64; x64) AppleWebKit/537.36 (KHTML, like Gecko) Chrome/132.0.0.0 Safari/537.36","WebKit","Chrome","132.0.0.0","Windows","10.0","https://app.prolific.com/","en-US,en;q=0.9,de-DE;q=0.8,de;q=0.7","663e3cee91031227e894384a","679edb085803f58d6bbd31ca","679edec050264907ab075f4a","","1990","<img  src='G_7.jpg' height='90'> <img   src='G_9.jpg' height='90'> <img   src='G_3.jpg' height='90'> <img id='selected'  src='G_1.jpg' height='90'> <img id='selected' src='G_5.jpg' height='90'>","3","Learning example 0","",""
"","","","","","html-button-response","102","135679","0.0-44.0","9","1","2025-02-02 02:56:10","bc01a2b6f61d06f6604adb8657495020","75.182.243.59","Mozilla/5.0 (Windows NT 10.0; Win64; x64) AppleWebKit/537.36 (KHTML, like Gecko) Chrome/132.0.0.0 Safari/537.36","WebKit","Chrome","132.0.0.0","Windows","10.0","https://app.prolific.com/","en-US,en;q=0.9,de-DE;q=0.8,de;q=0.7","663e3cee91031227e894384a","679edb085803f58d6bbd31ca","679edec050264907ab075f4a","","null","<img  src='G_7.jpg' height='90'> <img   src='G_9.jpg' height='90'> <img   src='G_3.jpg' height='90'> <img   src='G_1.jpg' height='90'> <img  src='G_5.jpg' height='90'>","null","Learning example 0","",""
"","","","","","html-keyboard-response","103","140243","0.0-45.0","9","1","2025-02-02 02:56:10","bc01a2b6f61d06f6604adb8657495020","75.182.243.59","Mozilla/5.0 (Windows NT 10.0; Win64; x64) AppleWebKit/537.36 (KHTML, like Gecko) Chrome/132.0.0.0 Safari/537.36","WebKit","Chrome","132.0.0.0","Windows","10.0","https://app.prolific.com/","en-US,en;q=0.9,de-DE;q=0.8,de;q=0.7","663e3cee91031227e894384a","679edb085803f58d6bbd31ca","679edec050264907ab075f4a","","4563","[""Final order was 1,2,3,4,5. The initial order was 2,1,3,4,5.<br>It took 1 swaps to sort it correctly with Omgne Sort. <br><br>Press Enter to continue.""]","enter","","",""
"","","","","","html-keyboard-response","104","141507","0.0-46.0","9","1","2025-02-02 02:56:10","bc01a2b6f61d06f6604adb8657495020","75.182.243.59","Mozilla/5.0 (Windows NT 10.0; Win64; x64) AppleWebKit/537.36 (KHTML, like Gecko) Chrome/132.0.0.0 Safari/537.36","WebKit","Chrome","132.0.0.0","Windows","10.0","https://app.prolific.com/","en-US,en;q=0.9,de-DE;q=0.8,de;q=0.7","663e3cee91031227e894384a","679edb085803f58d6bbd31ca","679edec050264907ab075f4a","","1262","[""Example 2<br><br>You will watch Omnge Sort in action. Try to identify any patterns in the comparisons made by this method. <br><br>Press Enter to continue.""]","enter","","",""
"","","","","","html-keyboard-response","105","142012","0.0-47.0","9","1","2025-02-02 02:56:10","bc01a2b6f61d06f6604adb8657495020","75.182.243.59","Mozilla/5.0 (Windows NT 10.0; Win64; x64) AppleWebKit/537.36 (KHTML, like Gecko) Chrome/132.0.0.0 Safari/537.36","WebKit","Chrome","132.0.0.0","Windows","10.0","https://app.prolific.com/","en-US,en;q=0.9,de-DE;q=0.8,de;q=0.7","663e3cee91031227e894384a","679edb085803f58d6bbd31ca","679edec050264907ab075f4a","","null","<img id='selected' src='G_5.jpg' height='90'> <img src='G_4.jpg' height='90'> <img src='G_2.jpg' height='90'> <img src='G_3.jpg' height='90'> <img src='G_8.jpg' height='90'> <img src='G_7.jpg' height='90'> <img src='G_6.jpg' height='90'> <img src='G_1.jpg' height='90'>","null","Animation1","",""
"","","","","","html-keyboard-response","106","142520","0.0-48.0","9","1","2025-02-02 02:56:10","bc01a2b6f61d06f6604adb8657495020","75.182.243.59","Mozilla/5.0 (Windows NT 10.0; Win64; x64) AppleWebKit/537.36 (KHTML, like Gecko) Chrome/132.0.0.0 Safari/537.36","WebKit","Chrome","132.0.0.0","Windows","10.0","https://app.prolific.com/","en-US,en;q=0.9,de-DE;q=0.8,de;q=0.7","663e3cee91031227e894384a","679edb085803f58d6bbd31ca","679edec050264907ab075f4a","","null","<img id='selected' src='G_5.jpg' height='90'> <img id='selected' src='G_4.jpg' height='90'> <img src='G_2.jpg' height='90'> <img src='G_3.jpg' height='90'> <img src='G_8.jpg' height='90'> <img src='G_7.jpg' height='90'> <img src='G_6.jpg' height='90'> <img src='G_1.jpg' height='90'>","null","Animation1","",""
"","","","","","html-keyboard-response","107","143024","0.0-49.0","9","1","2025-02-02 02:56:10","bc01a2b6f61d06f6604adb8657495020","75.182.243.59","Mozilla/5.0 (Windows NT 10.0; Win64; x64) AppleWebKit/537.36 (KHTML, like Gecko) Chrome/132.0.0.0 Safari/537.36","WebKit","Chrome","132.0.0.0","Windows","10.0","https://app.prolific.com/","en-US,en;q=0.9,de-DE;q=0.8,de;q=0.7","663e3cee91031227e894384a","679edb085803f58d6bbd31ca","679edec050264907ab075f4a","","null","<img id='selected' src='G_5.jpg' height='90'> <img id='selected' src='G_4.jpg' height='90'> <img src='G_2.jpg' height='90'> <img src='G_3.jpg' height='90'> <img src='G_8.jpg' height='90'> <img src='G_7.jpg' height='90'> <img src='G_6.jpg' height='90'> <img src='G_1.jpg' height='90'>","null","Animation1","",""
"","","","","","html-keyboard-response","108","143334","0.0-50.0","9","1","2025-02-02 02:56:10","bc01a2b6f61d06f6604adb8657495020","75.182.243.59","Mozilla/5.0 (Windows NT 10.0; Win64; x64) AppleWebKit/537.36 (KHTML, like Gecko) Chrome/132.0.0.0 Safari/537.36","WebKit","Chrome","132.0.0.0","Windows","10.0","https://app.prolific.com/","en-US,en;q=0.9,de-DE;q=0.8,de;q=0.7","663e3cee91031227e894384a","679edb085803f58d6bbd31ca","679edec050264907ab075f4a","","null","<img  src='G_5.jpg' height='90'> <img  src='G_4.jpg' height='90'> <img src='G_2.jpg' height='90'> <img src='G_3.jpg' height='90'> <img src='G_8.jpg' height='90'> <img src='G_7.jpg' height='90'> <img src='G_6.jpg' height='90'> <img src='G_1.jpg' height='90'>","null","Animation1","",""
"","","","","","html-keyboard-response","109","143846","0.0-51.0","9","1","2025-02-02 02:56:10","bc01a2b6f61d06f6604adb8657495020","75.182.243.59","Mozilla/5.0 (Windows NT 10.0; Win64; x64) AppleWebKit/537.36 (KHTML, like Gecko) Chrome/132.0.0.0 Safari/537.36","WebKit","Chrome","132.0.0.0","Windows","10.0","https://app.prolific.com/","en-US,en;q=0.9,de-DE;q=0.8,de;q=0.7","663e3cee91031227e894384a","679edb085803f58d6bbd31ca","679edec050264907ab075f4a","","null","<img  src='G_5.jpg' height='90'> <img id='selected'  src='G_4.jpg' height='90'> <img src='G_2.jpg' height='90'> <img src='G_3.jpg' height='90'> <img src='G_8.jpg' height='90'> <img src='G_7.jpg' height='90'> <img src='G_6.jpg' height='90'> <img src='G_1.jpg' height='90'>","null","Animation1","",""
"","","","","","html-keyboard-response","110","144356","0.0-52.0","9","1","2025-02-02 02:56:10","bc01a2b6f61d06f6604adb8657495020","75.182.243.59","Mozilla/5.0 (Windows NT 10.0; Win64; x64) AppleWebKit/537.36 (KHTML, like Gecko) Chrome/132.0.0.0 Safari/537.36","WebKit","Chrome","132.0.0.0","Windows","10.0","https://app.prolific.com/","en-US,en;q=0.9,de-DE;q=0.8,de;q=0.7","663e3cee91031227e894384a","679edb085803f58d6bbd31ca","679edec050264907ab075f4a","","null","<img  src='G_5.jpg' height='90'> <img id='selected'  src='G_4.jpg' height='90'> <img id='selected' src='G_2.jpg' height='90'> <img src='G_3.jpg' height='90'> <img src='G_8.jpg' height='90'> <img src='G_7.jpg' height='90'> <img src='G_6.jpg' height='90'> <img src='G_1.jpg' height='90'>","null","Animation1","",""
"","","","","","html-keyboard-response","111","144866","0.0-53.0","9","1","2025-02-02 02:56:10","bc01a2b6f61d06f6604adb8657495020","75.182.243.59","Mozilla/5.0 (Windows NT 10.0; Win64; x64) AppleWebKit/537.36 (KHTML, like Gecko) Chrome/132.0.0.0 Safari/537.36","WebKit","Chrome","132.0.0.0","Windows","10.0","https://app.prolific.com/","en-US,en;q=0.9,de-DE;q=0.8,de;q=0.7","663e3cee91031227e894384a","679edb085803f58d6bbd31ca","679edec050264907ab075f4a","","null","<img  src='G_5.jpg' height='90'> <img id='swapped' src='G_2.jpg' height='90'> <img id='swapped'  src='G_4.jpg' height='90'> <img src='G_3.jpg' height='90'> <img src='G_8.jpg' height='90'> <img src='G_7.jpg' height='90'> <img src='G_6.jpg' height='90'> <img src='G_1.jpg' height='90'>","null","Animation1","",""
"","","","","","html-keyboard-response","112","145179","0.0-54.0","9","1","2025-02-02 02:56:10","bc01a2b6f61d06f6604adb8657495020","75.182.243.59","Mozilla/5.0 (Windows NT 10.0; Win64; x64) AppleWebKit/537.36 (KHTML, like Gecko) Chrome/132.0.0.0 Safari/537.36","WebKit","Chrome","132.0.0.0","Windows","10.0","https://app.prolific.com/","en-US,en;q=0.9,de-DE;q=0.8,de;q=0.7","663e3cee91031227e894384a","679edb085803f58d6bbd31ca","679edec050264907ab075f4a","","null","<img  src='G_5.jpg' height='90'> <img  src='G_2.jpg' height='90'> <img   src='G_4.jpg' height='90'> <img src='G_3.jpg' height='90'> <img src='G_8.jpg' height='90'> <img src='G_7.jpg' height='90'> <img src='G_6.jpg' height='90'> <img src='G_1.jpg' height='90'>","null","Animation1","",""
"","","","","","html-keyboard-response","113","145692","0.0-55.0","9","1","2025-02-02 02:56:10","bc01a2b6f61d06f6604adb8657495020","75.182.243.59","Mozilla/5.0 (Windows NT 10.0; Win64; x64) AppleWebKit/537.36 (KHTML, like Gecko) Chrome/132.0.0.0 Safari/537.36","WebKit","Chrome","132.0.0.0","Windows","10.0","https://app.prolific.com/","en-US,en;q=0.9,de-DE;q=0.8,de;q=0.7","663e3cee91031227e894384a","679edb085803f58d6bbd31ca","679edec050264907ab075f4a","","null","<img id='selected'  src='G_5.jpg' height='90'> <img  src='G_2.jpg' height='90'> <img   src='G_4.jpg' height='90'> <img src='G_3.jpg' height='90'> <img src='G_8.jpg' height='90'> <img src='G_7.jpg' height='90'> <img src='G_6.jpg' height='90'> <img src='G_1.jpg' height='90'>","null","Animation1","",""
"","","","","","html-keyboard-response","114","146203","0.0-56.0","9","1","2025-02-02 02:56:10","bc01a2b6f61d06f6604adb8657495020","75.182.243.59","Mozilla/5.0 (Windows NT 10.0; Win64; x64) AppleWebKit/537.36 (KHTML, like Gecko) Chrome/132.0.0.0 Safari/537.36","WebKit","Chrome","132.0.0.0","Windows","10.0","https://app.prolific.com/","en-US,en;q=0.9,de-DE;q=0.8,de;q=0.7","663e3cee91031227e894384a","679edb085803f58d6bbd31ca","679edec050264907ab075f4a","","null","<img id='selected'  src='G_5.jpg' height='90'> <img id='selected'  src='G_2.jpg' height='90'> <img   src='G_4.jpg' height='90'> <img src='G_3.jpg' height='90'> <img src='G_8.jpg' height='90'> <img src='G_7.jpg' height='90'> <img src='G_6.jpg' height='90'> <img src='G_1.jpg' height='90'>","null","Animation1","",""
"","","","","","html-keyboard-response","115","146713","0.0-57.0","9","1","2025-02-02 02:56:10","bc01a2b6f61d06f6604adb8657495020","75.182.243.59","Mozilla/5.0 (Windows NT 10.0; Win64; x64) AppleWebKit/537.36 (KHTML, like Gecko) Chrome/132.0.0.0 Safari/537.36","WebKit","Chrome","132.0.0.0","Windows","10.0","https://app.prolific.com/","en-US,en;q=0.9,de-DE;q=0.8,de;q=0.7","663e3cee91031227e894384a","679edb085803f58d6bbd31ca","679edec050264907ab075f4a","","null","<img id='swapped'  src='G_2.jpg' height='90'> <img id='swapped'  src='G_5.jpg' height='90'> <img   src='G_4.jpg' height='90'> <img src='G_3.jpg' height='90'> <img src='G_8.jpg' height='90'> <img src='G_7.jpg' height='90'> <img src='G_6.jpg' height='90'> <img src='G_1.jpg' height='90'>","null","Animation1","",""
"","","","","","html-keyboard-response","116","147023","0.0-58.0","9","1","2025-02-02 02:56:10","bc01a2b6f61d06f6604adb8657495020","75.182.243.59","Mozilla/5.0 (Windows NT 10.0; Win64; x64) AppleWebKit/537.36 (KHTML, like Gecko) Chrome/132.0.0.0 Safari/537.36","WebKit","Chrome","132.0.0.0","Windows","10.0","https://app.prolific.com/","en-US,en;q=0.9,de-DE;q=0.8,de;q=0.7","663e3cee91031227e894384a","679edb085803f58d6bbd31ca","679edec050264907ab075f4a","","null","<img   src='G_2.jpg' height='90'> <img   src='G_5.jpg' height='90'> <img   src='G_4.jpg' height='90'> <img src='G_3.jpg' height='90'> <img src='G_8.jpg' height='90'> <img src='G_7.jpg' height='90'> <img src='G_6.jpg' height='90'> <img src='G_1.jpg' height='90'>","null","Animation1","",""
"","","","","","html-keyboard-response","117","147536","0.0-59.0","9","1","2025-02-02 02:56:10","bc01a2b6f61d06f6604adb8657495020","75.182.243.59","Mozilla/5.0 (Windows NT 10.0; Win64; x64) AppleWebKit/537.36 (KHTML, like Gecko) Chrome/132.0.0.0 Safari/537.36","WebKit","Chrome","132.0.0.0","Windows","10.0","https://app.prolific.com/","en-US,en;q=0.9,de-DE;q=0.8,de;q=0.7","663e3cee91031227e894384a","679edb085803f58d6bbd31ca","679edec050264907ab075f4a","","null","<img   src='G_2.jpg' height='90'> <img   src='G_5.jpg' height='90'> <img id='selected'   src='G_4.jpg' height='90'> <img src='G_3.jpg' height='90'> <img src='G_8.jpg' height='90'> <img src='G_7.jpg' height='90'> <img src='G_6.jpg' height='90'> <img src='G_1.jpg' height='90'>","null","Animation1","",""
"","","","","","html-keyboard-response","118","148049","0.0-60.0","9","1","2025-02-02 02:56:10","bc01a2b6f61d06f6604adb8657495020","75.182.243.59","Mozilla/5.0 (Windows NT 10.0; Win64; x64) AppleWebKit/537.36 (KHTML, like Gecko) Chrome/132.0.0.0 Safari/537.36","WebKit","Chrome","132.0.0.0","Windows","10.0","https://app.prolific.com/","en-US,en;q=0.9,de-DE;q=0.8,de;q=0.7","663e3cee91031227e894384a","679edb085803f58d6bbd31ca","679edec050264907ab075f4a","","null","<img   src='G_2.jpg' height='90'> <img   src='G_5.jpg' height='90'> <img id='selected'   src='G_4.jpg' height='90'> <img id='selected' src='G_3.jpg' height='90'> <img src='G_8.jpg' height='90'> <img src='G_7.jpg' height='90'> <img src='G_6.jpg' height='90'> <img src='G_1.jpg' height='90'>","null","Animation1","",""
"","","","","","html-keyboard-response","119","148563","0.0-61.0","9","1","2025-02-02 02:56:10","bc01a2b6f61d06f6604adb8657495020","75.182.243.59","Mozilla/5.0 (Windows NT 10.0; Win64; x64) AppleWebKit/537.36 (KHTML, like Gecko) Chrome/132.0.0.0 Safari/537.36","WebKit","Chrome","132.0.0.0","Windows","10.0","https://app.prolific.com/","en-US,en;q=0.9,de-DE;q=0.8,de;q=0.7","663e3cee91031227e894384a","679edb085803f58d6bbd31ca","679edec050264907ab075f4a","","null","<img   src='G_2.jpg' height='90'> <img   src='G_5.jpg' height='90'> <img id='swapped' src='G_3.jpg' height='90'> <img id='swapped'   src='G_4.jpg' height='90'> <img src='G_8.jpg' height='90'> <img src='G_7.jpg' height='90'> <img src='G_6.jpg' height='90'> <img src='G_1.jpg' height='90'>","null","Animation1","",""
"","","","","","html-keyboard-response","120","148872","0.0-62.0","9","1","2025-02-02 02:56:10","bc01a2b6f61d06f6604adb8657495020","75.182.243.59","Mozilla/5.0 (Windows NT 10.0; Win64; x64) AppleWebKit/537.36 (KHTML, like Gecko) Chrome/132.0.0.0 Safari/537.36","WebKit","Chrome","132.0.0.0","Windows","10.0","https://app.prolific.com/","en-US,en;q=0.9,de-DE;q=0.8,de;q=0.7","663e3cee91031227e894384a","679edb085803f58d6bbd31ca","679edec050264907ab075f4a","","null","<img   src='G_2.jpg' height='90'> <img   src='G_5.jpg' height='90'> <img  src='G_3.jpg' height='90'> <img    src='G_4.jpg' height='90'> <img src='G_8.jpg' height='90'> <img src='G_7.jpg' height='90'> <img src='G_6.jpg' height='90'> <img src='G_1.jpg' height='90'>","null","Animation1","",""
"","","","","","html-keyboard-response","121","149384","0.0-63.0","9","1","2025-02-02 02:56:10","bc01a2b6f61d06f6604adb8657495020","75.182.243.59","Mozilla/5.0 (Windows NT 10.0; Win64; x64) AppleWebKit/537.36 (KHTML, like Gecko) Chrome/132.0.0.0 Safari/537.36","WebKit","Chrome","132.0.0.0","Windows","10.0","https://app.prolific.com/","en-US,en;q=0.9,de-DE;q=0.8,de;q=0.7","663e3cee91031227e894384a","679edb085803f58d6bbd31ca","679edec050264907ab075f4a","","null","<img   src='G_2.jpg' height='90'> <img id='selected'   src='G_5.jpg' height='90'> <img  src='G_3.jpg' height='90'> <img    src='G_4.jpg' height='90'> <img src='G_8.jpg' height='90'> <img src='G_7.jpg' height='90'> <img src='G_6.jpg' height='90'> <img src='G_1.jpg' height='90'>","null","Animation1","",""
"","","","","","html-keyboard-response","122","149892","0.0-64.0","9","1","2025-02-02 02:56:10","bc01a2b6f61d06f6604adb8657495020","75.182.243.59","Mozilla/5.0 (Windows NT 10.0; Win64; x64) AppleWebKit/537.36 (KHTML, like Gecko) Chrome/132.0.0.0 Safari/537.36","WebKit","Chrome","132.0.0.0","Windows","10.0","https://app.prolific.com/","en-US,en;q=0.9,de-DE;q=0.8,de;q=0.7","663e3cee91031227e894384a","679edb085803f58d6bbd31ca","679edec050264907ab075f4a","","null","<img   src='G_2.jpg' height='90'> <img id='selected'   src='G_5.jpg' height='90'> <img id='selected'  src='G_3.jpg' height='90'> <img    src='G_4.jpg' height='90'> <img src='G_8.jpg' height='90'> <img src='G_7.jpg' height='90'> <img src='G_6.jpg' height='90'> <img src='G_1.jpg' height='90'>","null","Animation1","",""
"","","","","","html-keyboard-response","123","150405","0.0-65.0","9","1","2025-02-02 02:56:10","bc01a2b6f61d06f6604adb8657495020","75.182.243.59","Mozilla/5.0 (Windows NT 10.0; Win64; x64) AppleWebKit/537.36 (KHTML, like Gecko) Chrome/132.0.0.0 Safari/537.36","WebKit","Chrome","132.0.0.0","Windows","10.0","https://app.prolific.com/","en-US,en;q=0.9,de-DE;q=0.8,de;q=0.7","663e3cee91031227e894384a","679edb085803f58d6bbd31ca","679edec050264907ab075f4a","","null","<img   src='G_2.jpg' height='90'> <img id='swapped'  src='G_3.jpg' height='90'> <img id='swapped'   src='G_5.jpg' height='90'> <img    src='G_4.jpg' height='90'> <img src='G_8.jpg' height='90'> <img src='G_7.jpg' height='90'> <img src='G_6.jpg' height='90'> <img src='G_1.jpg' height='90'>","null","Animation1","",""
"","","","","","html-keyboard-response","124","150717","0.0-66.0","9","1","2025-02-02 02:56:10","bc01a2b6f61d06f6604adb8657495020","75.182.243.59","Mozilla/5.0 (Windows NT 10.0; Win64; x64) AppleWebKit/537.36 (KHTML, like Gecko) Chrome/132.0.0.0 Safari/537.36","WebKit","Chrome","132.0.0.0","Windows","10.0","https://app.prolific.com/","en-US,en;q=0.9,de-DE;q=0.8,de;q=0.7","663e3cee91031227e894384a","679edb085803f58d6bbd31ca","679edec050264907ab075f4a","","null","<img   src='G_2.jpg' height='90'> <img   src='G_3.jpg' height='90'> <img    src='G_5.jpg' height='90'> <img    src='G_4.jpg' height='90'> <img src='G_8.jpg' height='90'> <img src='G_7.jpg' height='90'> <img src='G_6.jpg' height='90'> <img src='G_1.jpg' height='90'>","null","Animation1","",""
"","","","","","html-keyboard-response","125","151229","0.0-67.0","9","1","2025-02-02 02:56:10","bc01a2b6f61d06f6604adb8657495020","75.182.243.59","Mozilla/5.0 (Windows NT 10.0; Win64; x64) AppleWebKit/537.36 (KHTML, like Gecko) Chrome/132.0.0.0 Safari/537.36","WebKit","Chrome","132.0.0.0","Windows","10.0","https://app.prolific.com/","en-US,en;q=0.9,de-DE;q=0.8,de;q=0.7","663e3cee91031227e894384a","679edb085803f58d6bbd31ca","679edec050264907ab075f4a","","null","<img id='selected'   src='G_2.jpg' height='90'> <img   src='G_3.jpg' height='90'> <img    src='G_5.jpg' height='90'> <img    src='G_4.jpg' height='90'> <img src='G_8.jpg' height='90'> <img src='G_7.jpg' height='90'> <img src='G_6.jpg' height='90'> <img src='G_1.jpg' height='90'>","null","Animation1","",""
"","","","","","html-keyboard-response","126","151741","0.0-68.0","9","1","2025-02-02 02:56:10","bc01a2b6f61d06f6604adb8657495020","75.182.243.59","Mozilla/5.0 (Windows NT 10.0; Win64; x64) AppleWebKit/537.36 (KHTML, like Gecko) Chrome/132.0.0.0 Safari/537.36","WebKit","Chrome","132.0.0.0","Windows","10.0","https://app.prolific.com/","en-US,en;q=0.9,de-DE;q=0.8,de;q=0.7","663e3cee91031227e894384a","679edb085803f58d6bbd31ca","679edec050264907ab075f4a","","null","<img id='selected'   src='G_2.jpg' height='90'> <img id='selected'   src='G_3.jpg' height='90'> <img    src='G_5.jpg' height='90'> <img    src='G_4.jpg' height='90'> <img src='G_8.jpg' height='90'> <img src='G_7.jpg' height='90'> <img src='G_6.jpg' height='90'> <img src='G_1.jpg' height='90'>","null","Animation1","",""
"","","","","","html-keyboard-response","127","152249","0.0-69.0","9","1","2025-02-02 02:56:10","bc01a2b6f61d06f6604adb8657495020","75.182.243.59","Mozilla/5.0 (Windows NT 10.0; Win64; x64) AppleWebKit/537.36 (KHTML, like Gecko) Chrome/132.0.0.0 Safari/537.36","WebKit","Chrome","132.0.0.0","Windows","10.0","https://app.prolific.com/","en-US,en;q=0.9,de-DE;q=0.8,de;q=0.7","663e3cee91031227e894384a","679edb085803f58d6bbd31ca","679edec050264907ab075f4a","","null","<img id='swapped'   src='G_3.jpg' height='90'> <img id='swapped'   src='G_2.jpg' height='90'> <img    src='G_5.jpg' height='90'> <img    src='G_4.jpg' height='90'> <img src='G_8.jpg' height='90'> <img src='G_7.jpg' height='90'> <img src='G_6.jpg' height='90'> <img src='G_1.jpg' height='90'>","null","Animation1","",""
"","","","","","html-keyboard-response","128","152561","0.0-70.0","9","1","2025-02-02 02:56:10","bc01a2b6f61d06f6604adb8657495020","75.182.243.59","Mozilla/5.0 (Windows NT 10.0; Win64; x64) AppleWebKit/537.36 (KHTML, like Gecko) Chrome/132.0.0.0 Safari/537.36","WebKit","Chrome","132.0.0.0","Windows","10.0","https://app.prolific.com/","en-US,en;q=0.9,de-DE;q=0.8,de;q=0.7","663e3cee91031227e894384a","679edb085803f58d6bbd31ca","679edec050264907ab075f4a","","null","<img    src='G_3.jpg' height='90'> <img    src='G_2.jpg' height='90'> <img    src='G_5.jpg' height='90'> <img    src='G_4.jpg' height='90'> <img src='G_8.jpg' height='90'> <img src='G_7.jpg' height='90'> <img src='G_6.jpg' height='90'> <img src='G_1.jpg' height='90'>","null","Animation1","",""
"","","","","","html-keyboard-response","129","153074","0.0-71.0","9","1","2025-02-02 02:56:10","bc01a2b6f61d06f6604adb8657495020","75.182.243.59","Mozilla/5.0 (Windows NT 10.0; Win64; x64) AppleWebKit/537.36 (KHTML, like Gecko) Chrome/132.0.0.0 Safari/537.36","WebKit","Chrome","132.0.0.0","Windows","10.0","https://app.prolific.com/","en-US,en;q=0.9,de-DE;q=0.8,de;q=0.7","663e3cee91031227e894384a","679edb085803f58d6bbd31ca","679edec050264907ab075f4a","","null","<img    src='G_3.jpg' height='90'> <img    src='G_2.jpg' height='90'> <img    src='G_5.jpg' height='90'> <img id='selected'    src='G_4.jpg' height='90'> <img src='G_8.jpg' height='90'> <img src='G_7.jpg' height='90'> <img src='G_6.jpg' height='90'> <img src='G_1.jpg' height='90'>","null","Animation1","",""
"","","","","","html-keyboard-response","130","153583","0.0-72.0","9","1","2025-02-02 02:56:10","bc01a2b6f61d06f6604adb8657495020","75.182.243.59","Mozilla/5.0 (Windows NT 10.0; Win64; x64) AppleWebKit/537.36 (KHTML, like Gecko) Chrome/132.0.0.0 Safari/537.36","WebKit","Chrome","132.0.0.0","Windows","10.0","https://app.prolific.com/","en-US,en;q=0.9,de-DE;q=0.8,de;q=0.7","663e3cee91031227e894384a","679edb085803f58d6bbd31ca","679edec050264907ab075f4a","","null","<img    src='G_3.jpg' height='90'> <img    src='G_2.jpg' height='90'> <img    src='G_5.jpg' height='90'> <img id='selected'    src='G_4.jpg' height='90'> <img id='selected' src='G_8.jpg' height='90'> <img src='G_7.jpg' height='90'> <img src='G_6.jpg' height='90'> <img src='G_1.jpg' height='90'>","null","Animation1","",""
"","","","","","html-keyboard-response","131","154093","0.0-73.0","9","1","2025-02-02 02:56:10","bc01a2b6f61d06f6604adb8657495020","75.182.243.59","Mozilla/5.0 (Windows NT 10.0; Win64; x64) AppleWebKit/537.36 (KHTML, like Gecko) Chrome/132.0.0.0 Safari/537.36","WebKit","Chrome","132.0.0.0","Windows","10.0","https://app.prolific.com/","en-US,en;q=0.9,de-DE;q=0.8,de;q=0.7","663e3cee91031227e894384a","679edb085803f58d6bbd31ca","679edec050264907ab075f4a","","null","<img    src='G_3.jpg' height='90'> <img    src='G_2.jpg' height='90'> <img    src='G_5.jpg' height='90'> <img id='swapped' src='G_8.jpg' height='90'> <img id='swapped'    src='G_4.jpg' height='90'> <img src='G_7.jpg' height='90'> <img src='G_6.jpg' height='90'> <img src='G_1.jpg' height='90'>","null","Animation1","",""
"","","","","","html-keyboard-response","132","154402","0.0-74.0","9","1","2025-02-02 02:56:10","bc01a2b6f61d06f6604adb8657495020","75.182.243.59","Mozilla/5.0 (Windows NT 10.0; Win64; x64) AppleWebKit/537.36 (KHTML, like Gecko) Chrome/132.0.0.0 Safari/537.36","WebKit","Chrome","132.0.0.0","Windows","10.0","https://app.prolific.com/","en-US,en;q=0.9,de-DE;q=0.8,de;q=0.7","663e3cee91031227e894384a","679edb085803f58d6bbd31ca","679edec050264907ab075f4a","","null","<img    src='G_3.jpg' height='90'> <img    src='G_2.jpg' height='90'> <img    src='G_5.jpg' height='90'> <img  src='G_8.jpg' height='90'> <img     src='G_4.jpg' height='90'> <img src='G_7.jpg' height='90'> <img src='G_6.jpg' height='90'> <img src='G_1.jpg' height='90'>","null","Animation1","",""
"","","","","","html-keyboard-response","133","154914","0.0-75.0","9","1","2025-02-02 02:56:10","bc01a2b6f61d06f6604adb8657495020","75.182.243.59","Mozilla/5.0 (Windows NT 10.0; Win64; x64) AppleWebKit/537.36 (KHTML, like Gecko) Chrome/132.0.0.0 Safari/537.36","WebKit","Chrome","132.0.0.0","Windows","10.0","https://app.prolific.com/","en-US,en;q=0.9,de-DE;q=0.8,de;q=0.7","663e3cee91031227e894384a","679edb085803f58d6bbd31ca","679edec050264907ab075f4a","","null","<img    src='G_3.jpg' height='90'> <img    src='G_2.jpg' height='90'> <img id='selected'    src='G_5.jpg' height='90'> <img  src='G_8.jpg' height='90'> <img     src='G_4.jpg' height='90'> <img src='G_7.jpg' height='90'> <img src='G_6.jpg' height='90'> <img src='G_1.jpg' height='90'>","null","Animation1","",""
"","","","","","html-keyboard-response","134","155424","0.0-76.0","9","1","2025-02-02 02:56:10","bc01a2b6f61d06f6604adb8657495020","75.182.243.59","Mozilla/5.0 (Windows NT 10.0; Win64; x64) AppleWebKit/537.36 (KHTML, like Gecko) Chrome/132.0.0.0 Safari/537.36","WebKit","Chrome","132.0.0.0","Windows","10.0","https://app.prolific.com/","en-US,en;q=0.9,de-DE;q=0.8,de;q=0.7","663e3cee91031227e894384a","679edb085803f58d6bbd31ca","679edec050264907ab075f4a","","null","<img    src='G_3.jpg' height='90'> <img    src='G_2.jpg' height='90'> <img id='selected'    src='G_5.jpg' height='90'> <img id='selected'  src='G_8.jpg' height='90'> <img     src='G_4.jpg' height='90'> <img src='G_7.jpg' height='90'> <img src='G_6.jpg' height='90'> <img src='G_1.jpg' height='90'>","null","Animation1","",""
"","","","","","html-keyboard-response","135","155936","0.0-77.0","9","1","2025-02-02 02:56:10","bc01a2b6f61d06f6604adb8657495020","75.182.243.59","Mozilla/5.0 (Windows NT 10.0; Win64; x64) AppleWebKit/537.36 (KHTML, like Gecko) Chrome/132.0.0.0 Safari/537.36","WebKit","Chrome","132.0.0.0","Windows","10.0","https://app.prolific.com/","en-US,en;q=0.9,de-DE;q=0.8,de;q=0.7","663e3cee91031227e894384a","679edb085803f58d6bbd31ca","679edec050264907ab075f4a","","null","<img    src='G_3.jpg' height='90'> <img    src='G_2.jpg' height='90'> <img id='swapped'  src='G_8.jpg' height='90'> <img id='swapped'    src='G_5.jpg' height='90'> <img     src='G_4.jpg' height='90'> <img src='G_7.jpg' height='90'> <img src='G_6.jpg' height='90'> <img src='G_1.jpg' height='90'>","null","Animation1","",""
"","","","","","html-keyboard-response","136","156239","0.0-78.0","9","1","2025-02-02 02:56:10","bc01a2b6f61d06f6604adb8657495020","75.182.243.59","Mozilla/5.0 (Windows NT 10.0; Win64; x64) AppleWebKit/537.36 (KHTML, like Gecko) Chrome/132.0.0.0 Safari/537.36","WebKit","Chrome","132.0.0.0","Windows","10.0","https://app.prolific.com/","en-US,en;q=0.9,de-DE;q=0.8,de;q=0.7","663e3cee91031227e894384a","679edb085803f58d6bbd31ca","679edec050264907ab075f4a","","null","<img    src='G_3.jpg' height='90'> <img    src='G_2.jpg' height='90'> <img   src='G_8.jpg' height='90'> <img     src='G_5.jpg' height='90'> <img     src='G_4.jpg' height='90'> <img src='G_7.jpg' height='90'> <img src='G_6.jpg' height='90'> <img src='G_1.jpg' height='90'>","null","Animation1","",""
"","","","","","html-keyboard-response","137","156743","0.0-79.0","9","1","2025-02-02 02:56:10","bc01a2b6f61d06f6604adb8657495020","75.182.243.59","Mozilla/5.0 (Windows NT 10.0; Win64; x64) AppleWebKit/537.36 (KHTML, like Gecko) Chrome/132.0.0.0 Safari/537.36","WebKit","Chrome","132.0.0.0","Windows","10.0","https://app.prolific.com/","en-US,en;q=0.9,de-DE;q=0.8,de;q=0.7","663e3cee91031227e894384a","679edb085803f58d6bbd31ca","679edec050264907ab075f4a","","null","<img    src='G_3.jpg' height='90'> <img id='selected'    src='G_2.jpg' height='90'> <img   src='G_8.jpg' height='90'> <img     src='G_5.jpg' height='90'> <img     src='G_4.jpg' height='90'> <img src='G_7.jpg' height='90'> <img src='G_6.jpg' height='90'> <img src='G_1.jpg' height='90'>","null","Animation1","",""
"","","","","","html-keyboard-response","138","157251","0.0-80.0","9","1","2025-02-02 02:56:10","bc01a2b6f61d06f6604adb8657495020","75.182.243.59","Mozilla/5.0 (Windows NT 10.0; Win64; x64) AppleWebKit/537.36 (KHTML, like Gecko) Chrome/132.0.0.0 Safari/537.36","WebKit","Chrome","132.0.0.0","Windows","10.0","https://app.prolific.com/","en-US,en;q=0.9,de-DE;q=0.8,de;q=0.7","663e3cee91031227e894384a","679edb085803f58d6bbd31ca","679edec050264907ab075f4a","","null","<img    src='G_3.jpg' height='90'> <img id='selected'    src='G_2.jpg' height='90'> <img id='selected'   src='G_8.jpg' height='90'> <img     src='G_5.jpg' height='90'> <img     src='G_4.jpg' height='90'> <img src='G_7.jpg' height='90'> <img src='G_6.jpg' height='90'> <img src='G_1.jpg' height='90'>","null","Animation1","",""
"","","","","","html-keyboard-response","139","157762","0.0-81.0","9","1","2025-02-02 02:56:10","bc01a2b6f61d06f6604adb8657495020","75.182.243.59","Mozilla/5.0 (Windows NT 10.0; Win64; x64) AppleWebKit/537.36 (KHTML, like Gecko) Chrome/132.0.0.0 Safari/537.36","WebKit","Chrome","132.0.0.0","Windows","10.0","https://app.prolific.com/","en-US,en;q=0.9,de-DE;q=0.8,de;q=0.7","663e3cee91031227e894384a","679edb085803f58d6bbd31ca","679edec050264907ab075f4a","","null","<img    src='G_3.jpg' height='90'> <img id='swapped'   src='G_8.jpg' height='90'> <img id='swapped'    src='G_2.jpg' height='90'> <img     src='G_5.jpg' height='90'> <img     src='G_4.jpg' height='90'> <img src='G_7.jpg' height='90'> <img src='G_6.jpg' height='90'> <img src='G_1.jpg' height='90'>","null","Animation1","",""
"","","","","","html-keyboard-response","140","158072","0.0-82.0","9","1","2025-02-02 02:56:10","bc01a2b6f61d06f6604adb8657495020","75.182.243.59","Mozilla/5.0 (Windows NT 10.0; Win64; x64) AppleWebKit/537.36 (KHTML, like Gecko) Chrome/132.0.0.0 Safari/537.36","WebKit","Chrome","132.0.0.0","Windows","10.0","https://app.prolific.com/","en-US,en;q=0.9,de-DE;q=0.8,de;q=0.7","663e3cee91031227e894384a","679edb085803f58d6bbd31ca","679edec050264907ab075f4a","","null","<img    src='G_3.jpg' height='90'> <img    src='G_8.jpg' height='90'> <img     src='G_2.jpg' height='90'> <img     src='G_5.jpg' height='90'> <img     src='G_4.jpg' height='90'> <img src='G_7.jpg' height='90'> <img src='G_6.jpg' height='90'> <img src='G_1.jpg' height='90'>","null","Animation1","",""
"","","","","","html-keyboard-response","141","158582","0.0-83.0","9","1","2025-02-02 02:56:10","bc01a2b6f61d06f6604adb8657495020","75.182.243.59","Mozilla/5.0 (Windows NT 10.0; Win64; x64) AppleWebKit/537.36 (KHTML, like Gecko) Chrome/132.0.0.0 Safari/537.36","WebKit","Chrome","132.0.0.0","Windows","10.0","https://app.prolific.com/","en-US,en;q=0.9,de-DE;q=0.8,de;q=0.7","663e3cee91031227e894384a","679edb085803f58d6bbd31ca","679edec050264907ab075f4a","","null","<img id='selected'    src='G_3.jpg' height='90'> <img    src='G_8.jpg' height='90'> <img     src='G_2.jpg' height='90'> <img     src='G_5.jpg' height='90'> <img     src='G_4.jpg' height='90'> <img src='G_7.jpg' height='90'> <img src='G_6.jpg' height='90'> <img src='G_1.jpg' height='90'>","null","Animation1","",""
"","","","","","html-keyboard-response","142","159089","0.0-84.0","9","1","2025-02-02 02:56:10","bc01a2b6f61d06f6604adb8657495020","75.182.243.59","Mozilla/5.0 (Windows NT 10.0; Win64; x64) AppleWebKit/537.36 (KHTML, like Gecko) Chrome/132.0.0.0 Safari/537.36","WebKit","Chrome","132.0.0.0","Windows","10.0","https://app.prolific.com/","en-US,en;q=0.9,de-DE;q=0.8,de;q=0.7","663e3cee91031227e894384a","679edb085803f58d6bbd31ca","679edec050264907ab075f4a","","null","<img id='selected'    src='G_3.jpg' height='90'> <img id='selected'    src='G_8.jpg' height='90'> <img     src='G_2.jpg' height='90'> <img     src='G_5.jpg' height='90'> <img     src='G_4.jpg' height='90'> <img src='G_7.jpg' height='90'> <img src='G_6.jpg' height='90'> <img src='G_1.jpg' height='90'>","null","Animation1","",""
"","","","","","html-keyboard-response","143","159596","0.0-85.0","9","1","2025-02-02 02:56:10","bc01a2b6f61d06f6604adb8657495020","75.182.243.59","Mozilla/5.0 (Windows NT 10.0; Win64; x64) AppleWebKit/537.36 (KHTML, like Gecko) Chrome/132.0.0.0 Safari/537.36","WebKit","Chrome","132.0.0.0","Windows","10.0","https://app.prolific.com/","en-US,en;q=0.9,de-DE;q=0.8,de;q=0.7","663e3cee91031227e894384a","679edb085803f58d6bbd31ca","679edec050264907ab075f4a","","null","<img id='selected'    src='G_3.jpg' height='90'> <img id='selected'    src='G_8.jpg' height='90'> <img     src='G_2.jpg' height='90'> <img     src='G_5.jpg' height='90'> <img     src='G_4.jpg' height='90'> <img src='G_7.jpg' height='90'> <img src='G_6.jpg' height='90'> <img src='G_1.jpg' height='90'>","null","Animation1","",""
"","","","","","html-keyboard-response","144","159909","0.0-86.0","9","1","2025-02-02 02:56:10","bc01a2b6f61d06f6604adb8657495020","75.182.243.59","Mozilla/5.0 (Windows NT 10.0; Win64; x64) AppleWebKit/537.36 (KHTML, like Gecko) Chrome/132.0.0.0 Safari/537.36","WebKit","Chrome","132.0.0.0","Windows","10.0","https://app.prolific.com/","en-US,en;q=0.9,de-DE;q=0.8,de;q=0.7","663e3cee91031227e894384a","679edb085803f58d6bbd31ca","679edec050264907ab075f4a","","null","<img     src='G_3.jpg' height='90'> <img     src='G_8.jpg' height='90'> <img     src='G_2.jpg' height='90'> <img     src='G_5.jpg' height='90'> <img     src='G_4.jpg' height='90'> <img src='G_7.jpg' height='90'> <img src='G_6.jpg' height='90'> <img src='G_1.jpg' height='90'>","null","Animation1","",""
"","","","","","html-keyboard-response","145","160416","0.0-87.0","9","1","2025-02-02 02:56:10","bc01a2b6f61d06f6604adb8657495020","75.182.243.59","Mozilla/5.0 (Windows NT 10.0; Win64; x64) AppleWebKit/537.36 (KHTML, like Gecko) Chrome/132.0.0.0 Safari/537.36","WebKit","Chrome","132.0.0.0","Windows","10.0","https://app.prolific.com/","en-US,en;q=0.9,de-DE;q=0.8,de;q=0.7","663e3cee91031227e894384a","679edb085803f58d6bbd31ca","679edec050264907ab075f4a","","null","<img     src='G_3.jpg' height='90'> <img     src='G_8.jpg' height='90'> <img     src='G_2.jpg' height='90'> <img     src='G_5.jpg' height='90'> <img id='selected'     src='G_4.jpg' height='90'> <img src='G_7.jpg' height='90'> <img src='G_6.jpg' height='90'> <img src='G_1.jpg' height='90'>","null","Animation1","",""
"","","","","","html-keyboard-response","146","160928","0.0-88.0","9","1","2025-02-02 02:56:10","bc01a2b6f61d06f6604adb8657495020","75.182.243.59","Mozilla/5.0 (Windows NT 10.0; Win64; x64) AppleWebKit/537.36 (KHTML, like Gecko) Chrome/132.0.0.0 Safari/537.36","WebKit","Chrome","132.0.0.0","Windows","10.0","https://app.prolific.com/","en-US,en;q=0.9,de-DE;q=0.8,de;q=0.7","663e3cee91031227e894384a","679edb085803f58d6bbd31ca","679edec050264907ab075f4a","","null","<img     src='G_3.jpg' height='90'> <img     src='G_8.jpg' height='90'> <img     src='G_2.jpg' height='90'> <img     src='G_5.jpg' height='90'> <img id='selected'     src='G_4.jpg' height='90'> <img id='selected' src='G_7.jpg' height='90'> <img src='G_6.jpg' height='90'> <img src='G_1.jpg' height='90'>","null","Animation1","",""
"","","","","","html-keyboard-response","147","161437","0.0-89.0","9","1","2025-02-02 02:56:10","bc01a2b6f61d06f6604adb8657495020","75.182.243.59","Mozilla/5.0 (Windows NT 10.0; Win64; x64) AppleWebKit/537.36 (KHTML, like Gecko) Chrome/132.0.0.0 Safari/537.36","WebKit","Chrome","132.0.0.0","Windows","10.0","https://app.prolific.com/","en-US,en;q=0.9,de-DE;q=0.8,de;q=0.7","663e3cee91031227e894384a","679edb085803f58d6bbd31ca","679edec050264907ab075f4a","","null","<img     src='G_3.jpg' height='90'> <img     src='G_8.jpg' height='90'> <img     src='G_2.jpg' height='90'> <img     src='G_5.jpg' height='90'> <img id='swapped' src='G_7.jpg' height='90'> <img id='swapped'     src='G_4.jpg' height='90'> <img src='G_6.jpg' height='90'> <img src='G_1.jpg' height='90'>","null","Animation1","",""
"","","","","","html-keyboard-response","148","161747","0.0-90.0","9","1","2025-02-02 02:56:10","bc01a2b6f61d06f6604adb8657495020","75.182.243.59","Mozilla/5.0 (Windows NT 10.0; Win64; x64) AppleWebKit/537.36 (KHTML, like Gecko) Chrome/132.0.0.0 Safari/537.36","WebKit","Chrome","132.0.0.0","Windows","10.0","https://app.prolific.com/","en-US,en;q=0.9,de-DE;q=0.8,de;q=0.7","663e3cee91031227e894384a","679edb085803f58d6bbd31ca","679edec050264907ab075f4a","","null","<img     src='G_3.jpg' height='90'> <img     src='G_8.jpg' height='90'> <img     src='G_2.jpg' height='90'> <img     src='G_5.jpg' height='90'> <img  src='G_7.jpg' height='90'> <img      src='G_4.jpg' height='90'> <img src='G_6.jpg' height='90'> <img src='G_1.jpg' height='90'>","null","Animation1","",""
"","","","","","html-keyboard-response","149","162258","0.0-91.0","9","1","2025-02-02 02:56:10","bc01a2b6f61d06f6604adb8657495020","75.182.243.59","Mozilla/5.0 (Windows NT 10.0; Win64; x64) AppleWebKit/537.36 (KHTML, like Gecko) Chrome/132.0.0.0 Safari/537.36","WebKit","Chrome","132.0.0.0","Windows","10.0","https://app.prolific.com/","en-US,en;q=0.9,de-DE;q=0.8,de;q=0.7","663e3cee91031227e894384a","679edb085803f58d6bbd31ca","679edec050264907ab075f4a","","null","<img     src='G_3.jpg' height='90'> <img     src='G_8.jpg' height='90'> <img     src='G_2.jpg' height='90'> <img id='selected'     src='G_5.jpg' height='90'> <img  src='G_7.jpg' height='90'> <img      src='G_4.jpg' height='90'> <img src='G_6.jpg' height='90'> <img src='G_1.jpg' height='90'>","null","Animation1","",""
"","","","","","html-keyboard-response","150","162766","0.0-92.0","9","1","2025-02-02 02:56:10","bc01a2b6f61d06f6604adb8657495020","75.182.243.59","Mozilla/5.0 (Windows NT 10.0; Win64; x64) AppleWebKit/537.36 (KHTML, like Gecko) Chrome/132.0.0.0 Safari/537.36","WebKit","Chrome","132.0.0.0","Windows","10.0","https://app.prolific.com/","en-US,en;q=0.9,de-DE;q=0.8,de;q=0.7","663e3cee91031227e894384a","679edb085803f58d6bbd31ca","679edec050264907ab075f4a","","null","<img     src='G_3.jpg' height='90'> <img     src='G_8.jpg' height='90'> <img     src='G_2.jpg' height='90'> <img id='selected'     src='G_5.jpg' height='90'> <img id='selected'  src='G_7.jpg' height='90'> <img      src='G_4.jpg' height='90'> <img src='G_6.jpg' height='90'> <img src='G_1.jpg' height='90'>","null","Animation1","",""
"","","","","","html-keyboard-response","151","163279","0.0-93.0","9","1","2025-02-02 02:56:10","bc01a2b6f61d06f6604adb8657495020","75.182.243.59","Mozilla/5.0 (Windows NT 10.0; Win64; x64) AppleWebKit/537.36 (KHTML, like Gecko) Chrome/132.0.0.0 Safari/537.36","WebKit","Chrome","132.0.0.0","Windows","10.0","https://app.prolific.com/","en-US,en;q=0.9,de-DE;q=0.8,de;q=0.7","663e3cee91031227e894384a","679edb085803f58d6bbd31ca","679edec050264907ab075f4a","","null","<img     src='G_3.jpg' height='90'> <img     src='G_8.jpg' height='90'> <img     src='G_2.jpg' height='90'> <img id='selected'     src='G_5.jpg' height='90'> <img id='selected'  src='G_7.jpg' height='90'> <img      src='G_4.jpg' height='90'> <img src='G_6.jpg' height='90'> <img src='G_1.jpg' height='90'>","null","Animation1","",""
"","","","","","html-keyboard-response","152","163587","0.0-94.0","9","1","2025-02-02 02:56:10","bc01a2b6f61d06f6604adb8657495020","75.182.243.59","Mozilla/5.0 (Windows NT 10.0; Win64; x64) AppleWebKit/537.36 (KHTML, like Gecko) Chrome/132.0.0.0 Safari/537.36","WebKit","Chrome","132.0.0.0","Windows","10.0","https://app.prolific.com/","en-US,en;q=0.9,de-DE;q=0.8,de;q=0.7","663e3cee91031227e894384a","679edb085803f58d6bbd31ca","679edec050264907ab075f4a","","null","<img     src='G_3.jpg' height='90'> <img     src='G_8.jpg' height='90'> <img     src='G_2.jpg' height='90'> <img      src='G_5.jpg' height='90'> <img   src='G_7.jpg' height='90'> <img      src='G_4.jpg' height='90'> <img src='G_6.jpg' height='90'> <img src='G_1.jpg' height='90'>","null","Animation1","",""
"","","","","","html-keyboard-response","153","164099","0.0-95.0","9","1","2025-02-02 02:56:10","bc01a2b6f61d06f6604adb8657495020","75.182.243.59","Mozilla/5.0 (Windows NT 10.0; Win64; x64) AppleWebKit/537.36 (KHTML, like Gecko) Chrome/132.0.0.0 Safari/537.36","WebKit","Chrome","132.0.0.0","Windows","10.0","https://app.prolific.com/","en-US,en;q=0.9,de-DE;q=0.8,de;q=0.7","663e3cee91031227e894384a","679edb085803f58d6bbd31ca","679edec050264907ab075f4a","","null","<img     src='G_3.jpg' height='90'> <img     src='G_8.jpg' height='90'> <img     src='G_2.jpg' height='90'> <img      src='G_5.jpg' height='90'> <img   src='G_7.jpg' height='90'> <img id='selected'      src='G_4.jpg' height='90'> <img src='G_6.jpg' height='90'> <img src='G_1.jpg' height='90'>","null","Animation1","",""
